"trial_type","trial_index","time_elapsed","internal_node_id","participant","rt","stimulus","response","exp_name","exp_stage","test_part","subjectID","databaseID","counterbal","choice_stimuli_1","choice_stimuli_2","pattern_stimuli","rewarded_answer","correct_answer","feedback_duration_times","stim_left","stim_right","pair","leftright_counter","trial","response_correct","response_rewarded","chosen_stim","counter","displayed_choice","feedback_durations","ITI_duration","labels","rest_warning"
"pavlovia","0","557","0.0-0.0","","","","","","","","","","","","","","","","","","","","","","","","","","","","","",""
"html-keyboard-response","1","3563","0.0-1.0","","null","<div style=""font-size:100px;"">+</div>","null","delaylearn","learning","pre_fixation","5fe247ccdfcbb9dda902109d","","","","","","","","","","","","","","","","","","","","","",""
"html-keyboard-response","2","5059","0.0-2.0-0.0","","1493","<div style=""display: flex; flex-direction: column; align-items: center; margin-top: -40px;""><img src=""images/demo_images/pattern_1.png"" style=""width: 234px; height: 230px; margin-top: -50px;""><div style=""display: flex; justify-content: space-between; margin-top: 33px;""><img src=""images/demo_images/choice_trial_2.png"" style=""width: 408px; height: 417px; margin-right: 200px;""><img src=""images/demo_images/choice_trial_1.png"" style=""width: 408px; height: 417px;""></div></div>","f","delaylearn","learning","trial","5fe247ccdfcbb9dda902109d","l5HCe0nyW7VXeLNPMLz1V3HmbS03","1","images/demo_images/choice_trial_2.png","images/demo_images/choice_trial_1.png","images/demo_images/pattern_1.png","j","j","3000","2","1","20","1","1","0","0","2","0","","","","",""
"html-keyboard-response","3","6073","0.0-2.0-1.0","","null","<div style=""display: flex; flex-direction: column; align-items: center; margin-top: -40px;""><img src=""images/demo_images/pattern_1.png"" style=""width: 234px; height: 230px; margin-top: -50px;""><div style=""display: flex; justify-content: space-between; margin-top: 33px;""><img src=""images/demo_images/choice_trial_2.png"" style=""width: 408px; height: 417px; margin-right: 608px;""></div></div>","null","delaylearn","learning","display_response","5fe247ccdfcbb9dda902109d","l5HCe0nyW7VXeLNPMLz1V3HmbS03","","","","","","","","","","","","","","","","","chosen stimuli: images/demo_images/choice_trial_2.png","","","",""
"html-keyboard-response","4","9086","0.0-2.0-2.0","","null","","null","delaylearn","learning","feedback_duration_window","5fe247ccdfcbb9dda902109d","l5HCe0nyW7VXeLNPMLz1V3HmbS03","","","","","","","","","","","","","","","","","","3000","","",""
"html-keyboard-response","5","10600","0.0-2.0-3.0","","null","<div style='margin:auto;width: auto; font-size: 150%'><span style='font-weight: bold; font-size: 100px; color: red;'>0 points!</span><br><br></div>","null","delaylearn","learning","feedback_image_window","5fe247ccdfcbb9dda902109d","l5HCe0nyW7VXeLNPMLz1V3HmbS03","","","","","","","","","","","","","","","","","","","","",""
"html-keyboard-response","6","12667","0.0-3.0","","null","<div style=""font-size:100px;"">+</div>","null","delaylearn","learning","ITI","5fe247ccdfcbb9dda902109d","l5HCe0nyW7VXeLNPMLz1V3HmbS03","","","","","","","","","","","","","","","","","","","2051","",""
"html-keyboard-response","7","14428","0.0-4.0-0.0","","1758","<div style=""display: flex; flex-direction: column; align-items: center; margin-top: -40px;""><img src=""images/demo_images/pattern_1.png"" style=""width: 234px; height: 230px; margin-top: -50px;""><div style=""display: flex; justify-content: space-between; margin-top: 33px;""><img src=""images/demo_images/choice_trial_2.png"" style=""width: 408px; height: 417px; margin-right: 200px;""><img src=""images/demo_images/choice_trial_1.png"" style=""width: 408px; height: 417px;""></div></div>","j","delaylearn","learning","trial","5fe247ccdfcbb9dda902109d","l5HCe0nyW7VXeLNPMLz1V3HmbS03","1","images/demo_images/choice_trial_2.png","images/demo_images/choice_trial_1.png","images/demo_images/pattern_1.png","j","j","3000","2","1","20","1","2","1","1","1","10","","","","",""
"html-keyboard-response","8","15430","0.0-4.0-1.0","","null","<div style=""display: flex; flex-direction: column; align-items: center; margin-top: -40px;""><img src=""images/demo_images/pattern_1.png"" style=""width: 234px; height: 230px; margin-top: -50px;""><div style=""display: flex; justify-content: space-between; margin-top: 33px;""><img src=""images/demo_images/choice_trial_1.png"" style=""width: 408px; height: 417px; margin-left:608px;""></div></div>","null","delaylearn","learning","display_response","5fe247ccdfcbb9dda902109d","l5HCe0nyW7VXeLNPMLz1V3HmbS03","","","","","","","","","","","","","","","","","chosen stimuli: images/demo_images/choice_trial_1.png","","","",""
"html-keyboard-response","9","18431","0.0-4.0-2.0","","null","","null","delaylearn","learning","feedback_duration_window","5fe247ccdfcbb9dda902109d","l5HCe0nyW7VXeLNPMLz1V3HmbS03","","","","","","","","","","","","","","","","","","3000","","",""
"html-keyboard-response","10","19944","0.0-4.0-3.0","","null","<div style='margin:auto;width: auto; font-size: 150%'><span style='font-weight: bold; font-size: 100px; color: green;'>+10 points!</span><br><br></div>","null","delaylearn","learning","feedback_image_window","5fe247ccdfcbb9dda902109d","l5HCe0nyW7VXeLNPMLz1V3HmbS03","","","","","","","","","","","","","","","","","","","","",""
"html-keyboard-response","11","22223","0.0-5.0","","null","<div style=""font-size:100px;"">+</div>","null","delaylearn","learning","ITI","5fe247ccdfcbb9dda902109d","l5HCe0nyW7VXeLNPMLz1V3HmbS03","","","","","","","","","","","","","","","","","","","2274","",""
"html-keyboard-response","12","23604","0.0-6.0-0.0","","1378.9000000953674","<div style=""display: flex; flex-direction: column; align-items: center; margin-top: -40px;""><img src=""images/demo_images/pattern_1.png"" style=""width: 234px; height: 230px; margin-top: -50px;""><div style=""display: flex; justify-content: space-between; margin-top: 33px;""><img src=""images/demo_images/choice_trial_1.png"" style=""width: 408px; height: 417px; margin-right: 200px;""><img src=""images/demo_images/choice_trial_2.png"" style=""width: 408px; height: 417px;""></div></div>","f","delaylearn","learning","trial","5fe247ccdfcbb9dda902109d","l5HCe0nyW7VXeLNPMLz1V3HmbS03","1","images/demo_images/choice_trial_1.png","images/demo_images/choice_trial_2.png","images/demo_images/pattern_1.png","j","f","3000","1","2","20","0","3","1","0","1","10","","","","",""
"html-keyboard-response","13","24621","0.0-6.0-1.0","","null","<div style=""display: flex; flex-direction: column; align-items: center; margin-top: -40px;""><img src=""images/demo_images/pattern_1.png"" style=""width: 234px; height: 230px; margin-top: -50px;""><div style=""display: flex; justify-content: space-between; margin-top: 33px;""><img src=""images/demo_images/choice_trial_1.png"" style=""width: 408px; height: 417px; margin-right: 608px;""></div></div>","null","delaylearn","learning","display_response","5fe247ccdfcbb9dda902109d","l5HCe0nyW7VXeLNPMLz1V3HmbS03","","","","","","","","","","","","","","","","","chosen stimuli: images/demo_images/choice_trial_1.png","","","",""
"html-keyboard-response","14","27623","0.0-6.0-2.0","","null","","null","delaylearn","learning","feedback_duration_window","5fe247ccdfcbb9dda902109d","l5HCe0nyW7VXeLNPMLz1V3HmbS03","","","","","","","","","","","","","","","","","","3000","","",""
"html-keyboard-response","15","29126","0.0-6.0-3.0","","null","<div style='margin:auto;width: auto; font-size: 150%'><span style='font-weight: bold; font-size: 100px; color: red;'>0 points!</span><br><br></div>","null","delaylearn","learning","feedback_image_window","5fe247ccdfcbb9dda902109d","l5HCe0nyW7VXeLNPMLz1V3HmbS03","","","","","","","","","","","","","","","","","","","","",""
"html-keyboard-response","16","30821","0.0-7.0","","null","<div style=""font-size:100px;"">+</div>","null","delaylearn","learning","ITI","5fe247ccdfcbb9dda902109d","l5HCe0nyW7VXeLNPMLz1V3HmbS03","","","","","","","","","","","","","","","","","","","1683","",""
"html-keyboard-response","17","33395","0.0-8.0-0.0","","2572.2000000476837","<div style=""display: flex; flex-direction: column; align-items: center; margin-top: -40px;""><img src=""images/demo_images/pattern_1.png"" style=""width: 234px; height: 230px; margin-top: -50px;""><div style=""display: flex; justify-content: space-between; margin-top: 33px;""><img src=""images/demo_images/choice_trial_1.png"" style=""width: 408px; height: 417px; margin-right: 200px;""><img src=""images/demo_images/choice_trial_2.png"" style=""width: 408px; height: 417px;""></div></div>","f","delaylearn","learning","trial","5fe247ccdfcbb9dda902109d","l5HCe0nyW7VXeLNPMLz1V3HmbS03","1","images/demo_images/choice_trial_1.png","images/demo_images/choice_trial_2.png","images/demo_images/pattern_1.png","f","f","3000","1","2","20","0","4","1","1","1","20","","","","",""
"html-keyboard-response","18","34413","0.0-8.0-1.0","","null","<div style=""display: flex; flex-direction: column; align-items: center; margin-top: -40px;""><img src=""images/demo_images/pattern_1.png"" style=""width: 234px; height: 230px; margin-top: -50px;""><div style=""display: flex; justify-content: space-between; margin-top: 33px;""><img src=""images/demo_images/choice_trial_1.png"" style=""width: 408px; height: 417px; margin-right: 608px;""></div></div>","null","delaylearn","learning","display_response","5fe247ccdfcbb9dda902109d","l5HCe0nyW7VXeLNPMLz1V3HmbS03","","","","","","","","","","","","","","","","","chosen stimuli: images/demo_images/choice_trial_1.png","","","",""
"html-keyboard-response","19","37425","0.0-8.0-2.0","","null","","null","delaylearn","learning","feedback_duration_window","5fe247ccdfcbb9dda902109d","l5HCe0nyW7VXeLNPMLz1V3HmbS03","","","","","","","","","","","","","","","","","","3000","","",""
"html-keyboard-response","20","38938","0.0-8.0-3.0","","null","<div style='margin:auto;width: auto; font-size: 150%'><span style='font-weight: bold; font-size: 100px; color: green;'>+10 points!</span><br><br></div>","null","delaylearn","learning","feedback_image_window","5fe247ccdfcbb9dda902109d","l5HCe0nyW7VXeLNPMLz1V3HmbS03","","","","","","","","","","","","","","","","","","","","",""
"html-keyboard-response","21","39454","0.0-9.0-0.0","","null","","null","","","mood_trial_fixation","","","","","","","","","","","","","","","","","","","","","","",""
"lmdlab-html-vas-response","22","46440","0.0-9.0-1.0","","5953","How happy are you right now?","0.5324074074074074","delaylearn","learning","mood_trial","5fe247ccdfcbb9dda902109d","l5HCe0nyW7VXeLNPMLz1V3HmbS03","","","","","","","","","","","","","","","","","","","","[""Very unhappy"",""Very happy""]",""
"html-keyboard-response","23","48924","0.0-10.0","","null","<div style=""font-size:100px;"">+</div>","null","delaylearn","learning","ITI","5fe247ccdfcbb9dda902109d","l5HCe0nyW7VXeLNPMLz1V3HmbS03","","","","","","","","","","","","","","","","","","","2482","",""
"html-keyboard-response","24","50923","0.0-11.0-0.0","","1996.5","<div style=""display: flex; flex-direction: column; align-items: center; margin-top: -40px;""><img src=""images/demo_images/pattern_1.png"" style=""width: 234px; height: 230px; margin-top: -50px;""><div style=""display: flex; justify-content: space-between; margin-top: 33px;""><img src=""images/demo_images/choice_trial_2.png"" style=""width: 408px; height: 417px; margin-right: 200px;""><img src=""images/demo_images/choice_trial_1.png"" style=""width: 408px; height: 417px;""></div></div>","j","delaylearn","learning","trial","5fe247ccdfcbb9dda902109d","l5HCe0nyW7VXeLNPMLz1V3HmbS03","1","images/demo_images/choice_trial_2.png","images/demo_images/choice_trial_1.png","images/demo_images/pattern_1.png","j","j","3000","2","1","20","1","5","1","1","1","30","","","","",""
"html-keyboard-response","25","51935","0.0-11.0-1.0","","null","<div style=""display: flex; flex-direction: column; align-items: center; margin-top: -40px;""><img src=""images/demo_images/pattern_1.png"" style=""width: 234px; height: 230px; margin-top: -50px;""><div style=""display: flex; justify-content: space-between; margin-top: 33px;""><img src=""images/demo_images/choice_trial_1.png"" style=""width: 408px; height: 417px; margin-left:608px;""></div></div>","null","delaylearn","learning","display_response","5fe247ccdfcbb9dda902109d","l5HCe0nyW7VXeLNPMLz1V3HmbS03","","","","","","","","","","","","","","","","","chosen stimuli: images/demo_images/choice_trial_1.png","","","",""
"html-keyboard-response","26","54941","0.0-11.0-2.0","","null","","null","delaylearn","learning","feedback_duration_window","5fe247ccdfcbb9dda902109d","l5HCe0nyW7VXeLNPMLz1V3HmbS03","","","","","","","","","","","","","","","","","","3000","","",""
"html-keyboard-response","27","56451","0.0-11.0-3.0","","null","<div style='margin:auto;width: auto; font-size: 150%'><span style='font-weight: bold; font-size: 100px; color: green;'>+10 points!</span><br><br></div>","null","delaylearn","learning","feedback_image_window","5fe247ccdfcbb9dda902109d","l5HCe0nyW7VXeLNPMLz1V3HmbS03","","","","","","","","","","","","","","","","","","","","",""
"html-keyboard-response","28","58592","0.0-12.0","","null","<div style=""font-size:100px;"">+</div>","null","delaylearn","learning","ITI","5fe247ccdfcbb9dda902109d","l5HCe0nyW7VXeLNPMLz1V3HmbS03","","","","","","","","","","","","","","","","","","","2132","",""
"html-keyboard-response","29","60592","0.0-13.0-0.0","","1997.5","<div style=""display: flex; flex-direction: column; align-items: center; margin-top: -40px;""><img src=""images/demo_images/pattern_1.png"" style=""width: 234px; height: 230px; margin-top: -50px;""><div style=""display: flex; justify-content: space-between; margin-top: 33px;""><img src=""images/demo_images/choice_trial_1.png"" style=""width: 408px; height: 417px; margin-right: 200px;""><img src=""images/demo_images/choice_trial_2.png"" style=""width: 408px; height: 417px;""></div></div>","f","delaylearn","learning","trial","5fe247ccdfcbb9dda902109d","l5HCe0nyW7VXeLNPMLz1V3HmbS03","1","images/demo_images/choice_trial_1.png","images/demo_images/choice_trial_2.png","images/demo_images/pattern_1.png","f","f","3000","1","2","20","0","6","1","1","1","40","","","","",""
"html-keyboard-response","30","61605","0.0-13.0-1.0","","null","<div style=""display: flex; flex-direction: column; align-items: center; margin-top: -40px;""><img src=""images/demo_images/pattern_1.png"" style=""width: 234px; height: 230px; margin-top: -50px;""><div style=""display: flex; justify-content: space-between; margin-top: 33px;""><img src=""images/demo_images/choice_trial_1.png"" style=""width: 408px; height: 417px; margin-right: 608px;""></div></div>","null","delaylearn","learning","display_response","5fe247ccdfcbb9dda902109d","l5HCe0nyW7VXeLNPMLz1V3HmbS03","","","","","","","","","","","","","","","","","chosen stimuli: images/demo_images/choice_trial_1.png","","","",""
"html-keyboard-response","31","64614","0.0-13.0-2.0","","null","","null","delaylearn","learning","feedback_duration_window","5fe247ccdfcbb9dda902109d","l5HCe0nyW7VXeLNPMLz1V3HmbS03","","","","","","","","","","","","","","","","","","3000","","",""
"html-keyboard-response","32","66125","0.0-13.0-3.0","","null","<div style='margin:auto;width: auto; font-size: 150%'><span style='font-weight: bold; font-size: 100px; color: green;'>+10 points!</span><br><br></div>","null","delaylearn","learning","feedback_image_window","5fe247ccdfcbb9dda902109d","l5HCe0nyW7VXeLNPMLz1V3HmbS03","","","","","","","","","","","","","","","","","","","","",""
"html-keyboard-response","33","67775","0.0-14.0","","null","<div style=""font-size:100px;"">+</div>","null","delaylearn","learning","ITI","5fe247ccdfcbb9dda902109d","l5HCe0nyW7VXeLNPMLz1V3HmbS03","","","","","","","","","","","","","","","","","","","1643","",""
"html-keyboard-response","34","69358","0.0-15.0-0.0","","1581.0999999046326","<div style=""display: flex; flex-direction: column; align-items: center; margin-top: -40px;""><img src=""images/demo_images/pattern_1.png"" style=""width: 234px; height: 230px; margin-top: -50px;""><div style=""display: flex; justify-content: space-between; margin-top: 33px;""><img src=""images/demo_images/choice_trial_2.png"" style=""width: 408px; height: 417px; margin-right: 200px;""><img src=""images/demo_images/choice_trial_1.png"" style=""width: 408px; height: 417px;""></div></div>","j","delaylearn","learning","trial","5fe247ccdfcbb9dda902109d","l5HCe0nyW7VXeLNPMLz1V3HmbS03","1","images/demo_images/choice_trial_2.png","images/demo_images/choice_trial_1.png","images/demo_images/pattern_1.png","j","j","3000","2","1","20","1","7","1","1","1","50","","","","",""
"html-keyboard-response","35","70368","0.0-15.0-1.0","","null","<div style=""display: flex; flex-direction: column; align-items: center; margin-top: -40px;""><img src=""images/demo_images/pattern_1.png"" style=""width: 234px; height: 230px; margin-top: -50px;""><div style=""display: flex; justify-content: space-between; margin-top: 33px;""><img src=""images/demo_images/choice_trial_1.png"" style=""width: 408px; height: 417px; margin-left:608px;""></div></div>","null","delaylearn","learning","display_response","5fe247ccdfcbb9dda902109d","l5HCe0nyW7VXeLNPMLz1V3HmbS03","","","","","","","","","","","","","","","","","chosen stimuli: images/demo_images/choice_trial_1.png","","","",""
"html-keyboard-response","36","73380","0.0-15.0-2.0","","null","","null","delaylearn","learning","feedback_duration_window","5fe247ccdfcbb9dda902109d","l5HCe0nyW7VXeLNPMLz1V3HmbS03","","","","","","","","","","","","","","","","","","3000","","",""
"html-keyboard-response","37","74886","0.0-15.0-3.0","","null","<div style='margin:auto;width: auto; font-size: 150%'><span style='font-weight: bold; font-size: 100px; color: green;'>+10 points!</span><br><br></div>","null","delaylearn","learning","feedback_image_window","5fe247ccdfcbb9dda902109d","l5HCe0nyW7VXeLNPMLz1V3HmbS03","","","","","","","","","","","","","","","","","","","","",""
"html-keyboard-response","38","76766","0.0-16.0","","null","<div style=""font-size:100px;"">+</div>","null","delaylearn","learning","ITI","5fe247ccdfcbb9dda902109d","l5HCe0nyW7VXeLNPMLz1V3HmbS03","","","","","","","","","","","","","","","","","","","1872","",""
"html-keyboard-response","39","77791","0.0-17.0-0.0","","1023","<div style=""display: flex; flex-direction: column; align-items: center; margin-top: -40px;""><img src=""images/demo_images/pattern_1.png"" style=""width: 234px; height: 230px; margin-top: -50px;""><div style=""display: flex; justify-content: space-between; margin-top: 33px;""><img src=""images/demo_images/choice_trial_1.png"" style=""width: 408px; height: 417px; margin-right: 200px;""><img src=""images/demo_images/choice_trial_2.png"" style=""width: 408px; height: 417px;""></div></div>","f","delaylearn","learning","trial","5fe247ccdfcbb9dda902109d","l5HCe0nyW7VXeLNPMLz1V3HmbS03","1","images/demo_images/choice_trial_1.png","images/demo_images/choice_trial_2.png","images/demo_images/pattern_1.png","f","f","3000","1","2","20","0","8","1","1","1","60","","","","",""
"html-keyboard-response","40","78806","0.0-17.0-1.0","","null","<div style=""display: flex; flex-direction: column; align-items: center; margin-top: -40px;""><img src=""images/demo_images/pattern_1.png"" style=""width: 234px; height: 230px; margin-top: -50px;""><div style=""display: flex; justify-content: space-between; margin-top: 33px;""><img src=""images/demo_images/choice_trial_1.png"" style=""width: 408px; height: 417px; margin-right: 608px;""></div></div>","null","delaylearn","learning","display_response","5fe247ccdfcbb9dda902109d","l5HCe0nyW7VXeLNPMLz1V3HmbS03","","","","","","","","","","","","","","","","","chosen stimuli: images/demo_images/choice_trial_1.png","","","",""
"html-keyboard-response","41","81808","0.0-17.0-2.0","","null","","null","delaylearn","learning","feedback_duration_window","5fe247ccdfcbb9dda902109d","l5HCe0nyW7VXeLNPMLz1V3HmbS03","","","","","","","","","","","","","","","","","","3000","","",""
"html-keyboard-response","42","83319","0.0-17.0-3.0","","null","<div style='margin:auto;width: auto; font-size: 150%'><span style='font-weight: bold; font-size: 100px; color: green;'>+10 points!</span><br><br></div>","null","delaylearn","learning","feedback_image_window","5fe247ccdfcbb9dda902109d","l5HCe0nyW7VXeLNPMLz1V3HmbS03","","","","","","","","","","","","","","","","","","","","",""
"html-button-response","43","88956","0.0-18.0","","5634.200000047684","
  <div style=""display: flex; align-items: center; justify-content: center; height: 80vh;"">
  <div>
          <img src=""images/inst_demo_finish.png"" style=""width: 80vw; height:auto;"">
          <br><br>
      </div>
      <br><br>
  </div>","0","","","","","","","","","","","","","","","","","","","","","","","","","",""
"html-keyboard-response","44","96230","0.0-19.0","","7272.700000047684","
  <div style=""display: flex; align-items: center; justify-content: center; height: 80vh;"">
  <div>
          <img src=""images/inst_6.png"" style=""width: 80vw; height:auto;"">
          <br><br>
      </div>
      <br><br>
  </div>","f","","","","","","","","","","","","","","","","","","","","","","","","","",""
"html-keyboard-response","45","99246","0.0-20.0","","null","<div style=""font-size:100px;"">+</div>","null","delaylearn","learning","pre_fixation","5fe247ccdfcbb9dda902109d","","","","","","","","","","","","","","","","","","","","","",""
"html-keyboard-response","46","100962","0.0-21.0","","null","<div style=""font-size:100px;"">+</div>","null","delaylearn","learning","ITI","5fe247ccdfcbb9dda902109d","l5HCe0nyW7VXeLNPMLz1V3HmbS03","","","","","","","","","","","","","","","","","","","1709","",""
"html-keyboard-response","47","103971","0.0-22.0-0.0","","null","<div style=""display: flex; flex-direction: column; align-items: center; margin-top: -40px;""><img src=""images/pattern_3.png"" style=""width: 234px; height: 230px; margin-top: -50px;""><div style=""display: flex; justify-content: space-between; margin-top: 33px;""><img src=""images/choice_trial_5.png"" style=""width: 408px; height: 417px; margin-right: 200px;""><img src=""images/choice_trial_6.png"" style=""width: 408px; height: 417px;""></div></div>","null","delaylearn","learning","trial","5fe247ccdfcbb9dda902109d","l5HCe0nyW7VXeLNPMLz1V3HmbS03","1","images/choice_trial_5.png","images/choice_trial_6.png","images/pattern_3.png","f","f","7000","5","6","2","0","9","0","0","0","60","","","","",""
"html-keyboard-response","48","104979","0.0-22.0-1.0","","null","<div style='font-weight: bold; font-size: 75px; color: red;'>Missed Trial <br><br><br><br> Please respond faster</div>","null","delaylearn","learning","display_response","5fe247ccdfcbb9dda902109d","l5HCe0nyW7VXeLNPMLz1V3HmbS03","","","","","","","","","","","","","","","","","Missed trial","","","",""
"html-keyboard-response","49","104987","0.0-22.0-2.0","","null","","null","delaylearn","learning","feedback_duration_window","5fe247ccdfcbb9dda902109d","l5HCe0nyW7VXeLNPMLz1V3HmbS03","","","","","","","","","","","","","","","","","","0","","",""
"html-keyboard-response","50","104996","0.0-22.0-3.0","","null","","null","delaylearn","learning","feedback_image_window","5fe247ccdfcbb9dda902109d","l5HCe0nyW7VXeLNPMLz1V3HmbS03","","","","","","","","","","","","","","","","","","","","",""
"html-keyboard-response","51","107009","0.0-23.0","","null","<div style=""font-size:100px;"">+</div>","null","delaylearn","learning","ITI","5fe247ccdfcbb9dda902109d","l5HCe0nyW7VXeLNPMLz1V3HmbS03","","","","","","","","","","","","","","","","","","","2001","",""
"html-keyboard-response","52","108179","0.0-24.0-0.0","","1167.0999999046326","<div style=""display: flex; flex-direction: column; align-items: center; margin-top: -40px;""><img src=""images/pattern_7.png"" style=""width: 234px; height: 230px; margin-top: -50px;""><div style=""display: flex; justify-content: space-between; margin-top: 33px;""><img src=""images/choice_trial_14.png"" style=""width: 408px; height: 417px; margin-right: 200px;""><img src=""images/choice_trial_13.png"" style=""width: 408px; height: 417px;""></div></div>","j","delaylearn","learning","trial","5fe247ccdfcbb9dda902109d","l5HCe0nyW7VXeLNPMLz1V3HmbS03","1","images/choice_trial_14.png","images/choice_trial_13.png","images/pattern_7.png","j","j","750","14","13","6","1","10","1","1","13","70","","","","",""
"html-keyboard-response","53","109191","0.0-24.0-1.0","","null","<div style=""display: flex; flex-direction: column; align-items: center; margin-top: -40px;""><img src=""images/pattern_7.png"" style=""width: 234px; height: 230px; margin-top: -50px;""><div style=""display: flex; justify-content: space-between; margin-top: 33px;""><img src=""images/choice_trial_13.png"" style=""width: 408px; height: 417px; margin-left:608px;""></div></div>","null","delaylearn","learning","display_response","5fe247ccdfcbb9dda902109d","l5HCe0nyW7VXeLNPMLz1V3HmbS03","","","","","","","","","","","","","","","","","chosen stimuli: images/choice_trial_13.png","","","",""
"html-keyboard-response","54","109956","0.0-24.0-2.0","","null","","null","delaylearn","learning","feedback_duration_window","5fe247ccdfcbb9dda902109d","l5HCe0nyW7VXeLNPMLz1V3HmbS03","","","","","","","","","","","","","","","","","","750","","",""
"html-keyboard-response","55","111469","0.0-24.0-3.0","","null","<div style='margin:auto;width: auto; font-size: 150%'><span style='font-weight: bold; font-size: 100px; color: green;'>+10 points!</span><br><br></div>","null","delaylearn","learning","feedback_image_window","5fe247ccdfcbb9dda902109d","l5HCe0nyW7VXeLNPMLz1V3HmbS03","","","","","","","","","","","","","","","","","","","","",""
"html-keyboard-response","56","113854","0.0-25.0","","null","<div style=""font-size:100px;"">+</div>","null","delaylearn","learning","ITI","5fe247ccdfcbb9dda902109d","l5HCe0nyW7VXeLNPMLz1V3HmbS03","","","","","","","","","","","","","","","","","","","2369","",""
"html-keyboard-response","57","115060","0.0-26.0-0.0","","1203.0999999046326","<div style=""display: flex; flex-direction: column; align-items: center; margin-top: -40px;""><img src=""images/pattern_4.png"" style=""width: 234px; height: 230px; margin-top: -50px;""><div style=""display: flex; justify-content: space-between; margin-top: 33px;""><img src=""images/choice_trial_7.png"" style=""width: 408px; height: 417px; margin-right: 200px;""><img src=""images/choice_trial_8.png"" style=""width: 408px; height: 417px;""></div></div>","f","delaylearn","learning","trial","5fe247ccdfcbb9dda902109d","l5HCe0nyW7VXeLNPMLz1V3HmbS03","1","images/choice_trial_7.png","images/choice_trial_8.png","images/pattern_4.png","f","f","7000","7","8","3","0","11","1","1","7","80","","","","",""
"html-keyboard-response","58","116077","0.0-26.0-1.0","","null","<div style=""display: flex; flex-direction: column; align-items: center; margin-top: -40px;""><img src=""images/pattern_4.png"" style=""width: 234px; height: 230px; margin-top: -50px;""><div style=""display: flex; justify-content: space-between; margin-top: 33px;""><img src=""images/choice_trial_7.png"" style=""width: 408px; height: 417px; margin-right: 608px;""></div></div>","null","delaylearn","learning","display_response","5fe247ccdfcbb9dda902109d","l5HCe0nyW7VXeLNPMLz1V3HmbS03","","","","","","","","","","","","","","","","","chosen stimuli: images/choice_trial_7.png","","","",""
"html-keyboard-response","59","123084","0.0-26.0-2.0","","null","","null","delaylearn","learning","feedback_duration_window","5fe247ccdfcbb9dda902109d","l5HCe0nyW7VXeLNPMLz1V3HmbS03","","","","","","","","","","","","","","","","","","7000","","",""
"html-keyboard-response","60","124589","0.0-26.0-3.0","","null","<div style='margin:auto;width: auto; font-size: 150%'><span style='font-weight: bold; font-size: 100px; color: green;'>+10 points!</span><br><br></div>","null","delaylearn","learning","feedback_image_window","5fe247ccdfcbb9dda902109d","l5HCe0nyW7VXeLNPMLz1V3HmbS03","","","","","","","","","","","","","","","","","","","","",""
"html-keyboard-response","61","126495","0.0-27.0","","null","<div style=""font-size:100px;"">+</div>","null","delaylearn","learning","ITI","5fe247ccdfcbb9dda902109d","l5HCe0nyW7VXeLNPMLz1V3HmbS03","","","","","","","","","","","","","","","","","","","1895","",""
"html-keyboard-response","62","127837","0.0-28.0-0.0","","1339.3999998569489","<div style=""display: flex; flex-direction: column; align-items: center; margin-top: -40px;""><img src=""images/pattern_5.png"" style=""width: 234px; height: 230px; margin-top: -50px;""><div style=""display: flex; justify-content: space-between; margin-top: 33px;""><img src=""images/choice_trial_10.png"" style=""width: 408px; height: 417px; margin-right: 200px;""><img src=""images/choice_trial_9.png"" style=""width: 408px; height: 417px;""></div></div>","j","delaylearn","learning","trial","5fe247ccdfcbb9dda902109d","l5HCe0nyW7VXeLNPMLz1V3HmbS03","1","images/choice_trial_10.png","images/choice_trial_9.png","images/pattern_5.png","j","j","750","10","9","4","1","12","1","1","9","90","","","","",""
"html-keyboard-response","63","128841","0.0-28.0-1.0","","null","<div style=""display: flex; flex-direction: column; align-items: center; margin-top: -40px;""><img src=""images/pattern_5.png"" style=""width: 234px; height: 230px; margin-top: -50px;""><div style=""display: flex; justify-content: space-between; margin-top: 33px;""><img src=""images/choice_trial_9.png"" style=""width: 408px; height: 417px; margin-left:608px;""></div></div>","null","delaylearn","learning","display_response","5fe247ccdfcbb9dda902109d","l5HCe0nyW7VXeLNPMLz1V3HmbS03","","","","","","","","","","","","","","","","","chosen stimuli: images/choice_trial_9.png","","","",""
"html-keyboard-response","64","129594","0.0-28.0-2.0","","null","","null","delaylearn","learning","feedback_duration_window","5fe247ccdfcbb9dda902109d","l5HCe0nyW7VXeLNPMLz1V3HmbS03","","","","","","","","","","","","","","","","","","750","","",""
"html-keyboard-response","65","131102","0.0-28.0-3.0","","null","<div style='margin:auto;width: auto; font-size: 150%'><span style='font-weight: bold; font-size: 100px; color: green;'>+10 points!</span><br><br></div>","null","delaylearn","learning","feedback_image_window","5fe247ccdfcbb9dda902109d","l5HCe0nyW7VXeLNPMLz1V3HmbS03","","","","","","","","","","","","","","","","","","","","",""
"html-keyboard-response","66","132907","0.0-29.0","","null","<div style=""font-size:100px;"">+</div>","null","delaylearn","learning","ITI","5fe247ccdfcbb9dda902109d","l5HCe0nyW7VXeLNPMLz1V3HmbS03","","","","","","","","","","","","","","","","","","","1802","",""
"html-keyboard-response","67","134211","0.0-30.0-0.0","","1302.2999999523163","<div style=""display: flex; flex-direction: column; align-items: center; margin-top: -40px;""><img src=""images/pattern_6.png"" style=""width: 234px; height: 230px; margin-top: -50px;""><div style=""display: flex; justify-content: space-between; margin-top: 33px;""><img src=""images/choice_trial_11.png"" style=""width: 408px; height: 417px; margin-right: 200px;""><img src=""images/choice_trial_12.png"" style=""width: 408px; height: 417px;""></div></div>","f","delaylearn","learning","trial","5fe247ccdfcbb9dda902109d","l5HCe0nyW7VXeLNPMLz1V3HmbS03","1","images/choice_trial_11.png","images/choice_trial_12.png","images/pattern_6.png","j","f","750","11","12","5","0","13","1","0","11","90","","","","",""
"html-keyboard-response","68","135227","0.0-30.0-1.0","","null","<div style=""display: flex; flex-direction: column; align-items: center; margin-top: -40px;""><img src=""images/pattern_6.png"" style=""width: 234px; height: 230px; margin-top: -50px;""><div style=""display: flex; justify-content: space-between; margin-top: 33px;""><img src=""images/choice_trial_11.png"" style=""width: 408px; height: 417px; margin-right: 608px;""></div></div>","null","delaylearn","learning","display_response","5fe247ccdfcbb9dda902109d","l5HCe0nyW7VXeLNPMLz1V3HmbS03","","","","","","","","","","","","","","","","","chosen stimuli: images/choice_trial_11.png","","","",""
"html-keyboard-response","69","135981","0.0-30.0-2.0","","null","","null","delaylearn","learning","feedback_duration_window","5fe247ccdfcbb9dda902109d","l5HCe0nyW7VXeLNPMLz1V3HmbS03","","","","","","","","","","","","","","","","","","750","","",""
"html-keyboard-response","70","137494","0.0-30.0-3.0","","null","<div style='margin:auto;width: auto; font-size: 150%'><span style='font-weight: bold; font-size: 100px; color: red;'>0 points!</span><br><br></div>","null","delaylearn","learning","feedback_image_window","5fe247ccdfcbb9dda902109d","l5HCe0nyW7VXeLNPMLz1V3HmbS03","","","","","","","","","","","","","","","","","","","","",""
"html-keyboard-response","71","137998","0.0-31.0-0.0","","null","","null","","","mood_trial_fixation","","","","","","","","","","","","","","","","","","","","","","",""
"lmdlab-html-vas-response","72","147532","0.0-31.0-1.0","","8511","How happy are you right now?","0.4675925925925926","delaylearn","learning","mood_trial","5fe247ccdfcbb9dda902109d","l5HCe0nyW7VXeLNPMLz1V3HmbS03","","","","","","","","","","","","","","","","","","","","[""Very unhappy"",""Very happy""]",""
"html-keyboard-response","73","150034","0.0-32.0","","null","<div style=""font-size:100px;"">+</div>","null","delaylearn","learning","ITI","5fe247ccdfcbb9dda902109d","l5HCe0nyW7VXeLNPMLz1V3HmbS03","","","","","","","","","","","","","","","","","","","2498","",""
"html-keyboard-response","74","151481","0.0-33.0-0.0","","1443.7999999523163","<div style=""display: flex; flex-direction: column; align-items: center; margin-top: -40px;""><img src=""images/pattern_1.png"" style=""width: 234px; height: 230px; margin-top: -50px;""><div style=""display: flex; justify-content: space-between; margin-top: 33px;""><img src=""images/choice_trial_2.png"" style=""width: 408px; height: 417px; margin-right: 200px;""><img src=""images/choice_trial_1.png"" style=""width: 408px; height: 417px;""></div></div>","f","delaylearn","learning","trial","5fe247ccdfcbb9dda902109d","l5HCe0nyW7VXeLNPMLz1V3HmbS03","1","images/choice_trial_2.png","images/choice_trial_1.png","images/pattern_1.png","j","j","7000","2","1","1","1","14","0","0","2","90","","","","",""
"html-keyboard-response","75","152493","0.0-33.0-1.0","","null","<div style=""display: flex; flex-direction: column; align-items: center; margin-top: -40px;""><img src=""images/pattern_1.png"" style=""width: 234px; height: 230px; margin-top: -50px;""><div style=""display: flex; justify-content: space-between; margin-top: 33px;""><img src=""images/choice_trial_2.png"" style=""width: 408px; height: 417px; margin-right: 608px;""></div></div>","null","delaylearn","learning","display_response","5fe247ccdfcbb9dda902109d","l5HCe0nyW7VXeLNPMLz1V3HmbS03","","","","","","","","","","","","","","","","","chosen stimuli: images/choice_trial_2.png","","","",""
"html-keyboard-response","76","159506","0.0-33.0-2.0","","null","","null","delaylearn","learning","feedback_duration_window","5fe247ccdfcbb9dda902109d","l5HCe0nyW7VXeLNPMLz1V3HmbS03","","","","","","","","","","","","","","","","","","7000","","",""
"html-keyboard-response","77","161010","0.0-33.0-3.0","","null","<div style='margin:auto;width: auto; font-size: 150%'><span style='font-weight: bold; font-size: 100px; color: red;'>0 points!</span><br><br></div>","null","delaylearn","learning","feedback_image_window","5fe247ccdfcbb9dda902109d","l5HCe0nyW7VXeLNPMLz1V3HmbS03","","","","","","","","","","","","","","","","","","","","",""
"html-keyboard-response","78","163061","0.0-34.0","","null","<div style=""font-size:100px;"">+</div>","null","delaylearn","learning","ITI","5fe247ccdfcbb9dda902109d","l5HCe0nyW7VXeLNPMLz1V3HmbS03","","","","","","","","","","","","","","","","","","","2046","",""
"html-keyboard-response","79","164753","0.0-35.0-0.0","","1690.5","<div style=""display: flex; flex-direction: column; align-items: center; margin-top: -40px;""><img src=""images/pattern_3.png"" style=""width: 234px; height: 230px; margin-top: -50px;""><div style=""display: flex; justify-content: space-between; margin-top: 33px;""><img src=""images/choice_trial_6.png"" style=""width: 408px; height: 417px; margin-right: 200px;""><img src=""images/choice_trial_5.png"" style=""width: 408px; height: 417px;""></div></div>","f","delaylearn","learning","trial","5fe247ccdfcbb9dda902109d","l5HCe0nyW7VXeLNPMLz1V3HmbS03","1","images/choice_trial_6.png","images/choice_trial_5.png","images/pattern_3.png","f","j","7000","6","5","2","1","15","0","1","6","100","","","","",""
"html-keyboard-response","80","165764","0.0-35.0-1.0","","null","<div style=""display: flex; flex-direction: column; align-items: center; margin-top: -40px;""><img src=""images/pattern_3.png"" style=""width: 234px; height: 230px; margin-top: -50px;""><div style=""display: flex; justify-content: space-between; margin-top: 33px;""><img src=""images/choice_trial_6.png"" style=""width: 408px; height: 417px; margin-right: 608px;""></div></div>","null","delaylearn","learning","display_response","5fe247ccdfcbb9dda902109d","l5HCe0nyW7VXeLNPMLz1V3HmbS03","","","","","","","","","","","","","","","","","chosen stimuli: images/choice_trial_6.png","","","",""
"html-keyboard-response","81","172777","0.0-35.0-2.0","","null","","null","delaylearn","learning","feedback_duration_window","5fe247ccdfcbb9dda902109d","l5HCe0nyW7VXeLNPMLz1V3HmbS03","","","","","","","","","","","","","","","","","","7000","","",""
"html-keyboard-response","82","174293","0.0-35.0-3.0","","null","<div style='margin:auto;width: auto; font-size: 150%'><span style='font-weight: bold; font-size: 100px; color: green;'>+10 points!</span><br><br></div>","null","delaylearn","learning","feedback_image_window","5fe247ccdfcbb9dda902109d","l5HCe0nyW7VXeLNPMLz1V3HmbS03","","","","","","","","","","","","","","","","","","","","",""
"html-keyboard-response","83","176121","0.0-36.0","","null","<div style=""font-size:100px;"">+</div>","null","delaylearn","learning","ITI","5fe247ccdfcbb9dda902109d","l5HCe0nyW7VXeLNPMLz1V3HmbS03","","","","","","","","","","","","","","","","","","","1827","",""
"html-keyboard-response","84","178083","0.0-37.0-0.0","","1959.7000000476837","<div style=""display: flex; flex-direction: column; align-items: center; margin-top: -40px;""><img src=""images/pattern_5.png"" style=""width: 234px; height: 230px; margin-top: -50px;""><div style=""display: flex; justify-content: space-between; margin-top: 33px;""><img src=""images/choice_trial_9.png"" style=""width: 408px; height: 417px; margin-right: 200px;""><img src=""images/choice_trial_10.png"" style=""width: 408px; height: 417px;""></div></div>","j","delaylearn","learning","trial","5fe247ccdfcbb9dda902109d","l5HCe0nyW7VXeLNPMLz1V3HmbS03","1","images/choice_trial_9.png","images/choice_trial_10.png","images/pattern_5.png","f","f","750","9","10","4","0","16","0","0","10","100","","","","",""
"html-keyboard-response","85","179096","0.0-37.0-1.0","","null","<div style=""display: flex; flex-direction: column; align-items: center; margin-top: -40px;""><img src=""images/pattern_5.png"" style=""width: 234px; height: 230px; margin-top: -50px;""><div style=""display: flex; justify-content: space-between; margin-top: 33px;""><img src=""images/choice_trial_10.png"" style=""width: 408px; height: 417px; margin-left:608px;""></div></div>","null","delaylearn","learning","display_response","5fe247ccdfcbb9dda902109d","l5HCe0nyW7VXeLNPMLz1V3HmbS03","","","","","","","","","","","","","","","","","chosen stimuli: images/choice_trial_10.png","","","",""
"html-keyboard-response","86","179856","0.0-37.0-2.0","","null","","null","delaylearn","learning","feedback_duration_window","5fe247ccdfcbb9dda902109d","l5HCe0nyW7VXeLNPMLz1V3HmbS03","","","","","","","","","","","","","","","","","","750","","",""
"html-keyboard-response","87","181367","0.0-37.0-3.0","","null","<div style='margin:auto;width: auto; font-size: 150%'><span style='font-weight: bold; font-size: 100px; color: red;'>0 points!</span><br><br></div>","null","delaylearn","learning","feedback_image_window","5fe247ccdfcbb9dda902109d","l5HCe0nyW7VXeLNPMLz1V3HmbS03","","","","","","","","","","","","","","","","","","","","",""
"html-keyboard-response","88","181878","0.0-38.0-0.0","","null","","null","","","mood_trial_fixation","","","","","","","","","","","","","","","","","","","","","","",""
"lmdlab-html-vas-response","89","186526","0.0-38.0-1.0","","3628","How happy are you right now?","0.4699074074074074","delaylearn","learning","mood_trial","5fe247ccdfcbb9dda902109d","l5HCe0nyW7VXeLNPMLz1V3HmbS03","","","","","","","","","","","","","","","","","","","","[""Very unhappy"",""Very happy""]",""
"html-keyboard-response","90","188470","0.0-39.0","","null","<div style=""font-size:100px;"">+</div>","null","delaylearn","learning","ITI","5fe247ccdfcbb9dda902109d","l5HCe0nyW7VXeLNPMLz1V3HmbS03","","","","","","","","","","","","","","","","","","","1929","",""
"html-keyboard-response","91","189721","0.0-40.0-0.0","","1249.5","<div style=""display: flex; flex-direction: column; align-items: center; margin-top: -40px;""><img src=""images/pattern_6.png"" style=""width: 234px; height: 230px; margin-top: -50px;""><div style=""display: flex; justify-content: space-between; margin-top: 33px;""><img src=""images/choice_trial_11.png"" style=""width: 408px; height: 417px; margin-right: 200px;""><img src=""images/choice_trial_12.png"" style=""width: 408px; height: 417px;""></div></div>","f","delaylearn","learning","trial","5fe247ccdfcbb9dda902109d","l5HCe0nyW7VXeLNPMLz1V3HmbS03","1","images/choice_trial_11.png","images/choice_trial_12.png","images/pattern_6.png","f","f","750","11","12","5","0","17","1","1","11","110","","","","",""
"html-keyboard-response","92","190739","0.0-40.0-1.0","","null","<div style=""display: flex; flex-direction: column; align-items: center; margin-top: -40px;""><img src=""images/pattern_6.png"" style=""width: 234px; height: 230px; margin-top: -50px;""><div style=""display: flex; justify-content: space-between; margin-top: 33px;""><img src=""images/choice_trial_11.png"" style=""width: 408px; height: 417px; margin-right: 608px;""></div></div>","null","delaylearn","learning","display_response","5fe247ccdfcbb9dda902109d","l5HCe0nyW7VXeLNPMLz1V3HmbS03","","","","","","","","","","","","","","","","","chosen stimuli: images/choice_trial_11.png","","","",""
"html-keyboard-response","93","191497","0.0-40.0-2.0","","null","","null","delaylearn","learning","feedback_duration_window","5fe247ccdfcbb9dda902109d","l5HCe0nyW7VXeLNPMLz1V3HmbS03","","","","","","","","","","","","","","","","","","750","","",""
"html-keyboard-response","94","192999","0.0-40.0-3.0","","null","<div style='margin:auto;width: auto; font-size: 150%'><span style='font-weight: bold; font-size: 100px; color: green;'>+10 points!</span><br><br></div>","null","delaylearn","learning","feedback_image_window","5fe247ccdfcbb9dda902109d","l5HCe0nyW7VXeLNPMLz1V3HmbS03","","","","","","","","","","","","","","","","","","","","",""
"html-keyboard-response","95","194984","0.0-41.0","","null","<div style=""font-size:100px;"">+</div>","null","delaylearn","learning","ITI","5fe247ccdfcbb9dda902109d","l5HCe0nyW7VXeLNPMLz1V3HmbS03","","","","","","","","","","","","","","","","","","","1977","",""
"html-keyboard-response","96","196792","0.0-42.0-0.0","","1806.4000000953674","<div style=""display: flex; flex-direction: column; align-items: center; margin-top: -40px;""><img src=""images/pattern_4.png"" style=""width: 234px; height: 230px; margin-top: -50px;""><div style=""display: flex; justify-content: space-between; margin-top: 33px;""><img src=""images/choice_trial_8.png"" style=""width: 408px; height: 417px; margin-right: 200px;""><img src=""images/choice_trial_7.png"" style=""width: 408px; height: 417px;""></div></div>","j","delaylearn","learning","trial","5fe247ccdfcbb9dda902109d","l5HCe0nyW7VXeLNPMLz1V3HmbS03","1","images/choice_trial_8.png","images/choice_trial_7.png","images/pattern_4.png","j","j","7000","8","7","3","1","18","1","1","7","120","","","","",""
"html-keyboard-response","97","197801","0.0-42.0-1.0","","null","<div style=""display: flex; flex-direction: column; align-items: center; margin-top: -40px;""><img src=""images/pattern_4.png"" style=""width: 234px; height: 230px; margin-top: -50px;""><div style=""display: flex; justify-content: space-between; margin-top: 33px;""><img src=""images/choice_trial_7.png"" style=""width: 408px; height: 417px; margin-left:608px;""></div></div>","null","delaylearn","learning","display_response","5fe247ccdfcbb9dda902109d","l5HCe0nyW7VXeLNPMLz1V3HmbS03","","","","","","","","","","","","","","","","","chosen stimuli: images/choice_trial_7.png","","","",""
"html-keyboard-response","98","204809","0.0-42.0-2.0","","null","","null","delaylearn","learning","feedback_duration_window","5fe247ccdfcbb9dda902109d","l5HCe0nyW7VXeLNPMLz1V3HmbS03","","","","","","","","","","","","","","","","","","7000","","",""
"html-keyboard-response","99","206319","0.0-42.0-3.0","","null","<div style='margin:auto;width: auto; font-size: 150%'><span style='font-weight: bold; font-size: 100px; color: green;'>+10 points!</span><br><br></div>","null","delaylearn","learning","feedback_image_window","5fe247ccdfcbb9dda902109d","l5HCe0nyW7VXeLNPMLz1V3HmbS03","","","","","","","","","","","","","","","","","","","","",""
"html-keyboard-response","100","208008","0.0-43.0","","null","<div style=""font-size:100px;"">+</div>","null","delaylearn","learning","ITI","5fe247ccdfcbb9dda902109d","l5HCe0nyW7VXeLNPMLz1V3HmbS03","","","","","","","","","","","","","","","","","","","1687","",""
"html-keyboard-response","101","209310","0.0-44.0-0.0","","1299.5999999046326","<div style=""display: flex; flex-direction: column; align-items: center; margin-top: -40px;""><img src=""images/pattern_7.png"" style=""width: 234px; height: 230px; margin-top: -50px;""><div style=""display: flex; justify-content: space-between; margin-top: 33px;""><img src=""images/choice_trial_13.png"" style=""width: 408px; height: 417px; margin-right: 200px;""><img src=""images/choice_trial_14.png"" style=""width: 408px; height: 417px;""></div></div>","f","delaylearn","learning","trial","5fe247ccdfcbb9dda902109d","l5HCe0nyW7VXeLNPMLz1V3HmbS03","1","images/choice_trial_13.png","images/choice_trial_14.png","images/pattern_7.png","j","f","750","13","14","6","0","19","1","0","13","120","","","","",""
"html-keyboard-response","102","210321","0.0-44.0-1.0","","null","<div style=""display: flex; flex-direction: column; align-items: center; margin-top: -40px;""><img src=""images/pattern_7.png"" style=""width: 234px; height: 230px; margin-top: -50px;""><div style=""display: flex; justify-content: space-between; margin-top: 33px;""><img src=""images/choice_trial_13.png"" style=""width: 408px; height: 417px; margin-right: 608px;""></div></div>","null","delaylearn","learning","display_response","5fe247ccdfcbb9dda902109d","l5HCe0nyW7VXeLNPMLz1V3HmbS03","","","","","","","","","","","","","","","","","chosen stimuli: images/choice_trial_13.png","","","",""
"html-keyboard-response","103","211077","0.0-44.0-2.0","","null","","null","delaylearn","learning","feedback_duration_window","5fe247ccdfcbb9dda902109d","l5HCe0nyW7VXeLNPMLz1V3HmbS03","","","","","","","","","","","","","","","","","","750","","",""
"html-keyboard-response","104","212593","0.0-44.0-3.0","","null","<div style='margin:auto;width: auto; font-size: 150%'><span style='font-weight: bold; font-size: 100px; color: red;'>0 points!</span><br><br></div>","null","delaylearn","learning","feedback_image_window","5fe247ccdfcbb9dda902109d","l5HCe0nyW7VXeLNPMLz1V3HmbS03","","","","","","","","","","","","","","","","","","","","",""
"html-keyboard-response","105","214317","0.0-45.0","","null","<div style=""font-size:100px;"">+</div>","null","delaylearn","learning","ITI","5fe247ccdfcbb9dda902109d","l5HCe0nyW7VXeLNPMLz1V3HmbS03","","","","","","","","","","","","","","","","","","","1711","",""
"html-keyboard-response","106","216021","0.0-46.0-0.0","","1702","<div style=""display: flex; flex-direction: column; align-items: center; margin-top: -40px;""><img src=""images/pattern_1.png"" style=""width: 234px; height: 230px; margin-top: -50px;""><div style=""display: flex; justify-content: space-between; margin-top: 33px;""><img src=""images/choice_trial_1.png"" style=""width: 408px; height: 417px; margin-right: 200px;""><img src=""images/choice_trial_2.png"" style=""width: 408px; height: 417px;""></div></div>","f","delaylearn","learning","trial","5fe247ccdfcbb9dda902109d","l5HCe0nyW7VXeLNPMLz1V3HmbS03","1","images/choice_trial_1.png","images/choice_trial_2.png","images/pattern_1.png","f","f","7000","1","2","1","0","20","1","1","1","130","","","","",""
"html-keyboard-response","107","217031","0.0-46.0-1.0","","null","<div style=""display: flex; flex-direction: column; align-items: center; margin-top: -40px;""><img src=""images/pattern_1.png"" style=""width: 234px; height: 230px; margin-top: -50px;""><div style=""display: flex; justify-content: space-between; margin-top: 33px;""><img src=""images/choice_trial_1.png"" style=""width: 408px; height: 417px; margin-right: 608px;""></div></div>","null","delaylearn","learning","display_response","5fe247ccdfcbb9dda902109d","l5HCe0nyW7VXeLNPMLz1V3HmbS03","","","","","","","","","","","","","","","","","chosen stimuli: images/choice_trial_1.png","","","",""
"html-keyboard-response","108","224046","0.0-46.0-2.0","","null","","null","delaylearn","learning","feedback_duration_window","5fe247ccdfcbb9dda902109d","l5HCe0nyW7VXeLNPMLz1V3HmbS03","","","","","","","","","","","","","","","","","","7000","","",""
"html-keyboard-response","109","225562","0.0-46.0-3.0","","null","<div style='margin:auto;width: auto; font-size: 150%'><span style='font-weight: bold; font-size: 100px; color: green;'>+10 points!</span><br><br></div>","null","delaylearn","learning","feedback_image_window","5fe247ccdfcbb9dda902109d","l5HCe0nyW7VXeLNPMLz1V3HmbS03","","","","","","","","","","","","","","","","","","","","",""
"html-keyboard-response","110","227086","0.0-47.0","","null","<div style=""font-size:100px;"">+</div>","null","delaylearn","learning","ITI","5fe247ccdfcbb9dda902109d","l5HCe0nyW7VXeLNPMLz1V3HmbS03","","","","","","","","","","","","","","","","","","","1516","",""
"html-keyboard-response","111","228911","0.0-48.0-0.0","","1822.5999999046326","<div style=""display: flex; flex-direction: column; align-items: center; margin-top: -40px;""><img src=""images/pattern_6.png"" style=""width: 234px; height: 230px; margin-top: -50px;""><div style=""display: flex; justify-content: space-between; margin-top: 33px;""><img src=""images/choice_trial_12.png"" style=""width: 408px; height: 417px; margin-right: 200px;""><img src=""images/choice_trial_11.png"" style=""width: 408px; height: 417px;""></div></div>","f","delaylearn","learning","trial","5fe247ccdfcbb9dda902109d","l5HCe0nyW7VXeLNPMLz1V3HmbS03","1","images/choice_trial_12.png","images/choice_trial_11.png","images/pattern_6.png","j","j","750","12","11","5","1","21","0","0","12","130","","","","",""
"html-keyboard-response","112","229926","0.0-48.0-1.0","","null","<div style=""display: flex; flex-direction: column; align-items: center; margin-top: -40px;""><img src=""images/pattern_6.png"" style=""width: 234px; height: 230px; margin-top: -50px;""><div style=""display: flex; justify-content: space-between; margin-top: 33px;""><img src=""images/choice_trial_12.png"" style=""width: 408px; height: 417px; margin-right: 608px;""></div></div>","null","delaylearn","learning","display_response","5fe247ccdfcbb9dda902109d","l5HCe0nyW7VXeLNPMLz1V3HmbS03","","","","","","","","","","","","","","","","","chosen stimuli: images/choice_trial_12.png","","","",""
"html-keyboard-response","113","230691","0.0-48.0-2.0","","null","","null","delaylearn","learning","feedback_duration_window","5fe247ccdfcbb9dda902109d","l5HCe0nyW7VXeLNPMLz1V3HmbS03","","","","","","","","","","","","","","","","","","750","","",""
"html-keyboard-response","114","232203","0.0-48.0-3.0","","null","<div style='margin:auto;width: auto; font-size: 150%'><span style='font-weight: bold; font-size: 100px; color: red;'>0 points!</span><br><br></div>","null","delaylearn","learning","feedback_image_window","5fe247ccdfcbb9dda902109d","l5HCe0nyW7VXeLNPMLz1V3HmbS03","","","","","","","","","","","","","","","","","","","","",""
"html-keyboard-response","115","233756","0.0-49.0","","null","<div style=""font-size:100px;"">+</div>","null","delaylearn","learning","ITI","5fe247ccdfcbb9dda902109d","l5HCe0nyW7VXeLNPMLz1V3HmbS03","","","","","","","","","","","","","","","","","","","1543","",""
"html-keyboard-response","116","235360","0.0-50.0-0.0","","1601.6999998092651","<div style=""display: flex; flex-direction: column; align-items: center; margin-top: -40px;""><img src=""images/pattern_4.png"" style=""width: 234px; height: 230px; margin-top: -50px;""><div style=""display: flex; justify-content: space-between; margin-top: 33px;""><img src=""images/choice_trial_7.png"" style=""width: 408px; height: 417px; margin-right: 200px;""><img src=""images/choice_trial_8.png"" style=""width: 408px; height: 417px;""></div></div>","f","delaylearn","learning","trial","5fe247ccdfcbb9dda902109d","l5HCe0nyW7VXeLNPMLz1V3HmbS03","1","images/choice_trial_7.png","images/choice_trial_8.png","images/pattern_4.png","f","f","7000","7","8","3","0","22","1","1","7","140","","","","",""
"html-keyboard-response","117","236373","0.0-50.0-1.0","","null","<div style=""display: flex; flex-direction: column; align-items: center; margin-top: -40px;""><img src=""images/pattern_4.png"" style=""width: 234px; height: 230px; margin-top: -50px;""><div style=""display: flex; justify-content: space-between; margin-top: 33px;""><img src=""images/choice_trial_7.png"" style=""width: 408px; height: 417px; margin-right: 608px;""></div></div>","null","delaylearn","learning","display_response","5fe247ccdfcbb9dda902109d","l5HCe0nyW7VXeLNPMLz1V3HmbS03","","","","","","","","","","","","","","","","","chosen stimuli: images/choice_trial_7.png","","","",""
"html-keyboard-response","118","243381","0.0-50.0-2.0","","null","","null","delaylearn","learning","feedback_duration_window","5fe247ccdfcbb9dda902109d","l5HCe0nyW7VXeLNPMLz1V3HmbS03","","","","","","","","","","","","","","","","","","7000","","",""
"html-keyboard-response","119","244883","0.0-50.0-3.0","","null","<div style='margin:auto;width: auto; font-size: 150%'><span style='font-weight: bold; font-size: 100px; color: green;'>+10 points!</span><br><br></div>","null","delaylearn","learning","feedback_image_window","5fe247ccdfcbb9dda902109d","l5HCe0nyW7VXeLNPMLz1V3HmbS03","","","","","","","","","","","","","","","","","","","","",""
"html-keyboard-response","120","245389","0.0-51.0-0.0","","null","","null","","","mood_trial_fixation","","","","","","","","","","","","","","","","","","","","","","",""
"lmdlab-html-vas-response","121","253031","0.0-51.0-1.0","","6629","How happy are you right now?","0.46296296296296297","delaylearn","learning","mood_trial","5fe247ccdfcbb9dda902109d","l5HCe0nyW7VXeLNPMLz1V3HmbS03","","","","","","","","","","","","","","","","","","","","[""Very unhappy"",""Very happy""]",""
"html-keyboard-response","122","255002","0.0-52.0","","null","<div style=""font-size:100px;"">+</div>","null","delaylearn","learning","ITI","5fe247ccdfcbb9dda902109d","l5HCe0nyW7VXeLNPMLz1V3HmbS03","","","","","","","","","","","","","","","","","","","1964","",""
"html-keyboard-response","123","256252","0.0-53.0-0.0","","1247","<div style=""display: flex; flex-direction: column; align-items: center; margin-top: -40px;""><img src=""images/pattern_7.png"" style=""width: 234px; height: 230px; margin-top: -50px;""><div style=""display: flex; justify-content: space-between; margin-top: 33px;""><img src=""images/choice_trial_14.png"" style=""width: 408px; height: 417px; margin-right: 200px;""><img src=""images/choice_trial_13.png"" style=""width: 408px; height: 417px;""></div></div>","j","delaylearn","learning","trial","5fe247ccdfcbb9dda902109d","l5HCe0nyW7VXeLNPMLz1V3HmbS03","1","images/choice_trial_14.png","images/choice_trial_13.png","images/pattern_7.png","j","j","750","14","13","6","1","23","1","1","13","150","","","","",""
"html-keyboard-response","124","257254","0.0-53.0-1.0","","null","<div style=""display: flex; flex-direction: column; align-items: center; margin-top: -40px;""><img src=""images/pattern_7.png"" style=""width: 234px; height: 230px; margin-top: -50px;""><div style=""display: flex; justify-content: space-between; margin-top: 33px;""><img src=""images/choice_trial_13.png"" style=""width: 408px; height: 417px; margin-left:608px;""></div></div>","null","delaylearn","learning","display_response","5fe247ccdfcbb9dda902109d","l5HCe0nyW7VXeLNPMLz1V3HmbS03","","","","","","","","","","","","","","","","","chosen stimuli: images/choice_trial_13.png","","","",""
"html-keyboard-response","125","258007","0.0-53.0-2.0","","null","","null","delaylearn","learning","feedback_duration_window","5fe247ccdfcbb9dda902109d","l5HCe0nyW7VXeLNPMLz1V3HmbS03","","","","","","","","","","","","","","","","","","750","","",""
"html-keyboard-response","126","259521","0.0-53.0-3.0","","null","<div style='margin:auto;width: auto; font-size: 150%'><span style='font-weight: bold; font-size: 100px; color: green;'>+10 points!</span><br><br></div>","null","delaylearn","learning","feedback_image_window","5fe247ccdfcbb9dda902109d","l5HCe0nyW7VXeLNPMLz1V3HmbS03","","","","","","","","","","","","","","","","","","","","",""
"html-keyboard-response","127","261835","0.0-54.0","","null","<div style=""font-size:100px;"">+</div>","null","delaylearn","learning","ITI","5fe247ccdfcbb9dda902109d","l5HCe0nyW7VXeLNPMLz1V3HmbS03","","","","","","","","","","","","","","","","","","","2307","",""
"html-keyboard-response","128","262990","0.0-55.0-0.0","","1153.2000000476837","<div style=""display: flex; flex-direction: column; align-items: center; margin-top: -40px;""><img src=""images/pattern_1.png"" style=""width: 234px; height: 230px; margin-top: -50px;""><div style=""display: flex; justify-content: space-between; margin-top: 33px;""><img src=""images/choice_trial_2.png"" style=""width: 408px; height: 417px; margin-right: 200px;""><img src=""images/choice_trial_1.png"" style=""width: 408px; height: 417px;""></div></div>","j","delaylearn","learning","trial","5fe247ccdfcbb9dda902109d","l5HCe0nyW7VXeLNPMLz1V3HmbS03","1","images/choice_trial_2.png","images/choice_trial_1.png","images/pattern_1.png","f","j","7000","2","1","1","1","24","1","0","1","150","","","","",""
"html-keyboard-response","129","263995","0.0-55.0-1.0","","null","<div style=""display: flex; flex-direction: column; align-items: center; margin-top: -40px;""><img src=""images/pattern_1.png"" style=""width: 234px; height: 230px; margin-top: -50px;""><div style=""display: flex; justify-content: space-between; margin-top: 33px;""><img src=""images/choice_trial_1.png"" style=""width: 408px; height: 417px; margin-left:608px;""></div></div>","null","delaylearn","learning","display_response","5fe247ccdfcbb9dda902109d","l5HCe0nyW7VXeLNPMLz1V3HmbS03","","","","","","","","","","","","","","","","","chosen stimuli: images/choice_trial_1.png","","","",""
"html-keyboard-response","130","271000","0.0-55.0-2.0","","null","","null","delaylearn","learning","feedback_duration_window","5fe247ccdfcbb9dda902109d","l5HCe0nyW7VXeLNPMLz1V3HmbS03","","","","","","","","","","","","","","","","","","7000","","",""
"html-keyboard-response","131","272511","0.0-55.0-3.0","","null","<div style='margin:auto;width: auto; font-size: 150%'><span style='font-weight: bold; font-size: 100px; color: red;'>0 points!</span><br><br></div>","null","delaylearn","learning","feedback_image_window","5fe247ccdfcbb9dda902109d","l5HCe0nyW7VXeLNPMLz1V3HmbS03","","","","","","","","","","","","","","","","","","","","",""
"html-keyboard-response","132","274040","0.0-56.0","","null","<div style=""font-size:100px;"">+</div>","null","delaylearn","learning","ITI","5fe247ccdfcbb9dda902109d","l5HCe0nyW7VXeLNPMLz1V3HmbS03","","","","","","","","","","","","","","","","","","","1522","",""
"html-keyboard-response","133","276628","0.0-57.0-0.0","","2584.9000000953674","<div style=""display: flex; flex-direction: column; align-items: center; margin-top: -40px;""><img src=""images/pattern_5.png"" style=""width: 234px; height: 230px; margin-top: -50px;""><div style=""display: flex; justify-content: space-between; margin-top: 33px;""><img src=""images/choice_trial_10.png"" style=""width: 408px; height: 417px; margin-right: 200px;""><img src=""images/choice_trial_9.png"" style=""width: 408px; height: 417px;""></div></div>","f","delaylearn","learning","trial","5fe247ccdfcbb9dda902109d","l5HCe0nyW7VXeLNPMLz1V3HmbS03","1","images/choice_trial_10.png","images/choice_trial_9.png","images/pattern_5.png","j","j","750","10","9","4","1","25","0","0","10","150","","","","",""
"html-keyboard-response","134","277643","0.0-57.0-1.0","","null","<div style=""display: flex; flex-direction: column; align-items: center; margin-top: -40px;""><img src=""images/pattern_5.png"" style=""width: 234px; height: 230px; margin-top: -50px;""><div style=""display: flex; justify-content: space-between; margin-top: 33px;""><img src=""images/choice_trial_10.png"" style=""width: 408px; height: 417px; margin-right: 608px;""></div></div>","null","delaylearn","learning","display_response","5fe247ccdfcbb9dda902109d","l5HCe0nyW7VXeLNPMLz1V3HmbS03","","","","","","","","","","","","","","","","","chosen stimuli: images/choice_trial_10.png","","","",""
"html-keyboard-response","135","278404","0.0-57.0-2.0","","null","","null","delaylearn","learning","feedback_duration_window","5fe247ccdfcbb9dda902109d","l5HCe0nyW7VXeLNPMLz1V3HmbS03","","","","","","","","","","","","","","","","","","750","","",""
"html-keyboard-response","136","279907","0.0-57.0-3.0","","null","<div style='margin:auto;width: auto; font-size: 150%'><span style='font-weight: bold; font-size: 100px; color: red;'>0 points!</span><br><br></div>","null","delaylearn","learning","feedback_image_window","5fe247ccdfcbb9dda902109d","l5HCe0nyW7VXeLNPMLz1V3HmbS03","","","","","","","","","","","","","","","","","","","","",""
"html-keyboard-response","137","281454","0.0-58.0","","null","<div style=""font-size:100px;"">+</div>","null","delaylearn","learning","ITI","5fe247ccdfcbb9dda902109d","l5HCe0nyW7VXeLNPMLz1V3HmbS03","","","","","","","","","","","","","","","","","","","1540","",""
"html-keyboard-response","138","283234","0.0-59.0-0.0","","1778.2000000476837","<div style=""display: flex; flex-direction: column; align-items: center; margin-top: -40px;""><img src=""images/pattern_3.png"" style=""width: 234px; height: 230px; margin-top: -50px;""><div style=""display: flex; justify-content: space-between; margin-top: 33px;""><img src=""images/choice_trial_6.png"" style=""width: 408px; height: 417px; margin-right: 200px;""><img src=""images/choice_trial_5.png"" style=""width: 408px; height: 417px;""></div></div>","f","delaylearn","learning","trial","5fe247ccdfcbb9dda902109d","l5HCe0nyW7VXeLNPMLz1V3HmbS03","1","images/choice_trial_6.png","images/choice_trial_5.png","images/pattern_3.png","j","j","7000","6","5","2","1","26","0","0","6","150","","","","",""
"html-keyboard-response","139","284240","0.0-59.0-1.0","","null","<div style=""display: flex; flex-direction: column; align-items: center; margin-top: -40px;""><img src=""images/pattern_3.png"" style=""width: 234px; height: 230px; margin-top: -50px;""><div style=""display: flex; justify-content: space-between; margin-top: 33px;""><img src=""images/choice_trial_6.png"" style=""width: 408px; height: 417px; margin-right: 608px;""></div></div>","null","delaylearn","learning","display_response","5fe247ccdfcbb9dda902109d","l5HCe0nyW7VXeLNPMLz1V3HmbS03","","","","","","","","","","","","","","","","","chosen stimuli: images/choice_trial_6.png","","","",""
"html-keyboard-response","140","291255","0.0-59.0-2.0","","null","","null","delaylearn","learning","feedback_duration_window","5fe247ccdfcbb9dda902109d","l5HCe0nyW7VXeLNPMLz1V3HmbS03","","","","","","","","","","","","","","","","","","7000","","",""
"html-keyboard-response","141","292765","0.0-59.0-3.0","","null","<div style='margin:auto;width: auto; font-size: 150%'><span style='font-weight: bold; font-size: 100px; color: red;'>0 points!</span><br><br></div>","null","delaylearn","learning","feedback_image_window","5fe247ccdfcbb9dda902109d","l5HCe0nyW7VXeLNPMLz1V3HmbS03","","","","","","","","","","","","","","","","","","","","",""
"lmdlab-html-vas-response","142","300686","0.0-60.0-0.0","","6408","*How <b><u>confident</u></b> are you feeling about your answers at this moment?*","0.2824074074074074","rewlearn","rate_confidence","","5fe247ccdfcbb9dda902109d","l5HCe0nyW7VXeLNPMLz1V3HmbS03","","","","","","","","","","","","","","","","","","","","[""No confidence"",""Complete confidence""]",""
"lmdlab-rest-trial-limit","143","319230","0.0-60.0-1.0","","17041","<div style=""font-size:40px;""><b>Please take a break!</b><br><br><br><br><p>Great work: you earned 150 points.<br><br><br><p>You have completed part(s) 1 of 5.<br><br><br><br>When you are ready to continue<br><br><br>please click the button.</p><br><br>","0","delaylearn","learning","break","5fe247ccdfcbb9dda902109d","l5HCe0nyW7VXeLNPMLz1V3HmbS03","","","","","","","","","","","","","","","","","","","","","0"
"html-keyboard-response","144","322236","0.0-60.0-2.0","","null","<div style=""font-size:100px;"">+</div>","null","delaylearn","learning","pre_fixation","5fe247ccdfcbb9dda902109d","","","","","","","","","","","","","","","","","","","","","",""
"lmdlab-html-vas-response","145","329165","0.0-60.0-3.0-0.0","","5904","How happy are you right now?","0.3287037037037037","delaylearn","learning","mood_baseline","5fe247ccdfcbb9dda902109d","l5HCe0nyW7VXeLNPMLz1V3HmbS03","","","","","","","","","","","","","","","","","","","","[""Very unhappy"",""Very happy""]",""
"html-keyboard-response","146","330674","0.0-60.0-3.0-1.0","","null","","null","","","mood_baseline_fixation","","","","","","","","","","","","","","","","","","","","","","",""
"html-keyboard-response","147","332829","0.0-61.0","","null","<div style=""font-size:100px;"">+</div>","null","delaylearn","learning","ITI","5fe247ccdfcbb9dda902109d","l5HCe0nyW7VXeLNPMLz1V3HmbS03","","","","","","","","","","","","","","","","","","","2140","",""
"html-keyboard-response","148","334391","0.0-62.0-0.0","","1559.2000000476837","<div style=""display: flex; flex-direction: column; align-items: center; margin-top: -40px;""><img src=""images/pattern_7.png"" style=""width: 234px; height: 230px; margin-top: -50px;""><div style=""display: flex; justify-content: space-between; margin-top: 33px;""><img src=""images/choice_trial_14.png"" style=""width: 408px; height: 417px; margin-right: 200px;""><img src=""images/choice_trial_13.png"" style=""width: 408px; height: 417px;""></div></div>","j","delaylearn","learning","trial","5fe247ccdfcbb9dda902109d","l5HCe0nyW7VXeLNPMLz1V3HmbS03","1","images/choice_trial_14.png","images/choice_trial_13.png","images/pattern_7.png","j","j","750","14","13","6","1","27","1","1","13","160","","","","",""
"html-keyboard-response","149","335397","0.0-62.0-1.0","","null","<div style=""display: flex; flex-direction: column; align-items: center; margin-top: -40px;""><img src=""images/pattern_7.png"" style=""width: 234px; height: 230px; margin-top: -50px;""><div style=""display: flex; justify-content: space-between; margin-top: 33px;""><img src=""images/choice_trial_13.png"" style=""width: 408px; height: 417px; margin-left:608px;""></div></div>","null","delaylearn","learning","display_response","5fe247ccdfcbb9dda902109d","l5HCe0nyW7VXeLNPMLz1V3HmbS03","","","","","","","","","","","","","","","","","chosen stimuli: images/choice_trial_13.png","","","",""
"html-keyboard-response","150","336152","0.0-62.0-2.0","","null","","null","delaylearn","learning","feedback_duration_window","5fe247ccdfcbb9dda902109d","l5HCe0nyW7VXeLNPMLz1V3HmbS03","","","","","","","","","","","","","","","","","","750","","",""
"html-keyboard-response","151","337665","0.0-62.0-3.0","","null","<div style='margin:auto;width: auto; font-size: 150%'><span style='font-weight: bold; font-size: 100px; color: green;'>+10 points!</span><br><br></div>","null","delaylearn","learning","feedback_image_window","5fe247ccdfcbb9dda902109d","l5HCe0nyW7VXeLNPMLz1V3HmbS03","","","","","","","","","","","","","","","","","","","","",""
"html-keyboard-response","152","338172","0.0-63.0-0.0","","null","","null","","","mood_trial_fixation","","","","","","","","","","","","","","","","","","","","","","",""
"lmdlab-html-vas-response","153","342729","0.0-63.0-1.0","","3537","How happy are you right now?","0.5","delaylearn","learning","mood_trial","5fe247ccdfcbb9dda902109d","l5HCe0nyW7VXeLNPMLz1V3HmbS03","","","","","","","","","","","","","","","","","","","","[""Very unhappy"",""Very happy""]",""
"html-keyboard-response","154","344914","0.0-64.0","","null","<div style=""font-size:100px;"">+</div>","null","delaylearn","learning","ITI","5fe247ccdfcbb9dda902109d","l5HCe0nyW7VXeLNPMLz1V3HmbS03","","","","","","","","","","","","","","","","","","","2169","",""
"html-keyboard-response","155","346164","0.0-65.0-0.0","","1247.9000000953674","<div style=""display: flex; flex-direction: column; align-items: center; margin-top: -40px;""><img src=""images/pattern_1.png"" style=""width: 234px; height: 230px; margin-top: -50px;""><div style=""display: flex; justify-content: space-between; margin-top: 33px;""><img src=""images/choice_trial_1.png"" style=""width: 408px; height: 417px; margin-right: 200px;""><img src=""images/choice_trial_2.png"" style=""width: 408px; height: 417px;""></div></div>","f","delaylearn","learning","trial","5fe247ccdfcbb9dda902109d","l5HCe0nyW7VXeLNPMLz1V3HmbS03","1","images/choice_trial_1.png","images/choice_trial_2.png","images/pattern_1.png","f","f","7000","1","2","1","0","28","1","1","1","170","","","","",""
"html-keyboard-response","156","347168","0.0-65.0-1.0","","null","<div style=""display: flex; flex-direction: column; align-items: center; margin-top: -40px;""><img src=""images/pattern_1.png"" style=""width: 234px; height: 230px; margin-top: -50px;""><div style=""display: flex; justify-content: space-between; margin-top: 33px;""><img src=""images/choice_trial_1.png"" style=""width: 408px; height: 417px; margin-right: 608px;""></div></div>","null","delaylearn","learning","display_response","5fe247ccdfcbb9dda902109d","l5HCe0nyW7VXeLNPMLz1V3HmbS03","","","","","","","","","","","","","","","","","chosen stimuli: images/choice_trial_1.png","","","",""
"html-keyboard-response","157","354179","0.0-65.0-2.0","","null","","null","delaylearn","learning","feedback_duration_window","5fe247ccdfcbb9dda902109d","l5HCe0nyW7VXeLNPMLz1V3HmbS03","","","","","","","","","","","","","","","","","","7000","","",""
"html-keyboard-response","158","355687","0.0-65.0-3.0","","null","<div style='margin:auto;width: auto; font-size: 150%'><span style='font-weight: bold; font-size: 100px; color: green;'>+10 points!</span><br><br></div>","null","delaylearn","learning","feedback_image_window","5fe247ccdfcbb9dda902109d","l5HCe0nyW7VXeLNPMLz1V3HmbS03","","","","","","","","","","","","","","","","","","","","",""
"html-keyboard-response","159","357218","0.0-66.0","","null","<div style=""font-size:100px;"">+</div>","null","delaylearn","learning","ITI","5fe247ccdfcbb9dda902109d","l5HCe0nyW7VXeLNPMLz1V3HmbS03","","","","","","","","","","","","","","","","","","","1529","",""
"html-keyboard-response","160","358828","0.0-67.0-0.0","","1607.6000001430511","<div style=""display: flex; flex-direction: column; align-items: center; margin-top: -40px;""><img src=""images/pattern_5.png"" style=""width: 234px; height: 230px; margin-top: -50px;""><div style=""display: flex; justify-content: space-between; margin-top: 33px;""><img src=""images/choice_trial_9.png"" style=""width: 408px; height: 417px; margin-right: 200px;""><img src=""images/choice_trial_10.png"" style=""width: 408px; height: 417px;""></div></div>","f","delaylearn","learning","trial","5fe247ccdfcbb9dda902109d","l5HCe0nyW7VXeLNPMLz1V3HmbS03","1","images/choice_trial_9.png","images/choice_trial_10.png","images/pattern_5.png","f","f","750","9","10","4","0","29","1","1","9","180","","","","",""
"html-keyboard-response","161","359835","0.0-67.0-1.0","","null","<div style=""display: flex; flex-direction: column; align-items: center; margin-top: -40px;""><img src=""images/pattern_5.png"" style=""width: 234px; height: 230px; margin-top: -50px;""><div style=""display: flex; justify-content: space-between; margin-top: 33px;""><img src=""images/choice_trial_9.png"" style=""width: 408px; height: 417px; margin-right: 608px;""></div></div>","null","delaylearn","learning","display_response","5fe247ccdfcbb9dda902109d","l5HCe0nyW7VXeLNPMLz1V3HmbS03","","","","","","","","","","","","","","","","","chosen stimuli: images/choice_trial_9.png","","","",""
"html-keyboard-response","162","360594","0.0-67.0-2.0","","null","","null","delaylearn","learning","feedback_duration_window","5fe247ccdfcbb9dda902109d","l5HCe0nyW7VXeLNPMLz1V3HmbS03","","","","","","","","","","","","","","","","","","750","","",""
"html-keyboard-response","163","362098","0.0-67.0-3.0","","null","<div style='margin:auto;width: auto; font-size: 150%'><span style='font-weight: bold; font-size: 100px; color: green;'>+10 points!</span><br><br></div>","null","delaylearn","learning","feedback_image_window","5fe247ccdfcbb9dda902109d","l5HCe0nyW7VXeLNPMLz1V3HmbS03","","","","","","","","","","","","","","","","","","","","",""
"html-keyboard-response","164","363849","0.0-68.0","","null","<div style=""font-size:100px;"">+</div>","null","delaylearn","learning","ITI","5fe247ccdfcbb9dda902109d","l5HCe0nyW7VXeLNPMLz1V3HmbS03","","","","","","","","","","","","","","","","","","","1743","",""
"html-keyboard-response","165","366433","0.0-69.0-0.0","","2580.899999856949","<div style=""display: flex; flex-direction: column; align-items: center; margin-top: -40px;""><img src=""images/pattern_6.png"" style=""width: 234px; height: 230px; margin-top: -50px;""><div style=""display: flex; justify-content: space-between; margin-top: 33px;""><img src=""images/choice_trial_12.png"" style=""width: 408px; height: 417px; margin-right: 200px;""><img src=""images/choice_trial_11.png"" style=""width: 408px; height: 417px;""></div></div>","f","delaylearn","learning","trial","5fe247ccdfcbb9dda902109d","l5HCe0nyW7VXeLNPMLz1V3HmbS03","1","images/choice_trial_12.png","images/choice_trial_11.png","images/pattern_6.png","j","j","750","12","11","5","1","30","0","0","12","180","","","","",""
"html-keyboard-response","166","367450","0.0-69.0-1.0","","null","<div style=""display: flex; flex-direction: column; align-items: center; margin-top: -40px;""><img src=""images/pattern_6.png"" style=""width: 234px; height: 230px; margin-top: -50px;""><div style=""display: flex; justify-content: space-between; margin-top: 33px;""><img src=""images/choice_trial_12.png"" style=""width: 408px; height: 417px; margin-right: 608px;""></div></div>","null","delaylearn","learning","display_response","5fe247ccdfcbb9dda902109d","l5HCe0nyW7VXeLNPMLz1V3HmbS03","","","","","","","","","","","","","","","","","chosen stimuli: images/choice_trial_12.png","","","",""
"html-keyboard-response","167","368207","0.0-69.0-2.0","","null","","null","delaylearn","learning","feedback_duration_window","5fe247ccdfcbb9dda902109d","l5HCe0nyW7VXeLNPMLz1V3HmbS03","","","","","","","","","","","","","","","","","","750","","",""
"html-keyboard-response","168","369720","0.0-69.0-3.0","","null","<div style='margin:auto;width: auto; font-size: 150%'><span style='font-weight: bold; font-size: 100px; color: red;'>0 points!</span><br><br></div>","null","delaylearn","learning","feedback_image_window","5fe247ccdfcbb9dda902109d","l5HCe0nyW7VXeLNPMLz1V3HmbS03","","","","","","","","","","","","","","","","","","","","",""
"html-keyboard-response","169","370232","0.0-70.0-0.0","","null","","null","","","mood_trial_fixation","","","","","","","","","","","","","","","","","","","","","","",""
"lmdlab-html-vas-response","170","375268","0.0-70.0-1.0","","4025","How happy are you right now?","0.3287037037037037","delaylearn","learning","mood_trial","5fe247ccdfcbb9dda902109d","l5HCe0nyW7VXeLNPMLz1V3HmbS03","","","","","","","","","","","","","","","","","","","","[""Very unhappy"",""Very happy""]",""
"html-keyboard-response","171","377537","0.0-71.0","","null","<div style=""font-size:100px;"">+</div>","null","delaylearn","learning","ITI","5fe247ccdfcbb9dda902109d","l5HCe0nyW7VXeLNPMLz1V3HmbS03","","","","","","","","","","","","","","","","","","","2258","",""
"html-keyboard-response","172","378969","0.0-72.0-0.0","","1429.7000000476837","<div style=""display: flex; flex-direction: column; align-items: center; margin-top: -40px;""><img src=""images/pattern_4.png"" style=""width: 234px; height: 230px; margin-top: -50px;""><div style=""display: flex; justify-content: space-between; margin-top: 33px;""><img src=""images/choice_trial_8.png"" style=""width: 408px; height: 417px; margin-right: 200px;""><img src=""images/choice_trial_7.png"" style=""width: 408px; height: 417px;""></div></div>","j","delaylearn","learning","trial","5fe247ccdfcbb9dda902109d","l5HCe0nyW7VXeLNPMLz1V3HmbS03","1","images/choice_trial_8.png","images/choice_trial_7.png","images/pattern_4.png","j","j","7000","8","7","3","1","31","1","1","7","190","","","","",""
"html-keyboard-response","173","379972","0.0-72.0-1.0","","null","<div style=""display: flex; flex-direction: column; align-items: center; margin-top: -40px;""><img src=""images/pattern_4.png"" style=""width: 234px; height: 230px; margin-top: -50px;""><div style=""display: flex; justify-content: space-between; margin-top: 33px;""><img src=""images/choice_trial_7.png"" style=""width: 408px; height: 417px; margin-left:608px;""></div></div>","null","delaylearn","learning","display_response","5fe247ccdfcbb9dda902109d","l5HCe0nyW7VXeLNPMLz1V3HmbS03","","","","","","","","","","","","","","","","","chosen stimuli: images/choice_trial_7.png","","","",""
"html-keyboard-response","174","386977","0.0-72.0-2.0","","null","","null","delaylearn","learning","feedback_duration_window","5fe247ccdfcbb9dda902109d","l5HCe0nyW7VXeLNPMLz1V3HmbS03","","","","","","","","","","","","","","","","","","7000","","",""
"html-keyboard-response","175","388486","0.0-72.0-3.0","","null","<div style='margin:auto;width: auto; font-size: 150%'><span style='font-weight: bold; font-size: 100px; color: green;'>+10 points!</span><br><br></div>","null","delaylearn","learning","feedback_image_window","5fe247ccdfcbb9dda902109d","l5HCe0nyW7VXeLNPMLz1V3HmbS03","","","","","","","","","","","","","","","","","","","","",""
"html-keyboard-response","176","390618","0.0-73.0","","null","<div style=""font-size:100px;"">+</div>","null","delaylearn","learning","ITI","5fe247ccdfcbb9dda902109d","l5HCe0nyW7VXeLNPMLz1V3HmbS03","","","","","","","","","","","","","","","","","","","2116","",""
"html-keyboard-response","177","393152","0.0-74.0-0.0","","2531","<div style=""display: flex; flex-direction: column; align-items: center; margin-top: -40px;""><img src=""images/pattern_3.png"" style=""width: 234px; height: 230px; margin-top: -50px;""><div style=""display: flex; justify-content: space-between; margin-top: 33px;""><img src=""images/choice_trial_6.png"" style=""width: 408px; height: 417px; margin-right: 200px;""><img src=""images/choice_trial_5.png"" style=""width: 408px; height: 417px;""></div></div>","j","delaylearn","learning","trial","5fe247ccdfcbb9dda902109d","l5HCe0nyW7VXeLNPMLz1V3HmbS03","1","images/choice_trial_6.png","images/choice_trial_5.png","images/pattern_3.png","j","j","7000","6","5","2","1","32","1","1","5","200","","","","",""
"html-keyboard-response","178","394159","0.0-74.0-1.0","","null","<div style=""display: flex; flex-direction: column; align-items: center; margin-top: -40px;""><img src=""images/pattern_3.png"" style=""width: 234px; height: 230px; margin-top: -50px;""><div style=""display: flex; justify-content: space-between; margin-top: 33px;""><img src=""images/choice_trial_5.png"" style=""width: 408px; height: 417px; margin-left:608px;""></div></div>","null","delaylearn","learning","display_response","5fe247ccdfcbb9dda902109d","l5HCe0nyW7VXeLNPMLz1V3HmbS03","","","","","","","","","","","","","","","","","chosen stimuli: images/choice_trial_5.png","","","",""
"html-keyboard-response","179","401163","0.0-74.0-2.0","","null","","null","delaylearn","learning","feedback_duration_window","5fe247ccdfcbb9dda902109d","l5HCe0nyW7VXeLNPMLz1V3HmbS03","","","","","","","","","","","","","","","","","","7000","","",""
"html-keyboard-response","180","402680","0.0-74.0-3.0","","null","<div style='margin:auto;width: auto; font-size: 150%'><span style='font-weight: bold; font-size: 100px; color: green;'>+10 points!</span><br><br></div>","null","delaylearn","learning","feedback_image_window","5fe247ccdfcbb9dda902109d","l5HCe0nyW7VXeLNPMLz1V3HmbS03","","","","","","","","","","","","","","","","","","","","",""
"html-keyboard-response","181","404714","0.0-75.0","","null","<div style=""font-size:100px;"">+</div>","null","delaylearn","learning","ITI","5fe247ccdfcbb9dda902109d","l5HCe0nyW7VXeLNPMLz1V3HmbS03","","","","","","","","","","","","","","","","","","","2032","",""
"html-keyboard-response","182","406306","0.0-76.0-0.0","","1589.2000000476837","<div style=""display: flex; flex-direction: column; align-items: center; margin-top: -40px;""><img src=""images/pattern_5.png"" style=""width: 234px; height: 230px; margin-top: -50px;""><div style=""display: flex; justify-content: space-between; margin-top: 33px;""><img src=""images/choice_trial_9.png"" style=""width: 408px; height: 417px; margin-right: 200px;""><img src=""images/choice_trial_10.png"" style=""width: 408px; height: 417px;""></div></div>","f","delaylearn","learning","trial","5fe247ccdfcbb9dda902109d","l5HCe0nyW7VXeLNPMLz1V3HmbS03","1","images/choice_trial_9.png","images/choice_trial_10.png","images/pattern_5.png","j","f","750","9","10","4","0","33","1","0","9","200","","","","",""
"html-keyboard-response","183","407321","0.0-76.0-1.0","","null","<div style=""display: flex; flex-direction: column; align-items: center; margin-top: -40px;""><img src=""images/pattern_5.png"" style=""width: 234px; height: 230px; margin-top: -50px;""><div style=""display: flex; justify-content: space-between; margin-top: 33px;""><img src=""images/choice_trial_9.png"" style=""width: 408px; height: 417px; margin-right: 608px;""></div></div>","null","delaylearn","learning","display_response","5fe247ccdfcbb9dda902109d","l5HCe0nyW7VXeLNPMLz1V3HmbS03","","","","","","","","","","","","","","","","","chosen stimuli: images/choice_trial_9.png","","","",""
"html-keyboard-response","184","408078","0.0-76.0-2.0","","null","","null","delaylearn","learning","feedback_duration_window","5fe247ccdfcbb9dda902109d","l5HCe0nyW7VXeLNPMLz1V3HmbS03","","","","","","","","","","","","","","","","","","750","","",""
"html-keyboard-response","185","409588","0.0-76.0-3.0","","null","<div style='margin:auto;width: auto; font-size: 150%'><span style='font-weight: bold; font-size: 100px; color: red;'>0 points!</span><br><br></div>","null","delaylearn","learning","feedback_image_window","5fe247ccdfcbb9dda902109d","l5HCe0nyW7VXeLNPMLz1V3HmbS03","","","","","","","","","","","","","","","","","","","","",""
"html-keyboard-response","186","411573","0.0-77.0","","null","<div style=""font-size:100px;"">+</div>","null","delaylearn","learning","ITI","5fe247ccdfcbb9dda902109d","l5HCe0nyW7VXeLNPMLz1V3HmbS03","","","","","","","","","","","","","","","","","","","1984","",""
"html-keyboard-response","187","413417","0.0-78.0-0.0","","1841.5999999046326","<div style=""display: flex; flex-direction: column; align-items: center; margin-top: -40px;""><img src=""images/pattern_1.png"" style=""width: 234px; height: 230px; margin-top: -50px;""><div style=""display: flex; justify-content: space-between; margin-top: 33px;""><img src=""images/choice_trial_1.png"" style=""width: 408px; height: 417px; margin-right: 200px;""><img src=""images/choice_trial_2.png"" style=""width: 408px; height: 417px;""></div></div>","f","delaylearn","learning","trial","5fe247ccdfcbb9dda902109d","l5HCe0nyW7VXeLNPMLz1V3HmbS03","1","images/choice_trial_1.png","images/choice_trial_2.png","images/pattern_1.png","f","f","7000","1","2","1","0","34","1","1","1","210","","","","",""
"html-keyboard-response","188","414432","0.0-78.0-1.0","","null","<div style=""display: flex; flex-direction: column; align-items: center; margin-top: -40px;""><img src=""images/pattern_1.png"" style=""width: 234px; height: 230px; margin-top: -50px;""><div style=""display: flex; justify-content: space-between; margin-top: 33px;""><img src=""images/choice_trial_1.png"" style=""width: 408px; height: 417px; margin-right: 608px;""></div></div>","null","delaylearn","learning","display_response","5fe247ccdfcbb9dda902109d","l5HCe0nyW7VXeLNPMLz1V3HmbS03","","","","","","","","","","","","","","","","","chosen stimuli: images/choice_trial_1.png","","","",""
"html-keyboard-response","189","421434","0.0-78.0-2.0","","null","","null","delaylearn","learning","feedback_duration_window","5fe247ccdfcbb9dda902109d","l5HCe0nyW7VXeLNPMLz1V3HmbS03","","","","","","","","","","","","","","","","","","7000","","",""
"html-keyboard-response","190","422936","0.0-78.0-3.0","","null","<div style='margin:auto;width: auto; font-size: 150%'><span style='font-weight: bold; font-size: 100px; color: green;'>+10 points!</span><br><br></div>","null","delaylearn","learning","feedback_image_window","5fe247ccdfcbb9dda902109d","l5HCe0nyW7VXeLNPMLz1V3HmbS03","","","","","","","","","","","","","","","","","","","","",""
"html-keyboard-response","191","423438","0.0-79.0-0.0","","null","","null","","","mood_trial_fixation","","","","","","","","","","","","","","","","","","","","","","",""
"lmdlab-html-vas-response","192","428430","0.0-79.0-1.0","","3970","How happy are you right now?","0.41203703703703703","delaylearn","learning","mood_trial","5fe247ccdfcbb9dda902109d","l5HCe0nyW7VXeLNPMLz1V3HmbS03","","","","","","","","","","","","","","","","","","","","[""Very unhappy"",""Very happy""]",""
"html-keyboard-response","193","430781","0.0-80.0","","null","<div style=""font-size:100px;"">+</div>","null","delaylearn","learning","ITI","5fe247ccdfcbb9dda902109d","l5HCe0nyW7VXeLNPMLz1V3HmbS03","","","","","","","","","","","","","","","","","","","2342","",""
"html-keyboard-response","194","432957","0.0-81.0-0.0","","2173","<div style=""display: flex; flex-direction: column; align-items: center; margin-top: -40px;""><img src=""images/pattern_6.png"" style=""width: 234px; height: 230px; margin-top: -50px;""><div style=""display: flex; justify-content: space-between; margin-top: 33px;""><img src=""images/choice_trial_11.png"" style=""width: 408px; height: 417px; margin-right: 200px;""><img src=""images/choice_trial_12.png"" style=""width: 408px; height: 417px;""></div></div>","f","delaylearn","learning","trial","5fe247ccdfcbb9dda902109d","l5HCe0nyW7VXeLNPMLz1V3HmbS03","1","images/choice_trial_11.png","images/choice_trial_12.png","images/pattern_6.png","j","f","750","11","12","5","0","35","1","0","11","210","","","","",""
"html-keyboard-response","195","433963","0.0-81.0-1.0","","null","<div style=""display: flex; flex-direction: column; align-items: center; margin-top: -40px;""><img src=""images/pattern_6.png"" style=""width: 234px; height: 230px; margin-top: -50px;""><div style=""display: flex; justify-content: space-between; margin-top: 33px;""><img src=""images/choice_trial_11.png"" style=""width: 408px; height: 417px; margin-right: 608px;""></div></div>","null","delaylearn","learning","display_response","5fe247ccdfcbb9dda902109d","l5HCe0nyW7VXeLNPMLz1V3HmbS03","","","","","","","","","","","","","","","","","chosen stimuli: images/choice_trial_11.png","","","",""
"html-keyboard-response","196","434719","0.0-81.0-2.0","","null","","null","delaylearn","learning","feedback_duration_window","5fe247ccdfcbb9dda902109d","l5HCe0nyW7VXeLNPMLz1V3HmbS03","","","","","","","","","","","","","","","","","","750","","",""
"html-keyboard-response","197","436226","0.0-81.0-3.0","","null","<div style='margin:auto;width: auto; font-size: 150%'><span style='font-weight: bold; font-size: 100px; color: red;'>0 points!</span><br><br></div>","null","delaylearn","learning","feedback_image_window","5fe247ccdfcbb9dda902109d","l5HCe0nyW7VXeLNPMLz1V3HmbS03","","","","","","","","","","","","","","","","","","","","",""
"html-keyboard-response","198","438315","0.0-82.0","","null","<div style=""font-size:100px;"">+</div>","null","delaylearn","learning","ITI","5fe247ccdfcbb9dda902109d","l5HCe0nyW7VXeLNPMLz1V3HmbS03","","","","","","","","","","","","","","","","","","","2087","",""
"html-keyboard-response","199","439427","0.0-83.0-0.0","","1109.2000000476837","<div style=""display: flex; flex-direction: column; align-items: center; margin-top: -40px;""><img src=""images/pattern_3.png"" style=""width: 234px; height: 230px; margin-top: -50px;""><div style=""display: flex; justify-content: space-between; margin-top: 33px;""><img src=""images/choice_trial_6.png"" style=""width: 408px; height: 417px; margin-right: 200px;""><img src=""images/choice_trial_5.png"" style=""width: 408px; height: 417px;""></div></div>","j","delaylearn","learning","trial","5fe247ccdfcbb9dda902109d","l5HCe0nyW7VXeLNPMLz1V3HmbS03","1","images/choice_trial_6.png","images/choice_trial_5.png","images/pattern_3.png","j","j","7000","6","5","2","1","36","1","1","5","220","","","","",""
"html-keyboard-response","200","440439","0.0-83.0-1.0","","null","<div style=""display: flex; flex-direction: column; align-items: center; margin-top: -40px;""><img src=""images/pattern_3.png"" style=""width: 234px; height: 230px; margin-top: -50px;""><div style=""display: flex; justify-content: space-between; margin-top: 33px;""><img src=""images/choice_trial_5.png"" style=""width: 408px; height: 417px; margin-left:608px;""></div></div>","null","delaylearn","learning","display_response","5fe247ccdfcbb9dda902109d","l5HCe0nyW7VXeLNPMLz1V3HmbS03","","","","","","","","","","","","","","","","","chosen stimuli: images/choice_trial_5.png","","","",""
"html-keyboard-response","201","447456","0.0-83.0-2.0","","null","","null","delaylearn","learning","feedback_duration_window","5fe247ccdfcbb9dda902109d","l5HCe0nyW7VXeLNPMLz1V3HmbS03","","","","","","","","","","","","","","","","","","7000","","",""
"html-keyboard-response","202","448970","0.0-83.0-3.0","","null","<div style='margin:auto;width: auto; font-size: 150%'><span style='font-weight: bold; font-size: 100px; color: green;'>+10 points!</span><br><br></div>","null","delaylearn","learning","feedback_image_window","5fe247ccdfcbb9dda902109d","l5HCe0nyW7VXeLNPMLz1V3HmbS03","","","","","","","","","","","","","","","","","","","","",""
"html-keyboard-response","203","451175","0.0-84.0","","null","<div style=""font-size:100px;"">+</div>","null","delaylearn","learning","ITI","5fe247ccdfcbb9dda902109d","l5HCe0nyW7VXeLNPMLz1V3HmbS03","","","","","","","","","","","","","","","","","","","2192","",""
"html-keyboard-response","204","453167","0.0-85.0-0.0","","1990.9000000953674","<div style=""display: flex; flex-direction: column; align-items: center; margin-top: -40px;""><img src=""images/pattern_4.png"" style=""width: 234px; height: 230px; margin-top: -50px;""><div style=""display: flex; justify-content: space-between; margin-top: 33px;""><img src=""images/choice_trial_8.png"" style=""width: 408px; height: 417px; margin-right: 200px;""><img src=""images/choice_trial_7.png"" style=""width: 408px; height: 417px;""></div></div>","j","delaylearn","learning","trial","5fe247ccdfcbb9dda902109d","l5HCe0nyW7VXeLNPMLz1V3HmbS03","1","images/choice_trial_8.png","images/choice_trial_7.png","images/pattern_4.png","f","j","7000","8","7","3","1","37","1","0","7","220","","","","",""
"html-keyboard-response","205","454177","0.0-85.0-1.0","","null","<div style=""display: flex; flex-direction: column; align-items: center; margin-top: -40px;""><img src=""images/pattern_4.png"" style=""width: 234px; height: 230px; margin-top: -50px;""><div style=""display: flex; justify-content: space-between; margin-top: 33px;""><img src=""images/choice_trial_7.png"" style=""width: 408px; height: 417px; margin-left:608px;""></div></div>","null","delaylearn","learning","display_response","5fe247ccdfcbb9dda902109d","l5HCe0nyW7VXeLNPMLz1V3HmbS03","","","","","","","","","","","","","","","","","chosen stimuli: images/choice_trial_7.png","","","",""
"html-keyboard-response","206","461189","0.0-85.0-2.0","","null","","null","delaylearn","learning","feedback_duration_window","5fe247ccdfcbb9dda902109d","l5HCe0nyW7VXeLNPMLz1V3HmbS03","","","","","","","","","","","","","","","","","","7000","","",""
"html-keyboard-response","207","462693","0.0-85.0-3.0","","null","<div style='margin:auto;width: auto; font-size: 150%'><span style='font-weight: bold; font-size: 100px; color: red;'>0 points!</span><br><br></div>","null","delaylearn","learning","feedback_image_window","5fe247ccdfcbb9dda902109d","l5HCe0nyW7VXeLNPMLz1V3HmbS03","","","","","","","","","","","","","","","","","","","","",""
"html-keyboard-response","208","464207","0.0-86.0","","null","<div style=""font-size:100px;"">+</div>","null","delaylearn","learning","ITI","5fe247ccdfcbb9dda902109d","l5HCe0nyW7VXeLNPMLz1V3HmbS03","","","","","","","","","","","","","","","","","","","1511","",""
"html-keyboard-response","209","465755","0.0-87.0-0.0","","1544.2999999523163","<div style=""display: flex; flex-direction: column; align-items: center; margin-top: -40px;""><img src=""images/pattern_7.png"" style=""width: 234px; height: 230px; margin-top: -50px;""><div style=""display: flex; justify-content: space-between; margin-top: 33px;""><img src=""images/choice_trial_13.png"" style=""width: 408px; height: 417px; margin-right: 200px;""><img src=""images/choice_trial_14.png"" style=""width: 408px; height: 417px;""></div></div>","f","delaylearn","learning","trial","5fe247ccdfcbb9dda902109d","l5HCe0nyW7VXeLNPMLz1V3HmbS03","1","images/choice_trial_13.png","images/choice_trial_14.png","images/pattern_7.png","f","f","750","13","14","6","0","38","1","1","13","230","","","","",""
"html-keyboard-response","210","466761","0.0-87.0-1.0","","null","<div style=""display: flex; flex-direction: column; align-items: center; margin-top: -40px;""><img src=""images/pattern_7.png"" style=""width: 234px; height: 230px; margin-top: -50px;""><div style=""display: flex; justify-content: space-between; margin-top: 33px;""><img src=""images/choice_trial_13.png"" style=""width: 408px; height: 417px; margin-right: 608px;""></div></div>","null","delaylearn","learning","display_response","5fe247ccdfcbb9dda902109d","l5HCe0nyW7VXeLNPMLz1V3HmbS03","","","","","","","","","","","","","","","","","chosen stimuli: images/choice_trial_13.png","","","",""
"html-keyboard-response","211","467517","0.0-87.0-2.0","","null","","null","delaylearn","learning","feedback_duration_window","5fe247ccdfcbb9dda902109d","l5HCe0nyW7VXeLNPMLz1V3HmbS03","","","","","","","","","","","","","","","","","","750","","",""
"html-keyboard-response","212","469019","0.0-87.0-3.0","","null","<div style='margin:auto;width: auto; font-size: 150%'><span style='font-weight: bold; font-size: 100px; color: green;'>+10 points!</span><br><br></div>","null","delaylearn","learning","feedback_image_window","5fe247ccdfcbb9dda902109d","l5HCe0nyW7VXeLNPMLz1V3HmbS03","","","","","","","","","","","","","","","","","","","","",""
"html-keyboard-response","213","471299","0.0-88.0","","null","<div style=""font-size:100px;"">+</div>","null","delaylearn","learning","ITI","5fe247ccdfcbb9dda902109d","l5HCe0nyW7VXeLNPMLz1V3HmbS03","","","","","","","","","","","","","","","","","","","2272","",""
"html-keyboard-response","214","472556","0.0-89.0-0.0","","1254.2999999523163","<div style=""display: flex; flex-direction: column; align-items: center; margin-top: -40px;""><img src=""images/pattern_1.png"" style=""width: 234px; height: 230px; margin-top: -50px;""><div style=""display: flex; justify-content: space-between; margin-top: 33px;""><img src=""images/choice_trial_1.png"" style=""width: 408px; height: 417px; margin-right: 200px;""><img src=""images/choice_trial_2.png"" style=""width: 408px; height: 417px;""></div></div>","f","delaylearn","learning","trial","5fe247ccdfcbb9dda902109d","l5HCe0nyW7VXeLNPMLz1V3HmbS03","1","images/choice_trial_1.png","images/choice_trial_2.png","images/pattern_1.png","f","f","7000","1","2","1","0","39","1","1","1","240","","","","",""
"html-keyboard-response","215","473571","0.0-89.0-1.0","","null","<div style=""display: flex; flex-direction: column; align-items: center; margin-top: -40px;""><img src=""images/pattern_1.png"" style=""width: 234px; height: 230px; margin-top: -50px;""><div style=""display: flex; justify-content: space-between; margin-top: 33px;""><img src=""images/choice_trial_1.png"" style=""width: 408px; height: 417px; margin-right: 608px;""></div></div>","null","delaylearn","learning","display_response","5fe247ccdfcbb9dda902109d","l5HCe0nyW7VXeLNPMLz1V3HmbS03","","","","","","","","","","","","","","","","","chosen stimuli: images/choice_trial_1.png","","","",""
"html-keyboard-response","216","480587","0.0-89.0-2.0","","null","","null","delaylearn","learning","feedback_duration_window","5fe247ccdfcbb9dda902109d","l5HCe0nyW7VXeLNPMLz1V3HmbS03","","","","","","","","","","","","","","","","","","7000","","",""
"html-keyboard-response","217","482101","0.0-89.0-3.0","","null","<div style='margin:auto;width: auto; font-size: 150%'><span style='font-weight: bold; font-size: 100px; color: green;'>+10 points!</span><br><br></div>","null","delaylearn","learning","feedback_image_window","5fe247ccdfcbb9dda902109d","l5HCe0nyW7VXeLNPMLz1V3HmbS03","","","","","","","","","","","","","","","","","","","","",""
"html-keyboard-response","218","482611","0.0-90.0-0.0","","null","","null","","","mood_trial_fixation","","","","","","","","","","","","","","","","","","","","","","",""
"lmdlab-html-vas-response","219","487229","0.0-90.0-1.0","","3593","How happy are you right now?","0.4837962962962963","delaylearn","learning","mood_trial","5fe247ccdfcbb9dda902109d","l5HCe0nyW7VXeLNPMLz1V3HmbS03","","","","","","","","","","","","","","","","","","","","[""Very unhappy"",""Very happy""]",""
"html-keyboard-response","220","489404","0.0-91.0","","null","<div style=""font-size:100px;"">+</div>","null","delaylearn","learning","ITI","5fe247ccdfcbb9dda902109d","l5HCe0nyW7VXeLNPMLz1V3HmbS03","","","","","","","","","","","","","","","","","","","2169","",""
