"trial_type","trial_index","time_elapsed","internal_node_id","participant","rt","stimulus","response","exp_name","exp_stage","test_part","subjectID","databaseID","counterbal","choice_stimuli_1","choice_stimuli_2","pattern_stimuli","rewarded_answer","correct_answer","feedback_duration_times","stim_left","stim_right","pair","leftright_counter","trial","response_correct","response_rewarded","chosen_stim","counter","displayed_choice","feedback_durations","ITI_duration","labels","rest_warning"
"pavlovia","0","573","0.0-0.0","","","","","","","","","","","","","","","","","","","","","","","","","","","","","",""
"html-keyboard-response","1","3590","0.0-1.0","","null","<div style=""font-size:100px;"">+</div>","null","delaylearn","learning","pre_fixation","60670c6f988b7e2e9edd72ea","","","","","","","","","","","","","","","","","","","","","",""
"html-keyboard-response","2","4978","0.0-2.0-0.0","","1385.7999999523163","<div style=""display: flex; flex-direction: column; align-items: center; margin-top: -40px;""><img src=""images/demo_images/pattern_1.png"" style=""width: 234px; height: 230px; margin-top: -50px;""><div style=""display: flex; justify-content: space-between; margin-top: 33px;""><img src=""images/demo_images/choice_trial_2.png"" style=""width: 408px; height: 417px; margin-right: 200px;""><img src=""images/demo_images/choice_trial_1.png"" style=""width: 408px; height: 417px;""></div></div>","f","delaylearn","learning","trial","60670c6f988b7e2e9edd72ea","6VHNFoK2iVMwthxkPFzv0pauoS42","3","images/demo_images/choice_trial_2.png","images/demo_images/choice_trial_1.png","images/demo_images/pattern_1.png","j","j","3000","2","1","20","1","1","0","0","2","0","","","","",""
"html-keyboard-response","3","5991","0.0-2.0-1.0","","null","<div style=""display: flex; flex-direction: column; align-items: center; margin-top: -40px;""><img src=""images/demo_images/pattern_1.png"" style=""width: 234px; height: 230px; margin-top: -50px;""><div style=""display: flex; justify-content: space-between; margin-top: 33px;""><img src=""images/demo_images/choice_trial_2.png"" style=""width: 408px; height: 417px; margin-right: 608px;""></div></div>","null","delaylearn","learning","display_response","60670c6f988b7e2e9edd72ea","6VHNFoK2iVMwthxkPFzv0pauoS42","","","","","","","","","","","","","","","","","chosen stimuli: images/demo_images/choice_trial_2.png","","","",""
"html-keyboard-response","4","9004","0.0-2.0-2.0","","null","","null","delaylearn","learning","feedback_duration_window","60670c6f988b7e2e9edd72ea","6VHNFoK2iVMwthxkPFzv0pauoS42","","","","","","","","","","","","","","","","","","3000","","",""
"html-keyboard-response","5","10507","0.0-2.0-3.0","","null","<div style='margin:auto;width: auto; font-size: 150%'><span style='font-weight: bold; font-size: 100px; color: red;'>0 points!</span><br><br></div>","null","delaylearn","learning","feedback_image_window","60670c6f988b7e2e9edd72ea","6VHNFoK2iVMwthxkPFzv0pauoS42","","","","","","","","","","","","","","","","","","","","",""
"html-keyboard-response","6","12588","0.0-3.0","","null","<div style=""font-size:100px;"">+</div>","null","delaylearn","learning","ITI","60670c6f988b7e2e9edd72ea","6VHNFoK2iVMwthxkPFzv0pauoS42","","","","","","","","","","","","","","","","","","","2066","",""
"html-keyboard-response","7","13479","0.0-4.0-0.0","","888","<div style=""display: flex; flex-direction: column; align-items: center; margin-top: -40px;""><img src=""images/demo_images/pattern_1.png"" style=""width: 234px; height: 230px; margin-top: -50px;""><div style=""display: flex; justify-content: space-between; margin-top: 33px;""><img src=""images/demo_images/choice_trial_2.png"" style=""width: 408px; height: 417px; margin-right: 200px;""><img src=""images/demo_images/choice_trial_1.png"" style=""width: 408px; height: 417px;""></div></div>","j","delaylearn","learning","trial","60670c6f988b7e2e9edd72ea","6VHNFoK2iVMwthxkPFzv0pauoS42","3","images/demo_images/choice_trial_2.png","images/demo_images/choice_trial_1.png","images/demo_images/pattern_1.png","j","j","3000","2","1","20","1","2","1","1","1","10","","","","",""
"html-keyboard-response","8","14488","0.0-4.0-1.0","","null","<div style=""display: flex; flex-direction: column; align-items: center; margin-top: -40px;""><img src=""images/demo_images/pattern_1.png"" style=""width: 234px; height: 230px; margin-top: -50px;""><div style=""display: flex; justify-content: space-between; margin-top: 33px;""><img src=""images/demo_images/choice_trial_1.png"" style=""width: 408px; height: 417px; margin-left:608px;""></div></div>","null","delaylearn","learning","display_response","60670c6f988b7e2e9edd72ea","6VHNFoK2iVMwthxkPFzv0pauoS42","","","","","","","","","","","","","","","","","chosen stimuli: images/demo_images/choice_trial_1.png","","","",""
"html-keyboard-response","9","17503","0.0-4.0-2.0","","null","","null","delaylearn","learning","feedback_duration_window","60670c6f988b7e2e9edd72ea","6VHNFoK2iVMwthxkPFzv0pauoS42","","","","","","","","","","","","","","","","","","3000","","",""
"html-keyboard-response","10","19005","0.0-4.0-3.0","","null","<div style='margin:auto;width: auto; font-size: 150%'><span style='font-weight: bold; font-size: 100px; color: green;'>+10 points!</span><br><br></div>","null","delaylearn","learning","feedback_image_window","60670c6f988b7e2e9edd72ea","6VHNFoK2iVMwthxkPFzv0pauoS42","","","","","","","","","","","","","","","","","","","","",""
"html-keyboard-response","11","21337","0.0-5.0","","null","<div style=""font-size:100px;"">+</div>","null","delaylearn","learning","ITI","60670c6f988b7e2e9edd72ea","6VHNFoK2iVMwthxkPFzv0pauoS42","","","","","","","","","","","","","","","","","","","2320","",""
"html-keyboard-response","12","22034","0.0-6.0-0.0","","695","<div style=""display: flex; flex-direction: column; align-items: center; margin-top: -40px;""><img src=""images/demo_images/pattern_1.png"" style=""width: 234px; height: 230px; margin-top: -50px;""><div style=""display: flex; justify-content: space-between; margin-top: 33px;""><img src=""images/demo_images/choice_trial_1.png"" style=""width: 408px; height: 417px; margin-right: 200px;""><img src=""images/demo_images/choice_trial_2.png"" style=""width: 408px; height: 417px;""></div></div>","f","delaylearn","learning","trial","60670c6f988b7e2e9edd72ea","6VHNFoK2iVMwthxkPFzv0pauoS42","3","images/demo_images/choice_trial_1.png","images/demo_images/choice_trial_2.png","images/demo_images/pattern_1.png","j","f","3000","1","2","20","0","3","1","0","1","10","","","","",""
"html-keyboard-response","13","23039","0.0-6.0-1.0","","null","<div style=""display: flex; flex-direction: column; align-items: center; margin-top: -40px;""><img src=""images/demo_images/pattern_1.png"" style=""width: 234px; height: 230px; margin-top: -50px;""><div style=""display: flex; justify-content: space-between; margin-top: 33px;""><img src=""images/demo_images/choice_trial_1.png"" style=""width: 408px; height: 417px; margin-right: 608px;""></div></div>","null","delaylearn","learning","display_response","60670c6f988b7e2e9edd72ea","6VHNFoK2iVMwthxkPFzv0pauoS42","","","","","","","","","","","","","","","","","chosen stimuli: images/demo_images/choice_trial_1.png","","","",""
"html-keyboard-response","14","26049","0.0-6.0-2.0","","null","","null","delaylearn","learning","feedback_duration_window","60670c6f988b7e2e9edd72ea","6VHNFoK2iVMwthxkPFzv0pauoS42","","","","","","","","","","","","","","","","","","3000","","",""
"html-keyboard-response","15","27557","0.0-6.0-3.0","","null","<div style='margin:auto;width: auto; font-size: 150%'><span style='font-weight: bold; font-size: 100px; color: red;'>0 points!</span><br><br></div>","null","delaylearn","learning","feedback_image_window","60670c6f988b7e2e9edd72ea","6VHNFoK2iVMwthxkPFzv0pauoS42","","","","","","","","","","","","","","","","","","","","",""
"html-keyboard-response","16","29788","0.0-7.0","","null","<div style=""font-size:100px;"">+</div>","null","delaylearn","learning","ITI","60670c6f988b7e2e9edd72ea","6VHNFoK2iVMwthxkPFzv0pauoS42","","","","","","","","","","","","","","","","","","","2228","",""
"html-keyboard-response","17","30754","0.0-8.0-0.0","","964.7000000476837","<div style=""display: flex; flex-direction: column; align-items: center; margin-top: -40px;""><img src=""images/demo_images/pattern_1.png"" style=""width: 234px; height: 230px; margin-top: -50px;""><div style=""display: flex; justify-content: space-between; margin-top: 33px;""><img src=""images/demo_images/choice_trial_1.png"" style=""width: 408px; height: 417px; margin-right: 200px;""><img src=""images/demo_images/choice_trial_2.png"" style=""width: 408px; height: 417px;""></div></div>","f","delaylearn","learning","trial","60670c6f988b7e2e9edd72ea","6VHNFoK2iVMwthxkPFzv0pauoS42","3","images/demo_images/choice_trial_1.png","images/demo_images/choice_trial_2.png","images/demo_images/pattern_1.png","f","f","3000","1","2","20","0","4","1","1","1","20","","","","",""
"html-keyboard-response","18","31757","0.0-8.0-1.0","","null","<div style=""display: flex; flex-direction: column; align-items: center; margin-top: -40px;""><img src=""images/demo_images/pattern_1.png"" style=""width: 234px; height: 230px; margin-top: -50px;""><div style=""display: flex; justify-content: space-between; margin-top: 33px;""><img src=""images/demo_images/choice_trial_1.png"" style=""width: 408px; height: 417px; margin-right: 608px;""></div></div>","null","delaylearn","learning","display_response","60670c6f988b7e2e9edd72ea","6VHNFoK2iVMwthxkPFzv0pauoS42","","","","","","","","","","","","","","","","","chosen stimuli: images/demo_images/choice_trial_1.png","","","",""
"html-keyboard-response","19","34771","0.0-8.0-2.0","","null","","null","delaylearn","learning","feedback_duration_window","60670c6f988b7e2e9edd72ea","6VHNFoK2iVMwthxkPFzv0pauoS42","","","","","","","","","","","","","","","","","","3000","","",""
"html-keyboard-response","20","36290","0.0-8.0-3.0","","null","<div style='margin:auto;width: auto; font-size: 150%'><span style='font-weight: bold; font-size: 100px; color: green;'>+10 points!</span><br><br></div>","null","delaylearn","learning","feedback_image_window","60670c6f988b7e2e9edd72ea","6VHNFoK2iVMwthxkPFzv0pauoS42","","","","","","","","","","","","","","","","","","","","",""
"html-keyboard-response","21","36804","0.0-9.0-0.0","","null","","null","","","mood_trial_fixation","","","","","","","","","","","","","","","","","","","","","","",""
"lmdlab-html-vas-response","22","44278","0.0-9.0-1.0","","6447","How happy are you right now?","0.48243997592070265","delaylearn","learning","mood_trial","60670c6f988b7e2e9edd72ea","6VHNFoK2iVMwthxkPFzv0pauoS42","","","","","","","","","","","","","","","","","","","","[""Very unhappy"",""Very happy""]",""
"html-keyboard-response","23","45988","0.0-10.0","","null","<div style=""font-size:100px;"">+</div>","null","delaylearn","learning","ITI","60670c6f988b7e2e9edd72ea","6VHNFoK2iVMwthxkPFzv0pauoS42","","","","","","","","","","","","","","","","","","","1702","",""
"html-keyboard-response","24","47050","0.0-11.0-0.0","","1060.1000001430511","<div style=""display: flex; flex-direction: column; align-items: center; margin-top: -40px;""><img src=""images/demo_images/pattern_1.png"" style=""width: 234px; height: 230px; margin-top: -50px;""><div style=""display: flex; justify-content: space-between; margin-top: 33px;""><img src=""images/demo_images/choice_trial_2.png"" style=""width: 408px; height: 417px; margin-right: 200px;""><img src=""images/demo_images/choice_trial_1.png"" style=""width: 408px; height: 417px;""></div></div>","j","delaylearn","learning","trial","60670c6f988b7e2e9edd72ea","6VHNFoK2iVMwthxkPFzv0pauoS42","3","images/demo_images/choice_trial_2.png","images/demo_images/choice_trial_1.png","images/demo_images/pattern_1.png","j","j","3000","2","1","20","1","5","1","1","1","30","","","","",""
"html-keyboard-response","25","48056","0.0-11.0-1.0","","null","<div style=""display: flex; flex-direction: column; align-items: center; margin-top: -40px;""><img src=""images/demo_images/pattern_1.png"" style=""width: 234px; height: 230px; margin-top: -50px;""><div style=""display: flex; justify-content: space-between; margin-top: 33px;""><img src=""images/demo_images/choice_trial_1.png"" style=""width: 408px; height: 417px; margin-left:608px;""></div></div>","null","delaylearn","learning","display_response","60670c6f988b7e2e9edd72ea","6VHNFoK2iVMwthxkPFzv0pauoS42","","","","","","","","","","","","","","","","","chosen stimuli: images/demo_images/choice_trial_1.png","","","",""
"html-keyboard-response","26","51070","0.0-11.0-2.0","","null","","null","delaylearn","learning","feedback_duration_window","60670c6f988b7e2e9edd72ea","6VHNFoK2iVMwthxkPFzv0pauoS42","","","","","","","","","","","","","","","","","","3000","","",""
"html-keyboard-response","27","52572","0.0-11.0-3.0","","null","<div style='margin:auto;width: auto; font-size: 150%'><span style='font-weight: bold; font-size: 100px; color: green;'>+10 points!</span><br><br></div>","null","delaylearn","learning","feedback_image_window","60670c6f988b7e2e9edd72ea","6VHNFoK2iVMwthxkPFzv0pauoS42","","","","","","","","","","","","","","","","","","","","",""
"html-keyboard-response","28","54470","0.0-12.0","","null","<div style=""font-size:100px;"">+</div>","null","delaylearn","learning","ITI","60670c6f988b7e2e9edd72ea","6VHNFoK2iVMwthxkPFzv0pauoS42","","","","","","","","","","","","","","","","","","","1885","",""
"html-keyboard-response","29","55107","0.0-13.0-0.0","","634.7999999523163","<div style=""display: flex; flex-direction: column; align-items: center; margin-top: -40px;""><img src=""images/demo_images/pattern_1.png"" style=""width: 234px; height: 230px; margin-top: -50px;""><div style=""display: flex; justify-content: space-between; margin-top: 33px;""><img src=""images/demo_images/choice_trial_1.png"" style=""width: 408px; height: 417px; margin-right: 200px;""><img src=""images/demo_images/choice_trial_2.png"" style=""width: 408px; height: 417px;""></div></div>","f","delaylearn","learning","trial","60670c6f988b7e2e9edd72ea","6VHNFoK2iVMwthxkPFzv0pauoS42","3","images/demo_images/choice_trial_1.png","images/demo_images/choice_trial_2.png","images/demo_images/pattern_1.png","f","f","3000","1","2","20","0","6","1","1","1","40","","","","",""
"html-keyboard-response","30","56124","0.0-13.0-1.0","","null","<div style=""display: flex; flex-direction: column; align-items: center; margin-top: -40px;""><img src=""images/demo_images/pattern_1.png"" style=""width: 234px; height: 230px; margin-top: -50px;""><div style=""display: flex; justify-content: space-between; margin-top: 33px;""><img src=""images/demo_images/choice_trial_1.png"" style=""width: 408px; height: 417px; margin-right: 608px;""></div></div>","null","delaylearn","learning","display_response","60670c6f988b7e2e9edd72ea","6VHNFoK2iVMwthxkPFzv0pauoS42","","","","","","","","","","","","","","","","","chosen stimuli: images/demo_images/choice_trial_1.png","","","",""
"html-keyboard-response","31","59125","0.0-13.0-2.0","","null","","null","delaylearn","learning","feedback_duration_window","60670c6f988b7e2e9edd72ea","6VHNFoK2iVMwthxkPFzv0pauoS42","","","","","","","","","","","","","","","","","","3000","","",""
"html-keyboard-response","32","60638","0.0-13.0-3.0","","null","<div style='margin:auto;width: auto; font-size: 150%'><span style='font-weight: bold; font-size: 100px; color: green;'>+10 points!</span><br><br></div>","null","delaylearn","learning","feedback_image_window","60670c6f988b7e2e9edd72ea","6VHNFoK2iVMwthxkPFzv0pauoS42","","","","","","","","","","","","","","","","","","","","",""
"html-keyboard-response","33","62723","0.0-14.0","","null","<div style=""font-size:100px;"">+</div>","null","delaylearn","learning","ITI","60670c6f988b7e2e9edd72ea","6VHNFoK2iVMwthxkPFzv0pauoS42","","","","","","","","","","","","","","","","","","","2066","",""
"html-keyboard-response","34","63689","0.0-15.0-0.0","","964","<div style=""display: flex; flex-direction: column; align-items: center; margin-top: -40px;""><img src=""images/demo_images/pattern_1.png"" style=""width: 234px; height: 230px; margin-top: -50px;""><div style=""display: flex; justify-content: space-between; margin-top: 33px;""><img src=""images/demo_images/choice_trial_2.png"" style=""width: 408px; height: 417px; margin-right: 200px;""><img src=""images/demo_images/choice_trial_1.png"" style=""width: 408px; height: 417px;""></div></div>","j","delaylearn","learning","trial","60670c6f988b7e2e9edd72ea","6VHNFoK2iVMwthxkPFzv0pauoS42","3","images/demo_images/choice_trial_2.png","images/demo_images/choice_trial_1.png","images/demo_images/pattern_1.png","j","j","3000","2","1","20","1","7","1","1","1","50","","","","",""
"html-keyboard-response","35","64704","0.0-15.0-1.0","","null","<div style=""display: flex; flex-direction: column; align-items: center; margin-top: -40px;""><img src=""images/demo_images/pattern_1.png"" style=""width: 234px; height: 230px; margin-top: -50px;""><div style=""display: flex; justify-content: space-between; margin-top: 33px;""><img src=""images/demo_images/choice_trial_1.png"" style=""width: 408px; height: 417px; margin-left:608px;""></div></div>","null","delaylearn","learning","display_response","60670c6f988b7e2e9edd72ea","6VHNFoK2iVMwthxkPFzv0pauoS42","","","","","","","","","","","","","","","","","chosen stimuli: images/demo_images/choice_trial_1.png","","","",""
"html-keyboard-response","36","67706","0.0-15.0-2.0","","null","","null","delaylearn","learning","feedback_duration_window","60670c6f988b7e2e9edd72ea","6VHNFoK2iVMwthxkPFzv0pauoS42","","","","","","","","","","","","","","","","","","3000","","",""
"html-keyboard-response","37","69222","0.0-15.0-3.0","","null","<div style='margin:auto;width: auto; font-size: 150%'><span style='font-weight: bold; font-size: 100px; color: green;'>+10 points!</span><br><br></div>","null","delaylearn","learning","feedback_image_window","60670c6f988b7e2e9edd72ea","6VHNFoK2iVMwthxkPFzv0pauoS42","","","","","","","","","","","","","","","","","","","","",""
"html-keyboard-response","38","71254","0.0-16.0","","null","<div style=""font-size:100px;"">+</div>","null","delaylearn","learning","ITI","60670c6f988b7e2e9edd72ea","6VHNFoK2iVMwthxkPFzv0pauoS42","","","","","","","","","","","","","","","","","","","2016","",""
"html-keyboard-response","39","71858","0.0-17.0-0.0","","602.0999999046326","<div style=""display: flex; flex-direction: column; align-items: center; margin-top: -40px;""><img src=""images/demo_images/pattern_1.png"" style=""width: 234px; height: 230px; margin-top: -50px;""><div style=""display: flex; justify-content: space-between; margin-top: 33px;""><img src=""images/demo_images/choice_trial_1.png"" style=""width: 408px; height: 417px; margin-right: 200px;""><img src=""images/demo_images/choice_trial_2.png"" style=""width: 408px; height: 417px;""></div></div>","f","delaylearn","learning","trial","60670c6f988b7e2e9edd72ea","6VHNFoK2iVMwthxkPFzv0pauoS42","3","images/demo_images/choice_trial_1.png","images/demo_images/choice_trial_2.png","images/demo_images/pattern_1.png","f","f","3000","1","2","20","0","8","1","1","1","60","","","","",""
"html-keyboard-response","40","72870","0.0-17.0-1.0","","null","<div style=""display: flex; flex-direction: column; align-items: center; margin-top: -40px;""><img src=""images/demo_images/pattern_1.png"" style=""width: 234px; height: 230px; margin-top: -50px;""><div style=""display: flex; justify-content: space-between; margin-top: 33px;""><img src=""images/demo_images/choice_trial_1.png"" style=""width: 408px; height: 417px; margin-right: 608px;""></div></div>","null","delaylearn","learning","display_response","60670c6f988b7e2e9edd72ea","6VHNFoK2iVMwthxkPFzv0pauoS42","","","","","","","","","","","","","","","","","chosen stimuli: images/demo_images/choice_trial_1.png","","","",""
"html-keyboard-response","41","75872","0.0-17.0-2.0","","null","","null","delaylearn","learning","feedback_duration_window","60670c6f988b7e2e9edd72ea","6VHNFoK2iVMwthxkPFzv0pauoS42","","","","","","","","","","","","","","","","","","3000","","",""
"html-keyboard-response","42","77388","0.0-17.0-3.0","","null","<div style='margin:auto;width: auto; font-size: 150%'><span style='font-weight: bold; font-size: 100px; color: green;'>+10 points!</span><br><br></div>","null","delaylearn","learning","feedback_image_window","60670c6f988b7e2e9edd72ea","6VHNFoK2iVMwthxkPFzv0pauoS42","","","","","","","","","","","","","","","","","","","","",""
"html-button-response","43","80250","0.0-18.0","","2860.899999856949","
  <div style=""display: flex; align-items: center; justify-content: center; height: 80vh;"">
  <div>
          <img src=""images/inst_demo_finish.png"" style=""width: 80vw; height:auto;"">
          <br><br>
      </div>
      <br><br>
  </div>","0","","","","","","","","","","","","","","","","","","","","","","","","","",""
"html-keyboard-response","44","88202","0.0-19.0","","7950.599999904633","
  <div style=""display: flex; align-items: center; justify-content: center; height: 80vh;"">
  <div>
          <img src=""images/inst_6.png"" style=""width: 80vw; height:auto;"">
          <br><br>
      </div>
      <br><br>
  </div>","f","","","","","","","","","","","","","","","","","","","","","","","","","",""
"html-keyboard-response","45","91204","0.0-20.0","","null","<div style=""font-size:100px;"">+</div>","null","delaylearn","learning","pre_fixation","60670c6f988b7e2e9edd72ea","","","","","","","","","","","","","","","","","","","","","",""
"html-keyboard-response","46","93083","0.0-21.0","","null","<div style=""font-size:100px;"">+</div>","null","delaylearn","learning","ITI","60670c6f988b7e2e9edd72ea","6VHNFoK2iVMwthxkPFzv0pauoS42","","","","","","","","","","","","","","","","","","","1872","",""
"html-keyboard-response","47","94465","0.0-22.0-0.0","","1381.3000001907349","<div style=""display: flex; flex-direction: column; align-items: center; margin-top: -40px;""><img src=""images/pattern_3.png"" style=""width: 234px; height: 230px; margin-top: -50px;""><div style=""display: flex; justify-content: space-between; margin-top: 33px;""><img src=""images/choice_trial_13.png"" style=""width: 408px; height: 417px; margin-right: 200px;""><img src=""images/choice_trial_10.png"" style=""width: 408px; height: 417px;""></div></div>","f","delaylearn","learning","trial","60670c6f988b7e2e9edd72ea","6VHNFoK2iVMwthxkPFzv0pauoS42","3","images/choice_trial_13.png","images/choice_trial_10.png","images/pattern_3.png","f","f","7000","13","10","2","0","9","1","1","13","70","","","","",""
"html-keyboard-response","48","95472","0.0-22.0-1.0","","null","<div style=""display: flex; flex-direction: column; align-items: center; margin-top: -40px;""><img src=""images/pattern_3.png"" style=""width: 234px; height: 230px; margin-top: -50px;""><div style=""display: flex; justify-content: space-between; margin-top: 33px;""><img src=""images/choice_trial_13.png"" style=""width: 408px; height: 417px; margin-right: 608px;""></div></div>","null","delaylearn","learning","display_response","60670c6f988b7e2e9edd72ea","6VHNFoK2iVMwthxkPFzv0pauoS42","","","","","","","","","","","","","","","","","chosen stimuli: images/choice_trial_13.png","","","",""
"html-keyboard-response","49","102489","0.0-22.0-2.0","","null","","null","delaylearn","learning","feedback_duration_window","60670c6f988b7e2e9edd72ea","6VHNFoK2iVMwthxkPFzv0pauoS42","","","","","","","","","","","","","","","","","","7000","","",""
"html-keyboard-response","50","103992","0.0-22.0-3.0","","null","<div style='margin:auto;width: auto; font-size: 150%'><span style='font-weight: bold; font-size: 100px; color: green;'>+10 points!</span><br><br></div>","null","delaylearn","learning","feedback_image_window","60670c6f988b7e2e9edd72ea","6VHNFoK2iVMwthxkPFzv0pauoS42","","","","","","","","","","","","","","","","","","","","",""
"html-keyboard-response","51","105503","0.0-23.0","","null","<div style=""font-size:100px;"">+</div>","null","delaylearn","learning","ITI","60670c6f988b7e2e9edd72ea","6VHNFoK2iVMwthxkPFzv0pauoS42","","","","","","","","","","","","","","","","","","","1502","",""
"html-keyboard-response","52","107257","0.0-24.0-0.0","","1753.1000001430511","<div style=""display: flex; flex-direction: column; align-items: center; margin-top: -40px;""><img src=""images/pattern_7.png"" style=""width: 234px; height: 230px; margin-top: -50px;""><div style=""display: flex; justify-content: space-between; margin-top: 33px;""><img src=""images/choice_trial_12.png"" style=""width: 408px; height: 417px; margin-right: 200px;""><img src=""images/choice_trial_6.png"" style=""width: 408px; height: 417px;""></div></div>","f","delaylearn","learning","trial","60670c6f988b7e2e9edd72ea","6VHNFoK2iVMwthxkPFzv0pauoS42","3","images/choice_trial_12.png","images/choice_trial_6.png","images/pattern_7.png","j","j","750","12","6","6","1","10","0","0","12","70","","","","",""
"html-keyboard-response","53","108271","0.0-24.0-1.0","","null","<div style=""display: flex; flex-direction: column; align-items: center; margin-top: -40px;""><img src=""images/pattern_7.png"" style=""width: 234px; height: 230px; margin-top: -50px;""><div style=""display: flex; justify-content: space-between; margin-top: 33px;""><img src=""images/choice_trial_12.png"" style=""width: 408px; height: 417px; margin-right: 608px;""></div></div>","null","delaylearn","learning","display_response","60670c6f988b7e2e9edd72ea","6VHNFoK2iVMwthxkPFzv0pauoS42","","","","","","","","","","","","","","","","","chosen stimuli: images/choice_trial_12.png","","","",""
"html-keyboard-response","54","109036","0.0-24.0-2.0","","null","","null","delaylearn","learning","feedback_duration_window","60670c6f988b7e2e9edd72ea","6VHNFoK2iVMwthxkPFzv0pauoS42","","","","","","","","","","","","","","","","","","750","","",""
"html-keyboard-response","55","110555","0.0-24.0-3.0","","null","<div style='margin:auto;width: auto; font-size: 150%'><span style='font-weight: bold; font-size: 100px; color: red;'>0 points!</span><br><br></div>","null","delaylearn","learning","feedback_image_window","60670c6f988b7e2e9edd72ea","6VHNFoK2iVMwthxkPFzv0pauoS42","","","","","","","","","","","","","","","","","","","","",""
"html-keyboard-response","56","112438","0.0-25.0","","null","<div style=""font-size:100px;"">+</div>","null","delaylearn","learning","ITI","60670c6f988b7e2e9edd72ea","6VHNFoK2iVMwthxkPFzv0pauoS42","","","","","","","","","","","","","","","","","","","1869","",""
"html-keyboard-response","57","113833","0.0-26.0-0.0","","1394.1999998092651","<div style=""display: flex; flex-direction: column; align-items: center; margin-top: -40px;""><img src=""images/pattern_4.png"" style=""width: 234px; height: 230px; margin-top: -50px;""><div style=""display: flex; justify-content: space-between; margin-top: 33px;""><img src=""images/choice_trial_15.png"" style=""width: 408px; height: 417px; margin-right: 200px;""><img src=""images/choice_trial_9.png"" style=""width: 408px; height: 417px;""></div></div>","j","delaylearn","learning","trial","60670c6f988b7e2e9edd72ea","6VHNFoK2iVMwthxkPFzv0pauoS42","3","images/choice_trial_15.png","images/choice_trial_9.png","images/pattern_4.png","f","f","7000","15","9","3","0","11","0","0","9","70","","","","",""
"html-keyboard-response","58","114835","0.0-26.0-1.0","","null","<div style=""display: flex; flex-direction: column; align-items: center; margin-top: -40px;""><img src=""images/pattern_4.png"" style=""width: 234px; height: 230px; margin-top: -50px;""><div style=""display: flex; justify-content: space-between; margin-top: 33px;""><img src=""images/choice_trial_9.png"" style=""width: 408px; height: 417px; margin-left:608px;""></div></div>","null","delaylearn","learning","display_response","60670c6f988b7e2e9edd72ea","6VHNFoK2iVMwthxkPFzv0pauoS42","","","","","","","","","","","","","","","","","chosen stimuli: images/choice_trial_9.png","","","",""
"html-keyboard-response","59","121838","0.0-26.0-2.0","","null","","null","delaylearn","learning","feedback_duration_window","60670c6f988b7e2e9edd72ea","6VHNFoK2iVMwthxkPFzv0pauoS42","","","","","","","","","","","","","","","","","","7000","","",""
"html-keyboard-response","60","123339","0.0-26.0-3.0","","null","<div style='margin:auto;width: auto; font-size: 150%'><span style='font-weight: bold; font-size: 100px; color: red;'>0 points!</span><br><br></div>","null","delaylearn","learning","feedback_image_window","60670c6f988b7e2e9edd72ea","6VHNFoK2iVMwthxkPFzv0pauoS42","","","","","","","","","","","","","","","","","","","","",""
"html-keyboard-response","61","124987","0.0-27.0","","null","<div style=""font-size:100px;"">+</div>","null","delaylearn","learning","ITI","60670c6f988b7e2e9edd72ea","6VHNFoK2iVMwthxkPFzv0pauoS42","","","","","","","","","","","","","","","","","","","1644","",""
"html-keyboard-response","62","126529","0.0-28.0-0.0","","1541.6000001430511","<div style=""display: flex; flex-direction: column; align-items: center; margin-top: -40px;""><img src=""images/pattern_5.png"" style=""width: 234px; height: 230px; margin-top: -50px;""><div style=""display: flex; justify-content: space-between; margin-top: 33px;""><img src=""images/choice_trial_2.png"" style=""width: 408px; height: 417px; margin-right: 200px;""><img src=""images/choice_trial_11.png"" style=""width: 408px; height: 417px;""></div></div>","j","delaylearn","learning","trial","60670c6f988b7e2e9edd72ea","6VHNFoK2iVMwthxkPFzv0pauoS42","3","images/choice_trial_2.png","images/choice_trial_11.png","images/pattern_5.png","j","j","750","2","11","4","1","12","1","1","11","80","","","","",""
"html-keyboard-response","63","127535","0.0-28.0-1.0","","null","<div style=""display: flex; flex-direction: column; align-items: center; margin-top: -40px;""><img src=""images/pattern_5.png"" style=""width: 234px; height: 230px; margin-top: -50px;""><div style=""display: flex; justify-content: space-between; margin-top: 33px;""><img src=""images/choice_trial_11.png"" style=""width: 408px; height: 417px; margin-left:608px;""></div></div>","null","delaylearn","learning","display_response","60670c6f988b7e2e9edd72ea","6VHNFoK2iVMwthxkPFzv0pauoS42","","","","","","","","","","","","","","","","","chosen stimuli: images/choice_trial_11.png","","","",""
"html-keyboard-response","64","128289","0.0-28.0-2.0","","null","","null","delaylearn","learning","feedback_duration_window","60670c6f988b7e2e9edd72ea","6VHNFoK2iVMwthxkPFzv0pauoS42","","","","","","","","","","","","","","","","","","750","","",""
"html-keyboard-response","65","129802","0.0-28.0-3.0","","null","<div style='margin:auto;width: auto; font-size: 150%'><span style='font-weight: bold; font-size: 100px; color: green;'>+10 points!</span><br><br></div>","null","delaylearn","learning","feedback_image_window","60670c6f988b7e2e9edd72ea","6VHNFoK2iVMwthxkPFzv0pauoS42","","","","","","","","","","","","","","","","","","","","",""
"html-keyboard-response","66","131837","0.0-29.0","","null","<div style=""font-size:100px;"">+</div>","null","delaylearn","learning","ITI","60670c6f988b7e2e9edd72ea","6VHNFoK2iVMwthxkPFzv0pauoS42","","","","","","","","","","","","","","","","","","","2024","",""
"html-keyboard-response","67","133273","0.0-30.0-0.0","","1434.1999998092651","<div style=""display: flex; flex-direction: column; align-items: center; margin-top: -40px;""><img src=""images/pattern_6.png"" style=""width: 234px; height: 230px; margin-top: -50px;""><div style=""display: flex; justify-content: space-between; margin-top: 33px;""><img src=""images/choice_trial_16.png"" style=""width: 408px; height: 417px; margin-right: 200px;""><img src=""images/choice_trial_3.png"" style=""width: 408px; height: 417px;""></div></div>","j","delaylearn","learning","trial","60670c6f988b7e2e9edd72ea","6VHNFoK2iVMwthxkPFzv0pauoS42","3","images/choice_trial_16.png","images/choice_trial_3.png","images/pattern_6.png","j","f","750","16","3","5","0","13","0","1","3","90","","","","",""
"html-keyboard-response","68","134289","0.0-30.0-1.0","","null","<div style=""display: flex; flex-direction: column; align-items: center; margin-top: -40px;""><img src=""images/pattern_6.png"" style=""width: 234px; height: 230px; margin-top: -50px;""><div style=""display: flex; justify-content: space-between; margin-top: 33px;""><img src=""images/choice_trial_3.png"" style=""width: 408px; height: 417px; margin-left:608px;""></div></div>","null","delaylearn","learning","display_response","60670c6f988b7e2e9edd72ea","6VHNFoK2iVMwthxkPFzv0pauoS42","","","","","","","","","","","","","","","","","chosen stimuli: images/choice_trial_3.png","","","",""
"html-keyboard-response","69","135053","0.0-30.0-2.0","","null","","null","delaylearn","learning","feedback_duration_window","60670c6f988b7e2e9edd72ea","6VHNFoK2iVMwthxkPFzv0pauoS42","","","","","","","","","","","","","","","","","","750","","",""
"html-keyboard-response","70","136556","0.0-30.0-3.0","","null","<div style='margin:auto;width: auto; font-size: 150%'><span style='font-weight: bold; font-size: 100px; color: green;'>+10 points!</span><br><br></div>","null","delaylearn","learning","feedback_image_window","60670c6f988b7e2e9edd72ea","6VHNFoK2iVMwthxkPFzv0pauoS42","","","","","","","","","","","","","","","","","","","","",""
"html-keyboard-response","71","137069","0.0-31.0-0.0","","null","","null","","","mood_trial_fixation","","","","","","","","","","","","","","","","","","","","","","",""
"lmdlab-html-vas-response","72","142253","0.0-31.0-1.0","","4181","How happy are you right now?","0.48048886213411407","delaylearn","learning","mood_trial","60670c6f988b7e2e9edd72ea","6VHNFoK2iVMwthxkPFzv0pauoS42","","","","","","","","","","","","","","","","","","","","[""Very unhappy"",""Very happy""]",""
"html-keyboard-response","73","143953","0.0-32.0","","null","<div style=""font-size:100px;"">+</div>","null","delaylearn","learning","ITI","60670c6f988b7e2e9edd72ea","6VHNFoK2iVMwthxkPFzv0pauoS42","","","","","","","","","","","","","","","","","","","1694","",""
"html-keyboard-response","74","145177","0.0-33.0-0.0","","1222.2999999523163","<div style=""display: flex; flex-direction: column; align-items: center; margin-top: -40px;""><img src=""images/pattern_1.png"" style=""width: 234px; height: 230px; margin-top: -50px;""><div style=""display: flex; justify-content: space-between; margin-top: 33px;""><img src=""images/choice_trial_8.png"" style=""width: 408px; height: 417px; margin-right: 200px;""><img src=""images/choice_trial_14.png"" style=""width: 408px; height: 417px;""></div></div>","j","delaylearn","learning","trial","60670c6f988b7e2e9edd72ea","6VHNFoK2iVMwthxkPFzv0pauoS42","3","images/choice_trial_8.png","images/choice_trial_14.png","images/pattern_1.png","j","j","7000","8","14","1","1","14","1","1","14","100","","","","",""
"html-keyboard-response","75","146187","0.0-33.0-1.0","","null","<div style=""display: flex; flex-direction: column; align-items: center; margin-top: -40px;""><img src=""images/pattern_1.png"" style=""width: 234px; height: 230px; margin-top: -50px;""><div style=""display: flex; justify-content: space-between; margin-top: 33px;""><img src=""images/choice_trial_14.png"" style=""width: 408px; height: 417px; margin-left:608px;""></div></div>","null","delaylearn","learning","display_response","60670c6f988b7e2e9edd72ea","6VHNFoK2iVMwthxkPFzv0pauoS42","","","","","","","","","","","","","","","","","chosen stimuli: images/choice_trial_14.png","","","",""
"html-keyboard-response","76","153189","0.0-33.0-2.0","","null","","null","delaylearn","learning","feedback_duration_window","60670c6f988b7e2e9edd72ea","6VHNFoK2iVMwthxkPFzv0pauoS42","","","","","","","","","","","","","","","","","","7000","","",""
"html-keyboard-response","77","154705","0.0-33.0-3.0","","null","<div style='margin:auto;width: auto; font-size: 150%'><span style='font-weight: bold; font-size: 100px; color: green;'>+10 points!</span><br><br></div>","null","delaylearn","learning","feedback_image_window","60670c6f988b7e2e9edd72ea","6VHNFoK2iVMwthxkPFzv0pauoS42","","","","","","","","","","","","","","","","","","","","",""
"html-keyboard-response","78","157204","0.0-34.0","","null","<div style=""font-size:100px;"">+</div>","null","delaylearn","learning","ITI","60670c6f988b7e2e9edd72ea","6VHNFoK2iVMwthxkPFzv0pauoS42","","","","","","","","","","","","","","","","","","","2487","",""
"html-keyboard-response","79","158449","0.0-35.0-0.0","","1243.7999999523163","<div style=""display: flex; flex-direction: column; align-items: center; margin-top: -40px;""><img src=""images/pattern_3.png"" style=""width: 234px; height: 230px; margin-top: -50px;""><div style=""display: flex; justify-content: space-between; margin-top: 33px;""><img src=""images/choice_trial_10.png"" style=""width: 408px; height: 417px; margin-right: 200px;""><img src=""images/choice_trial_13.png"" style=""width: 408px; height: 417px;""></div></div>","j","delaylearn","learning","trial","60670c6f988b7e2e9edd72ea","6VHNFoK2iVMwthxkPFzv0pauoS42","3","images/choice_trial_10.png","images/choice_trial_13.png","images/pattern_3.png","f","j","7000","10","13","2","1","15","1","0","13","100","","","","",""
"html-keyboard-response","80","159453","0.0-35.0-1.0","","null","<div style=""display: flex; flex-direction: column; align-items: center; margin-top: -40px;""><img src=""images/pattern_3.png"" style=""width: 234px; height: 230px; margin-top: -50px;""><div style=""display: flex; justify-content: space-between; margin-top: 33px;""><img src=""images/choice_trial_13.png"" style=""width: 408px; height: 417px; margin-left:608px;""></div></div>","null","delaylearn","learning","display_response","60670c6f988b7e2e9edd72ea","6VHNFoK2iVMwthxkPFzv0pauoS42","","","","","","","","","","","","","","","","","chosen stimuli: images/choice_trial_13.png","","","",""
"html-keyboard-response","81","166455","0.0-35.0-2.0","","null","","null","delaylearn","learning","feedback_duration_window","60670c6f988b7e2e9edd72ea","6VHNFoK2iVMwthxkPFzv0pauoS42","","","","","","","","","","","","","","","","","","7000","","",""
"html-keyboard-response","82","167972","0.0-35.0-3.0","","null","<div style='margin:auto;width: auto; font-size: 150%'><span style='font-weight: bold; font-size: 100px; color: red;'>0 points!</span><br><br></div>","null","delaylearn","learning","feedback_image_window","60670c6f988b7e2e9edd72ea","6VHNFoK2iVMwthxkPFzv0pauoS42","","","","","","","","","","","","","","","","","","","","",""
"html-keyboard-response","83","170288","0.0-36.0","","null","<div style=""font-size:100px;"">+</div>","null","delaylearn","learning","ITI","60670c6f988b7e2e9edd72ea","6VHNFoK2iVMwthxkPFzv0pauoS42","","","","","","","","","","","","","","","","","","","2307","",""
"html-keyboard-response","84","173033","0.0-37.0-0.0","","2743.7999999523163","<div style=""display: flex; flex-direction: column; align-items: center; margin-top: -40px;""><img src=""images/pattern_5.png"" style=""width: 234px; height: 230px; margin-top: -50px;""><div style=""display: flex; justify-content: space-between; margin-top: 33px;""><img src=""images/choice_trial_11.png"" style=""width: 408px; height: 417px; margin-right: 200px;""><img src=""images/choice_trial_2.png"" style=""width: 408px; height: 417px;""></div></div>","f","delaylearn","learning","trial","60670c6f988b7e2e9edd72ea","6VHNFoK2iVMwthxkPFzv0pauoS42","3","images/choice_trial_11.png","images/choice_trial_2.png","images/pattern_5.png","f","f","750","11","2","4","0","16","1","1","11","110","","","","",""
"html-keyboard-response","85","174037","0.0-37.0-1.0","","null","<div style=""display: flex; flex-direction: column; align-items: center; margin-top: -40px;""><img src=""images/pattern_5.png"" style=""width: 234px; height: 230px; margin-top: -50px;""><div style=""display: flex; justify-content: space-between; margin-top: 33px;""><img src=""images/choice_trial_11.png"" style=""width: 408px; height: 417px; margin-right: 608px;""></div></div>","null","delaylearn","learning","display_response","60670c6f988b7e2e9edd72ea","6VHNFoK2iVMwthxkPFzv0pauoS42","","","","","","","","","","","","","","","","","chosen stimuli: images/choice_trial_11.png","","","",""
"html-keyboard-response","86","174804","0.0-37.0-2.0","","null","","null","delaylearn","learning","feedback_duration_window","60670c6f988b7e2e9edd72ea","6VHNFoK2iVMwthxkPFzv0pauoS42","","","","","","","","","","","","","","","","","","750","","",""
"html-keyboard-response","87","176322","0.0-37.0-3.0","","null","<div style='margin:auto;width: auto; font-size: 150%'><span style='font-weight: bold; font-size: 100px; color: green;'>+10 points!</span><br><br></div>","null","delaylearn","learning","feedback_image_window","60670c6f988b7e2e9edd72ea","6VHNFoK2iVMwthxkPFzv0pauoS42","","","","","","","","","","","","","","","","","","","","",""
"html-keyboard-response","88","176822","0.0-38.0-0.0","","null","","null","","","mood_trial_fixation","","","","","","","","","","","","","","","","","","","","","","",""
"lmdlab-html-vas-response","89","183402","0.0-38.0-1.0","","5562","How happy are you right now?","0.542924503304949","delaylearn","learning","mood_trial","60670c6f988b7e2e9edd72ea","6VHNFoK2iVMwthxkPFzv0pauoS42","","","","","","","","","","","","","","","","","","","","[""Very unhappy"",""Very happy""]",""
"html-keyboard-response","90","185168","0.0-39.0","","null","<div style=""font-size:100px;"">+</div>","null","delaylearn","learning","ITI","60670c6f988b7e2e9edd72ea","6VHNFoK2iVMwthxkPFzv0pauoS42","","","","","","","","","","","","","","","","","","","1753","",""
"html-keyboard-response","91","187177","0.0-40.0-0.0","","2007.0999999046326","<div style=""display: flex; flex-direction: column; align-items: center; margin-top: -40px;""><img src=""images/pattern_6.png"" style=""width: 234px; height: 230px; margin-top: -50px;""><div style=""display: flex; justify-content: space-between; margin-top: 33px;""><img src=""images/choice_trial_16.png"" style=""width: 408px; height: 417px; margin-right: 200px;""><img src=""images/choice_trial_3.png"" style=""width: 408px; height: 417px;""></div></div>","j","delaylearn","learning","trial","60670c6f988b7e2e9edd72ea","6VHNFoK2iVMwthxkPFzv0pauoS42","3","images/choice_trial_16.png","images/choice_trial_3.png","images/pattern_6.png","f","f","750","16","3","5","0","17","0","0","3","110","","","","",""
"html-keyboard-response","92","188183","0.0-40.0-1.0","","null","<div style=""display: flex; flex-direction: column; align-items: center; margin-top: -40px;""><img src=""images/pattern_6.png"" style=""width: 234px; height: 230px; margin-top: -50px;""><div style=""display: flex; justify-content: space-between; margin-top: 33px;""><img src=""images/choice_trial_3.png"" style=""width: 408px; height: 417px; margin-left:608px;""></div></div>","null","delaylearn","learning","display_response","60670c6f988b7e2e9edd72ea","6VHNFoK2iVMwthxkPFzv0pauoS42","","","","","","","","","","","","","","","","","chosen stimuli: images/choice_trial_3.png","","","",""
"html-keyboard-response","93","188936","0.0-40.0-2.0","","null","","null","delaylearn","learning","feedback_duration_window","60670c6f988b7e2e9edd72ea","6VHNFoK2iVMwthxkPFzv0pauoS42","","","","","","","","","","","","","","","","","","750","","",""
"html-keyboard-response","94","190455","0.0-40.0-3.0","","null","<div style='margin:auto;width: auto; font-size: 150%'><span style='font-weight: bold; font-size: 100px; color: red;'>0 points!</span><br><br></div>","null","delaylearn","learning","feedback_image_window","60670c6f988b7e2e9edd72ea","6VHNFoK2iVMwthxkPFzv0pauoS42","","","","","","","","","","","","","","","","","","","","",""
"html-keyboard-response","95","192589","0.0-41.0","","null","<div style=""font-size:100px;"">+</div>","null","delaylearn","learning","ITI","60670c6f988b7e2e9edd72ea","6VHNFoK2iVMwthxkPFzv0pauoS42","","","","","","","","","","","","","","","","","","","2117","",""
"html-keyboard-response","96","193713","0.0-42.0-0.0","","1123.2000000476837","<div style=""display: flex; flex-direction: column; align-items: center; margin-top: -40px;""><img src=""images/pattern_4.png"" style=""width: 234px; height: 230px; margin-top: -50px;""><div style=""display: flex; justify-content: space-between; margin-top: 33px;""><img src=""images/choice_trial_9.png"" style=""width: 408px; height: 417px; margin-right: 200px;""><img src=""images/choice_trial_15.png"" style=""width: 408px; height: 417px;""></div></div>","f","delaylearn","learning","trial","60670c6f988b7e2e9edd72ea","6VHNFoK2iVMwthxkPFzv0pauoS42","3","images/choice_trial_9.png","images/choice_trial_15.png","images/pattern_4.png","j","j","7000","9","15","3","1","18","0","0","9","110","","","","",""
"html-keyboard-response","97","194720","0.0-42.0-1.0","","null","<div style=""display: flex; flex-direction: column; align-items: center; margin-top: -40px;""><img src=""images/pattern_4.png"" style=""width: 234px; height: 230px; margin-top: -50px;""><div style=""display: flex; justify-content: space-between; margin-top: 33px;""><img src=""images/choice_trial_9.png"" style=""width: 408px; height: 417px; margin-right: 608px;""></div></div>","null","delaylearn","learning","display_response","60670c6f988b7e2e9edd72ea","6VHNFoK2iVMwthxkPFzv0pauoS42","","","","","","","","","","","","","","","","","chosen stimuli: images/choice_trial_9.png","","","",""
"html-keyboard-response","98","201734","0.0-42.0-2.0","","null","","null","delaylearn","learning","feedback_duration_window","60670c6f988b7e2e9edd72ea","6VHNFoK2iVMwthxkPFzv0pauoS42","","","","","","","","","","","","","","","","","","7000","","",""
"html-keyboard-response","99","203238","0.0-42.0-3.0","","null","<div style='margin:auto;width: auto; font-size: 150%'><span style='font-weight: bold; font-size: 100px; color: red;'>0 points!</span><br><br></div>","null","delaylearn","learning","feedback_image_window","60670c6f988b7e2e9edd72ea","6VHNFoK2iVMwthxkPFzv0pauoS42","","","","","","","","","","","","","","","","","","","","",""
"html-keyboard-response","100","205222","0.0-43.0","","null","<div style=""font-size:100px;"">+</div>","null","delaylearn","learning","ITI","60670c6f988b7e2e9edd72ea","6VHNFoK2iVMwthxkPFzv0pauoS42","","","","","","","","","","","","","","","","","","","1977","",""
"html-keyboard-response","101","206409","0.0-44.0-0.0","","1185.9000000953674","<div style=""display: flex; flex-direction: column; align-items: center; margin-top: -40px;""><img src=""images/pattern_7.png"" style=""width: 234px; height: 230px; margin-top: -50px;""><div style=""display: flex; justify-content: space-between; margin-top: 33px;""><img src=""images/choice_trial_6.png"" style=""width: 408px; height: 417px; margin-right: 200px;""><img src=""images/choice_trial_12.png"" style=""width: 408px; height: 417px;""></div></div>","j","delaylearn","learning","trial","60670c6f988b7e2e9edd72ea","6VHNFoK2iVMwthxkPFzv0pauoS42","3","images/choice_trial_6.png","images/choice_trial_12.png","images/pattern_7.png","j","f","750","6","12","6","0","19","0","1","12","120","","","","",""
"html-keyboard-response","102","207419","0.0-44.0-1.0","","null","<div style=""display: flex; flex-direction: column; align-items: center; margin-top: -40px;""><img src=""images/pattern_7.png"" style=""width: 234px; height: 230px; margin-top: -50px;""><div style=""display: flex; justify-content: space-between; margin-top: 33px;""><img src=""images/choice_trial_12.png"" style=""width: 408px; height: 417px; margin-left:608px;""></div></div>","null","delaylearn","learning","display_response","60670c6f988b7e2e9edd72ea","6VHNFoK2iVMwthxkPFzv0pauoS42","","","","","","","","","","","","","","","","","chosen stimuli: images/choice_trial_12.png","","","",""
"html-keyboard-response","103","208188","0.0-44.0-2.0","","null","","null","delaylearn","learning","feedback_duration_window","60670c6f988b7e2e9edd72ea","6VHNFoK2iVMwthxkPFzv0pauoS42","","","","","","","","","","","","","","","","","","750","","",""
"html-keyboard-response","104","209704","0.0-44.0-3.0","","null","<div style='margin:auto;width: auto; font-size: 150%'><span style='font-weight: bold; font-size: 100px; color: green;'>+10 points!</span><br><br></div>","null","delaylearn","learning","feedback_image_window","60670c6f988b7e2e9edd72ea","6VHNFoK2iVMwthxkPFzv0pauoS42","","","","","","","","","","","","","","","","","","","","",""
"html-keyboard-response","105","211686","0.0-45.0","","null","<div style=""font-size:100px;"">+</div>","null","delaylearn","learning","ITI","60670c6f988b7e2e9edd72ea","6VHNFoK2iVMwthxkPFzv0pauoS42","","","","","","","","","","","","","","","","","","","1977","",""
"html-keyboard-response","106","213065","0.0-46.0-0.0","","1377","<div style=""display: flex; flex-direction: column; align-items: center; margin-top: -40px;""><img src=""images/pattern_1.png"" style=""width: 234px; height: 230px; margin-top: -50px;""><div style=""display: flex; justify-content: space-between; margin-top: 33px;""><img src=""images/choice_trial_14.png"" style=""width: 408px; height: 417px; margin-right: 200px;""><img src=""images/choice_trial_8.png"" style=""width: 408px; height: 417px;""></div></div>","f","delaylearn","learning","trial","60670c6f988b7e2e9edd72ea","6VHNFoK2iVMwthxkPFzv0pauoS42","3","images/choice_trial_14.png","images/choice_trial_8.png","images/pattern_1.png","f","f","7000","14","8","1","0","20","1","1","14","130","","","","",""
"html-keyboard-response","107","214073","0.0-46.0-1.0","","null","<div style=""display: flex; flex-direction: column; align-items: center; margin-top: -40px;""><img src=""images/pattern_1.png"" style=""width: 234px; height: 230px; margin-top: -50px;""><div style=""display: flex; justify-content: space-between; margin-top: 33px;""><img src=""images/choice_trial_14.png"" style=""width: 408px; height: 417px; margin-right: 608px;""></div></div>","null","delaylearn","learning","display_response","60670c6f988b7e2e9edd72ea","6VHNFoK2iVMwthxkPFzv0pauoS42","","","","","","","","","","","","","","","","","chosen stimuli: images/choice_trial_14.png","","","",""
"html-keyboard-response","108","221089","0.0-46.0-2.0","","null","","null","delaylearn","learning","feedback_duration_window","60670c6f988b7e2e9edd72ea","6VHNFoK2iVMwthxkPFzv0pauoS42","","","","","","","","","","","","","","","","","","7000","","",""
"html-keyboard-response","109","222601","0.0-46.0-3.0","","null","<div style='margin:auto;width: auto; font-size: 150%'><span style='font-weight: bold; font-size: 100px; color: green;'>+10 points!</span><br><br></div>","null","delaylearn","learning","feedback_image_window","60670c6f988b7e2e9edd72ea","6VHNFoK2iVMwthxkPFzv0pauoS42","","","","","","","","","","","","","","","","","","","","",""
"html-keyboard-response","110","224721","0.0-47.0","","null","<div style=""font-size:100px;"">+</div>","null","delaylearn","learning","ITI","60670c6f988b7e2e9edd72ea","6VHNFoK2iVMwthxkPFzv0pauoS42","","","","","","","","","","","","","","","","","","","2116","",""
"html-keyboard-response","111","226185","0.0-48.0-0.0","","1462.7999999523163","<div style=""display: flex; flex-direction: column; align-items: center; margin-top: -40px;""><img src=""images/pattern_6.png"" style=""width: 234px; height: 230px; margin-top: -50px;""><div style=""display: flex; justify-content: space-between; margin-top: 33px;""><img src=""images/choice_trial_3.png"" style=""width: 408px; height: 417px; margin-right: 200px;""><img src=""images/choice_trial_16.png"" style=""width: 408px; height: 417px;""></div></div>","j","delaylearn","learning","trial","60670c6f988b7e2e9edd72ea","6VHNFoK2iVMwthxkPFzv0pauoS42","3","images/choice_trial_3.png","images/choice_trial_16.png","images/pattern_6.png","j","j","750","3","16","5","1","21","1","1","16","140","","","","",""
"html-keyboard-response","112","227188","0.0-48.0-1.0","","null","<div style=""display: flex; flex-direction: column; align-items: center; margin-top: -40px;""><img src=""images/pattern_6.png"" style=""width: 234px; height: 230px; margin-top: -50px;""><div style=""display: flex; justify-content: space-between; margin-top: 33px;""><img src=""images/choice_trial_16.png"" style=""width: 408px; height: 417px; margin-left:608px;""></div></div>","null","delaylearn","learning","display_response","60670c6f988b7e2e9edd72ea","6VHNFoK2iVMwthxkPFzv0pauoS42","","","","","","","","","","","","","","","","","chosen stimuli: images/choice_trial_16.png","","","",""
"html-keyboard-response","113","227955","0.0-48.0-2.0","","null","","null","delaylearn","learning","feedback_duration_window","60670c6f988b7e2e9edd72ea","6VHNFoK2iVMwthxkPFzv0pauoS42","","","","","","","","","","","","","","","","","","750","","",""
"html-keyboard-response","114","229471","0.0-48.0-3.0","","null","<div style='margin:auto;width: auto; font-size: 150%'><span style='font-weight: bold; font-size: 100px; color: green;'>+10 points!</span><br><br></div>","null","delaylearn","learning","feedback_image_window","60670c6f988b7e2e9edd72ea","6VHNFoK2iVMwthxkPFzv0pauoS42","","","","","","","","","","","","","","","","","","","","",""
"html-keyboard-response","115","231180","0.0-49.0","","null","<div style=""font-size:100px;"">+</div>","null","delaylearn","learning","ITI","60670c6f988b7e2e9edd72ea","6VHNFoK2iVMwthxkPFzv0pauoS42","","","","","","","","","","","","","","","","","","","1704","",""
"html-keyboard-response","116","233817","0.0-50.0-0.0","","2636.2000000476837","<div style=""display: flex; flex-direction: column; align-items: center; margin-top: -40px;""><img src=""images/pattern_4.png"" style=""width: 234px; height: 230px; margin-top: -50px;""><div style=""display: flex; justify-content: space-between; margin-top: 33px;""><img src=""images/choice_trial_15.png"" style=""width: 408px; height: 417px; margin-right: 200px;""><img src=""images/choice_trial_9.png"" style=""width: 408px; height: 417px;""></div></div>","j","delaylearn","learning","trial","60670c6f988b7e2e9edd72ea","6VHNFoK2iVMwthxkPFzv0pauoS42","3","images/choice_trial_15.png","images/choice_trial_9.png","images/pattern_4.png","f","f","7000","15","9","3","0","22","0","0","9","140","","","","",""
"html-keyboard-response","117","234820","0.0-50.0-1.0","","null","<div style=""display: flex; flex-direction: column; align-items: center; margin-top: -40px;""><img src=""images/pattern_4.png"" style=""width: 234px; height: 230px; margin-top: -50px;""><div style=""display: flex; justify-content: space-between; margin-top: 33px;""><img src=""images/choice_trial_9.png"" style=""width: 408px; height: 417px; margin-left:608px;""></div></div>","null","delaylearn","learning","display_response","60670c6f988b7e2e9edd72ea","6VHNFoK2iVMwthxkPFzv0pauoS42","","","","","","","","","","","","","","","","","chosen stimuli: images/choice_trial_9.png","","","",""
"html-keyboard-response","118","241837","0.0-50.0-2.0","","null","","null","delaylearn","learning","feedback_duration_window","60670c6f988b7e2e9edd72ea","6VHNFoK2iVMwthxkPFzv0pauoS42","","","","","","","","","","","","","","","","","","7000","","",""
"html-keyboard-response","119","243353","0.0-50.0-3.0","","null","<div style='margin:auto;width: auto; font-size: 150%'><span style='font-weight: bold; font-size: 100px; color: red;'>0 points!</span><br><br></div>","null","delaylearn","learning","feedback_image_window","60670c6f988b7e2e9edd72ea","6VHNFoK2iVMwthxkPFzv0pauoS42","","","","","","","","","","","","","","","","","","","","",""
"html-keyboard-response","120","243868","0.0-51.0-0.0","","null","","null","","","mood_trial_fixation","","","","","","","","","","","","","","","","","","","","","","",""
"lmdlab-html-vas-response","121","249525","0.0-51.0-1.0","","4655","How happy are you right now?","0.437564358829165","delaylearn","learning","mood_trial","60670c6f988b7e2e9edd72ea","6VHNFoK2iVMwthxkPFzv0pauoS42","","","","","","","","","","","","","","","","","","","","[""Very unhappy"",""Very happy""]",""
"html-keyboard-response","122","251354","0.0-52.0","","null","<div style=""font-size:100px;"">+</div>","null","delaylearn","learning","ITI","60670c6f988b7e2e9edd72ea","6VHNFoK2iVMwthxkPFzv0pauoS42","","","","","","","","","","","","","","","","","","","1823","",""
"html-keyboard-response","123","253024","0.0-53.0-0.0","","1668.9000000953674","<div style=""display: flex; flex-direction: column; align-items: center; margin-top: -40px;""><img src=""images/pattern_7.png"" style=""width: 234px; height: 230px; margin-top: -50px;""><div style=""display: flex; justify-content: space-between; margin-top: 33px;""><img src=""images/choice_trial_12.png"" style=""width: 408px; height: 417px; margin-right: 200px;""><img src=""images/choice_trial_6.png"" style=""width: 408px; height: 417px;""></div></div>","f","delaylearn","learning","trial","60670c6f988b7e2e9edd72ea","6VHNFoK2iVMwthxkPFzv0pauoS42","3","images/choice_trial_12.png","images/choice_trial_6.png","images/pattern_7.png","j","j","750","12","6","6","1","23","0","0","12","140","","","","",""
"html-keyboard-response","124","254034","0.0-53.0-1.0","","null","<div style=""display: flex; flex-direction: column; align-items: center; margin-top: -40px;""><img src=""images/pattern_7.png"" style=""width: 234px; height: 230px; margin-top: -50px;""><div style=""display: flex; justify-content: space-between; margin-top: 33px;""><img src=""images/choice_trial_12.png"" style=""width: 408px; height: 417px; margin-right: 608px;""></div></div>","null","delaylearn","learning","display_response","60670c6f988b7e2e9edd72ea","6VHNFoK2iVMwthxkPFzv0pauoS42","","","","","","","","","","","","","","","","","chosen stimuli: images/choice_trial_12.png","","","",""
"html-keyboard-response","125","254800","0.0-53.0-2.0","","null","","null","delaylearn","learning","feedback_duration_window","60670c6f988b7e2e9edd72ea","6VHNFoK2iVMwthxkPFzv0pauoS42","","","","","","","","","","","","","","","","","","750","","",""
"html-keyboard-response","126","256304","0.0-53.0-3.0","","null","<div style='margin:auto;width: auto; font-size: 150%'><span style='font-weight: bold; font-size: 100px; color: red;'>0 points!</span><br><br></div>","null","delaylearn","learning","feedback_image_window","60670c6f988b7e2e9edd72ea","6VHNFoK2iVMwthxkPFzv0pauoS42","","","","","","","","","","","","","","","","","","","","",""
"html-keyboard-response","127","258453","0.0-54.0","","null","<div style=""font-size:100px;"">+</div>","null","delaylearn","learning","ITI","60670c6f988b7e2e9edd72ea","6VHNFoK2iVMwthxkPFzv0pauoS42","","","","","","","","","","","","","","","","","","","2145","",""
"html-keyboard-response","128","260777","0.0-55.0-0.0","","2322.899999856949","<div style=""display: flex; flex-direction: column; align-items: center; margin-top: -40px;""><img src=""images/pattern_1.png"" style=""width: 234px; height: 230px; margin-top: -50px;""><div style=""display: flex; justify-content: space-between; margin-top: 33px;""><img src=""images/choice_trial_8.png"" style=""width: 408px; height: 417px; margin-right: 200px;""><img src=""images/choice_trial_14.png"" style=""width: 408px; height: 417px;""></div></div>","f","delaylearn","learning","trial","60670c6f988b7e2e9edd72ea","6VHNFoK2iVMwthxkPFzv0pauoS42","3","images/choice_trial_8.png","images/choice_trial_14.png","images/pattern_1.png","f","j","7000","8","14","1","1","24","0","1","8","150","","","","",""
"html-keyboard-response","129","261788","0.0-55.0-1.0","","null","<div style=""display: flex; flex-direction: column; align-items: center; margin-top: -40px;""><img src=""images/pattern_1.png"" style=""width: 234px; height: 230px; margin-top: -50px;""><div style=""display: flex; justify-content: space-between; margin-top: 33px;""><img src=""images/choice_trial_8.png"" style=""width: 408px; height: 417px; margin-right: 608px;""></div></div>","null","delaylearn","learning","display_response","60670c6f988b7e2e9edd72ea","6VHNFoK2iVMwthxkPFzv0pauoS42","","","","","","","","","","","","","","","","","chosen stimuli: images/choice_trial_8.png","","","",""
"html-keyboard-response","130","268801","0.0-55.0-2.0","","null","","null","delaylearn","learning","feedback_duration_window","60670c6f988b7e2e9edd72ea","6VHNFoK2iVMwthxkPFzv0pauoS42","","","","","","","","","","","","","","","","","","7000","","",""
"html-keyboard-response","131","270303","0.0-55.0-3.0","","null","<div style='margin:auto;width: auto; font-size: 150%'><span style='font-weight: bold; font-size: 100px; color: green;'>+10 points!</span><br><br></div>","null","delaylearn","learning","feedback_image_window","60670c6f988b7e2e9edd72ea","6VHNFoK2iVMwthxkPFzv0pauoS42","","","","","","","","","","","","","","","","","","","","",""
"html-keyboard-response","132","272321","0.0-56.0","","null","<div style=""font-size:100px;"">+</div>","null","delaylearn","learning","ITI","60670c6f988b7e2e9edd72ea","6VHNFoK2iVMwthxkPFzv0pauoS42","","","","","","","","","","","","","","","","","","","2003","",""
"html-keyboard-response","133","273801","0.0-57.0-0.0","","1478.6000001430511","<div style=""display: flex; flex-direction: column; align-items: center; margin-top: -40px;""><img src=""images/pattern_5.png"" style=""width: 234px; height: 230px; margin-top: -50px;""><div style=""display: flex; justify-content: space-between; margin-top: 33px;""><img src=""images/choice_trial_2.png"" style=""width: 408px; height: 417px; margin-right: 200px;""><img src=""images/choice_trial_11.png"" style=""width: 408px; height: 417px;""></div></div>","j","delaylearn","learning","trial","60670c6f988b7e2e9edd72ea","6VHNFoK2iVMwthxkPFzv0pauoS42","3","images/choice_trial_2.png","images/choice_trial_11.png","images/pattern_5.png","j","j","750","2","11","4","1","25","1","1","11","160","","","","",""
"html-keyboard-response","134","274821","0.0-57.0-1.0","","null","<div style=""display: flex; flex-direction: column; align-items: center; margin-top: -40px;""><img src=""images/pattern_5.png"" style=""width: 234px; height: 230px; margin-top: -50px;""><div style=""display: flex; justify-content: space-between; margin-top: 33px;""><img src=""images/choice_trial_11.png"" style=""width: 408px; height: 417px; margin-left:608px;""></div></div>","null","delaylearn","learning","display_response","60670c6f988b7e2e9edd72ea","6VHNFoK2iVMwthxkPFzv0pauoS42","","","","","","","","","","","","","","","","","chosen stimuli: images/choice_trial_11.png","","","",""
"html-keyboard-response","135","275586","0.0-57.0-2.0","","null","","null","delaylearn","learning","feedback_duration_window","60670c6f988b7e2e9edd72ea","6VHNFoK2iVMwthxkPFzv0pauoS42","","","","","","","","","","","","","","","","","","750","","",""
"html-keyboard-response","136","277103","0.0-57.0-3.0","","null","<div style='margin:auto;width: auto; font-size: 150%'><span style='font-weight: bold; font-size: 100px; color: green;'>+10 points!</span><br><br></div>","null","delaylearn","learning","feedback_image_window","60670c6f988b7e2e9edd72ea","6VHNFoK2iVMwthxkPFzv0pauoS42","","","","","","","","","","","","","","","","","","","","",""
"html-keyboard-response","137","279360","0.0-58.0","","null","<div style=""font-size:100px;"">+</div>","null","delaylearn","learning","ITI","60670c6f988b7e2e9edd72ea","6VHNFoK2iVMwthxkPFzv0pauoS42","","","","","","","","","","","","","","","","","","","2244","",""
"html-keyboard-response","138","281504","0.0-59.0-0.0","","2143.2999999523163","<div style=""display: flex; flex-direction: column; align-items: center; margin-top: -40px;""><img src=""images/pattern_3.png"" style=""width: 234px; height: 230px; margin-top: -50px;""><div style=""display: flex; justify-content: space-between; margin-top: 33px;""><img src=""images/choice_trial_10.png"" style=""width: 408px; height: 417px; margin-right: 200px;""><img src=""images/choice_trial_13.png"" style=""width: 408px; height: 417px;""></div></div>","f","delaylearn","learning","trial","60670c6f988b7e2e9edd72ea","6VHNFoK2iVMwthxkPFzv0pauoS42","3","images/choice_trial_10.png","images/choice_trial_13.png","images/pattern_3.png","j","j","7000","10","13","2","1","26","0","0","10","160","","","","",""
"html-keyboard-response","139","282514","0.0-59.0-1.0","","null","<div style=""display: flex; flex-direction: column; align-items: center; margin-top: -40px;""><img src=""images/pattern_3.png"" style=""width: 234px; height: 230px; margin-top: -50px;""><div style=""display: flex; justify-content: space-between; margin-top: 33px;""><img src=""images/choice_trial_10.png"" style=""width: 408px; height: 417px; margin-right: 608px;""></div></div>","null","delaylearn","learning","display_response","60670c6f988b7e2e9edd72ea","6VHNFoK2iVMwthxkPFzv0pauoS42","","","","","","","","","","","","","","","","","chosen stimuli: images/choice_trial_10.png","","","",""
"html-keyboard-response","140","289519","0.0-59.0-2.0","","null","","null","delaylearn","learning","feedback_duration_window","60670c6f988b7e2e9edd72ea","6VHNFoK2iVMwthxkPFzv0pauoS42","","","","","","","","","","","","","","","","","","7000","","",""
"html-keyboard-response","141","291021","0.0-59.0-3.0","","null","<div style='margin:auto;width: auto; font-size: 150%'><span style='font-weight: bold; font-size: 100px; color: red;'>0 points!</span><br><br></div>","null","delaylearn","learning","feedback_image_window","60670c6f988b7e2e9edd72ea","6VHNFoK2iVMwthxkPFzv0pauoS42","","","","","","","","","","","","","","","","","","","","",""
"lmdlab-html-vas-response","142","299570","0.0-60.0-0.0","","7029","*How <b><u>confident</u></b> are you feeling about your answers at this moment?*","0.18782179414582503","rewlearn","rate_confidence","","60670c6f988b7e2e9edd72ea","6VHNFoK2iVMwthxkPFzv0pauoS42","","","","","","","","","","","","","","","","","","","","[""No confidence"",""Complete confidence""]",""
"lmdlab-rest-trial-limit","143","365720","0.0-60.0-1.0","","64632.700000047684","<div style=""font-size:40px;""><b>Please take a break!</b><br><br><br><br><p>Great work: you earned 160 points.<br><br><br><p>You have completed part(s) 1 of 5.<br><br><br><br>When you are ready to continue<br><br><br>please click the button.</p><br><br>","0","delaylearn","learning","break","60670c6f988b7e2e9edd72ea","6VHNFoK2iVMwthxkPFzv0pauoS42","","","","","","","","","","","","","","","","","","","","","0"
"html-keyboard-response","144","368735","0.0-60.0-2.0","","null","<div style=""font-size:100px;"">+</div>","null","delaylearn","learning","pre_fixation","60670c6f988b7e2e9edd72ea","","","","","","","","","","","","","","","","","","","","","",""
"lmdlab-html-vas-response","145","374033","0.0-60.0-3.0-0.0","","4278","How happy are you right now?","0.5039022275731772","delaylearn","learning","mood_baseline","60670c6f988b7e2e9edd72ea","6VHNFoK2iVMwthxkPFzv0pauoS42","","","","","","","","","","","","","","","","","","","","[""Very unhappy"",""Very happy""]",""
"html-keyboard-response","146","375553","0.0-60.0-3.0-1.0","","null","","null","","","mood_baseline_fixation","","","","","","","","","","","","","","","","","","","","","","",""
"html-keyboard-response","147","377985","0.0-61.0","","null","<div style=""font-size:100px;"">+</div>","null","delaylearn","learning","ITI","60670c6f988b7e2e9edd72ea","6VHNFoK2iVMwthxkPFzv0pauoS42","","","","","","","","","","","","","","","","","","","2427","",""
"html-keyboard-response","148","379353","0.0-62.0-0.0","","1366.5","<div style=""display: flex; flex-direction: column; align-items: center; margin-top: -40px;""><img src=""images/pattern_7.png"" style=""width: 234px; height: 230px; margin-top: -50px;""><div style=""display: flex; justify-content: space-between; margin-top: 33px;""><img src=""images/choice_trial_12.png"" style=""width: 408px; height: 417px; margin-right: 200px;""><img src=""images/choice_trial_6.png"" style=""width: 408px; height: 417px;""></div></div>","f","delaylearn","learning","trial","60670c6f988b7e2e9edd72ea","6VHNFoK2iVMwthxkPFzv0pauoS42","3","images/choice_trial_12.png","images/choice_trial_6.png","images/pattern_7.png","j","j","750","12","6","6","1","27","0","0","12","160","","","","",""
"html-keyboard-response","149","380360","0.0-62.0-1.0","","null","<div style=""display: flex; flex-direction: column; align-items: center; margin-top: -40px;""><img src=""images/pattern_7.png"" style=""width: 234px; height: 230px; margin-top: -50px;""><div style=""display: flex; justify-content: space-between; margin-top: 33px;""><img src=""images/choice_trial_12.png"" style=""width: 408px; height: 417px; margin-right: 608px;""></div></div>","null","delaylearn","learning","display_response","60670c6f988b7e2e9edd72ea","6VHNFoK2iVMwthxkPFzv0pauoS42","","","","","","","","","","","","","","","","","chosen stimuli: images/choice_trial_12.png","","","",""
"html-keyboard-response","150","381118","0.0-62.0-2.0","","null","","null","delaylearn","learning","feedback_duration_window","60670c6f988b7e2e9edd72ea","6VHNFoK2iVMwthxkPFzv0pauoS42","","","","","","","","","","","","","","","","","","750","","",""
"html-keyboard-response","151","382620","0.0-62.0-3.0","","null","<div style='margin:auto;width: auto; font-size: 150%'><span style='font-weight: bold; font-size: 100px; color: red;'>0 points!</span><br><br></div>","null","delaylearn","learning","feedback_image_window","60670c6f988b7e2e9edd72ea","6VHNFoK2iVMwthxkPFzv0pauoS42","","","","","","","","","","","","","","","","","","","","",""
"html-keyboard-response","152","383134","0.0-63.0-0.0","","null","","null","","","mood_trial_fixation","","","","","","","","","","","","","","","","","","","","","","",""
"lmdlab-html-vas-response","153","388496","0.0-63.0-1.0","","4342","How happy are you right now?","0.32635087299361515","delaylearn","learning","mood_trial","60670c6f988b7e2e9edd72ea","6VHNFoK2iVMwthxkPFzv0pauoS42","","","","","","","","","","","","","","","","","","","","[""Very unhappy"",""Very happy""]",""
"html-keyboard-response","154","390217","0.0-64.0","","null","<div style=""font-size:100px;"">+</div>","null","delaylearn","learning","ITI","60670c6f988b7e2e9edd72ea","6VHNFoK2iVMwthxkPFzv0pauoS42","","","","","","","","","","","","","","","","","","","1708","",""
"html-keyboard-response","155","391809","0.0-65.0-0.0","","1590.0999999046326","<div style=""display: flex; flex-direction: column; align-items: center; margin-top: -40px;""><img src=""images/pattern_1.png"" style=""width: 234px; height: 230px; margin-top: -50px;""><div style=""display: flex; justify-content: space-between; margin-top: 33px;""><img src=""images/choice_trial_14.png"" style=""width: 408px; height: 417px; margin-right: 200px;""><img src=""images/choice_trial_8.png"" style=""width: 408px; height: 417px;""></div></div>","j","delaylearn","learning","trial","60670c6f988b7e2e9edd72ea","6VHNFoK2iVMwthxkPFzv0pauoS42","3","images/choice_trial_14.png","images/choice_trial_8.png","images/pattern_1.png","f","f","7000","14","8","1","0","28","0","0","8","160","","","","",""
"html-keyboard-response","156","392820","0.0-65.0-1.0","","null","<div style=""display: flex; flex-direction: column; align-items: center; margin-top: -40px;""><img src=""images/pattern_1.png"" style=""width: 234px; height: 230px; margin-top: -50px;""><div style=""display: flex; justify-content: space-between; margin-top: 33px;""><img src=""images/choice_trial_8.png"" style=""width: 408px; height: 417px; margin-left:608px;""></div></div>","null","delaylearn","learning","display_response","60670c6f988b7e2e9edd72ea","6VHNFoK2iVMwthxkPFzv0pauoS42","","","","","","","","","","","","","","","","","chosen stimuli: images/choice_trial_8.png","","","",""
"html-keyboard-response","157","399835","0.0-65.0-2.0","","null","","null","delaylearn","learning","feedback_duration_window","60670c6f988b7e2e9edd72ea","6VHNFoK2iVMwthxkPFzv0pauoS42","","","","","","","","","","","","","","","","","","7000","","",""
"html-keyboard-response","158","401336","0.0-65.0-3.0","","null","<div style='margin:auto;width: auto; font-size: 150%'><span style='font-weight: bold; font-size: 100px; color: red;'>0 points!</span><br><br></div>","null","delaylearn","learning","feedback_image_window","60670c6f988b7e2e9edd72ea","6VHNFoK2iVMwthxkPFzv0pauoS42","","","","","","","","","","","","","","","","","","","","",""
"html-keyboard-response","159","403520","0.0-66.0","","null","<div style=""font-size:100px;"">+</div>","null","delaylearn","learning","ITI","60670c6f988b7e2e9edd72ea","6VHNFoK2iVMwthxkPFzv0pauoS42","","","","","","","","","","","","","","","","","","","2176","",""
"html-keyboard-response","160","404929","0.0-67.0-0.0","","1407.7000000476837","<div style=""display: flex; flex-direction: column; align-items: center; margin-top: -40px;""><img src=""images/pattern_5.png"" style=""width: 234px; height: 230px; margin-top: -50px;""><div style=""display: flex; justify-content: space-between; margin-top: 33px;""><img src=""images/choice_trial_11.png"" style=""width: 408px; height: 417px; margin-right: 200px;""><img src=""images/choice_trial_2.png"" style=""width: 408px; height: 417px;""></div></div>","f","delaylearn","learning","trial","60670c6f988b7e2e9edd72ea","6VHNFoK2iVMwthxkPFzv0pauoS42","3","images/choice_trial_11.png","images/choice_trial_2.png","images/pattern_5.png","f","f","750","11","2","4","0","29","1","1","11","170","","","","",""
"html-keyboard-response","161","405934","0.0-67.0-1.0","","null","<div style=""display: flex; flex-direction: column; align-items: center; margin-top: -40px;""><img src=""images/pattern_5.png"" style=""width: 234px; height: 230px; margin-top: -50px;""><div style=""display: flex; justify-content: space-between; margin-top: 33px;""><img src=""images/choice_trial_11.png"" style=""width: 408px; height: 417px; margin-right: 608px;""></div></div>","null","delaylearn","learning","display_response","60670c6f988b7e2e9edd72ea","6VHNFoK2iVMwthxkPFzv0pauoS42","","","","","","","","","","","","","","","","","chosen stimuli: images/choice_trial_11.png","","","",""
"html-keyboard-response","162","406700","0.0-67.0-2.0","","null","","null","delaylearn","learning","feedback_duration_window","60670c6f988b7e2e9edd72ea","6VHNFoK2iVMwthxkPFzv0pauoS42","","","","","","","","","","","","","","","","","","750","","",""
"html-keyboard-response","163","408203","0.0-67.0-3.0","","null","<div style='margin:auto;width: auto; font-size: 150%'><span style='font-weight: bold; font-size: 100px; color: green;'>+10 points!</span><br><br></div>","null","delaylearn","learning","feedback_image_window","60670c6f988b7e2e9edd72ea","6VHNFoK2iVMwthxkPFzv0pauoS42","","","","","","","","","","","","","","","","","","","","",""
"html-keyboard-response","164","410486","0.0-68.0","","null","<div style=""font-size:100px;"">+</div>","null","delaylearn","learning","ITI","60670c6f988b7e2e9edd72ea","6VHNFoK2iVMwthxkPFzv0pauoS42","","","","","","","","","","","","","","","","","","","2271","",""
"html-keyboard-response","165","411600","0.0-69.0-0.0","","1112.2999999523163","<div style=""display: flex; flex-direction: column; align-items: center; margin-top: -40px;""><img src=""images/pattern_6.png"" style=""width: 234px; height: 230px; margin-top: -50px;""><div style=""display: flex; justify-content: space-between; margin-top: 33px;""><img src=""images/choice_trial_3.png"" style=""width: 408px; height: 417px; margin-right: 200px;""><img src=""images/choice_trial_16.png"" style=""width: 408px; height: 417px;""></div></div>","j","delaylearn","learning","trial","60670c6f988b7e2e9edd72ea","6VHNFoK2iVMwthxkPFzv0pauoS42","3","images/choice_trial_3.png","images/choice_trial_16.png","images/pattern_6.png","j","j","750","3","16","5","1","30","1","1","16","180","","","","",""
"html-keyboard-response","166","412611","0.0-69.0-1.0","","null","<div style=""display: flex; flex-direction: column; align-items: center; margin-top: -40px;""><img src=""images/pattern_6.png"" style=""width: 234px; height: 230px; margin-top: -50px;""><div style=""display: flex; justify-content: space-between; margin-top: 33px;""><img src=""images/choice_trial_16.png"" style=""width: 408px; height: 417px; margin-left:608px;""></div></div>","null","delaylearn","learning","display_response","60670c6f988b7e2e9edd72ea","6VHNFoK2iVMwthxkPFzv0pauoS42","","","","","","","","","","","","","","","","","chosen stimuli: images/choice_trial_16.png","","","",""
"html-keyboard-response","167","413369","0.0-69.0-2.0","","null","","null","delaylearn","learning","feedback_duration_window","60670c6f988b7e2e9edd72ea","6VHNFoK2iVMwthxkPFzv0pauoS42","","","","","","","","","","","","","","","","","","750","","",""
"html-keyboard-response","168","414886","0.0-69.0-3.0","","null","<div style='margin:auto;width: auto; font-size: 150%'><span style='font-weight: bold; font-size: 100px; color: green;'>+10 points!</span><br><br></div>","null","delaylearn","learning","feedback_image_window","60670c6f988b7e2e9edd72ea","6VHNFoK2iVMwthxkPFzv0pauoS42","","","","","","","","","","","","","","","","","","","","",""
"html-keyboard-response","169","415400","0.0-70.0-0.0","","null","","null","","","mood_trial_fixation","","","","","","","","","","","","","","","","","","","","","","",""
"lmdlab-html-vas-response","170","421080","0.0-70.0-1.0","","4659","How happy are you right now?","0.46097772426822814","delaylearn","learning","mood_trial","60670c6f988b7e2e9edd72ea","6VHNFoK2iVMwthxkPFzv0pauoS42","","","","","","","","","","","","","","","","","","","","[""Very unhappy"",""Very happy""]",""
"html-keyboard-response","171","422918","0.0-71.0","","null","<div style=""font-size:100px;"">+</div>","null","delaylearn","learning","ITI","60670c6f988b7e2e9edd72ea","6VHNFoK2iVMwthxkPFzv0pauoS42","","","","","","","","","","","","","","","","","","","1835","",""
"html-keyboard-response","172","425008","0.0-72.0-0.0","","2088.7999999523163","<div style=""display: flex; flex-direction: column; align-items: center; margin-top: -40px;""><img src=""images/pattern_4.png"" style=""width: 234px; height: 230px; margin-top: -50px;""><div style=""display: flex; justify-content: space-between; margin-top: 33px;""><img src=""images/choice_trial_9.png"" style=""width: 408px; height: 417px; margin-right: 200px;""><img src=""images/choice_trial_15.png"" style=""width: 408px; height: 417px;""></div></div>","f","delaylearn","learning","trial","60670c6f988b7e2e9edd72ea","6VHNFoK2iVMwthxkPFzv0pauoS42","3","images/choice_trial_9.png","images/choice_trial_15.png","images/pattern_4.png","j","j","7000","9","15","3","1","31","0","0","9","180","","","","",""
"html-keyboard-response","173","426020","0.0-72.0-1.0","","null","<div style=""display: flex; flex-direction: column; align-items: center; margin-top: -40px;""><img src=""images/pattern_4.png"" style=""width: 234px; height: 230px; margin-top: -50px;""><div style=""display: flex; justify-content: space-between; margin-top: 33px;""><img src=""images/choice_trial_9.png"" style=""width: 408px; height: 417px; margin-right: 608px;""></div></div>","null","delaylearn","learning","display_response","60670c6f988b7e2e9edd72ea","6VHNFoK2iVMwthxkPFzv0pauoS42","","","","","","","","","","","","","","","","","chosen stimuli: images/choice_trial_9.png","","","",""
"html-keyboard-response","174","433036","0.0-72.0-2.0","","null","","null","delaylearn","learning","feedback_duration_window","60670c6f988b7e2e9edd72ea","6VHNFoK2iVMwthxkPFzv0pauoS42","","","","","","","","","","","","","","","","","","7000","","",""
"html-keyboard-response","175","434552","0.0-72.0-3.0","","null","<div style='margin:auto;width: auto; font-size: 150%'><span style='font-weight: bold; font-size: 100px; color: red;'>0 points!</span><br><br></div>","null","delaylearn","learning","feedback_image_window","60670c6f988b7e2e9edd72ea","6VHNFoK2iVMwthxkPFzv0pauoS42","","","","","","","","","","","","","","","","","","","","",""
"html-keyboard-response","176","437019","0.0-73.0","","null","<div style=""font-size:100px;"">+</div>","null","delaylearn","learning","ITI","60670c6f988b7e2e9edd72ea","6VHNFoK2iVMwthxkPFzv0pauoS42","","","","","","","","","","","","","","","","","","","2450","",""
"html-keyboard-response","177","438322","0.0-74.0-0.0","","1300.7000000476837","<div style=""display: flex; flex-direction: column; align-items: center; margin-top: -40px;""><img src=""images/pattern_3.png"" style=""width: 234px; height: 230px; margin-top: -50px;""><div style=""display: flex; justify-content: space-between; margin-top: 33px;""><img src=""images/choice_trial_10.png"" style=""width: 408px; height: 417px; margin-right: 200px;""><img src=""images/choice_trial_13.png"" style=""width: 408px; height: 417px;""></div></div>","f","delaylearn","learning","trial","60670c6f988b7e2e9edd72ea","6VHNFoK2iVMwthxkPFzv0pauoS42","3","images/choice_trial_10.png","images/choice_trial_13.png","images/pattern_3.png","j","j","7000","10","13","2","1","32","0","0","10","180","","","","",""
"html-keyboard-response","178","439333","0.0-74.0-1.0","","null","<div style=""display: flex; flex-direction: column; align-items: center; margin-top: -40px;""><img src=""images/pattern_3.png"" style=""width: 234px; height: 230px; margin-top: -50px;""><div style=""display: flex; justify-content: space-between; margin-top: 33px;""><img src=""images/choice_trial_10.png"" style=""width: 408px; height: 417px; margin-right: 608px;""></div></div>","null","delaylearn","learning","display_response","60670c6f988b7e2e9edd72ea","6VHNFoK2iVMwthxkPFzv0pauoS42","","","","","","","","","","","","","","","","","chosen stimuli: images/choice_trial_10.png","","","",""
"html-keyboard-response","179","446353","0.0-74.0-2.0","","null","","null","delaylearn","learning","feedback_duration_window","60670c6f988b7e2e9edd72ea","6VHNFoK2iVMwthxkPFzv0pauoS42","","","","","","","","","","","","","","","","","","7000","","",""
"html-keyboard-response","180","447855","0.0-74.0-3.0","","null","<div style='margin:auto;width: auto; font-size: 150%'><span style='font-weight: bold; font-size: 100px; color: red;'>0 points!</span><br><br></div>","null","delaylearn","learning","feedback_image_window","60670c6f988b7e2e9edd72ea","6VHNFoK2iVMwthxkPFzv0pauoS42","","","","","","","","","","","","","","","","","","","","",""
"html-keyboard-response","181","450191","0.0-75.0","","null","<div style=""font-size:100px;"">+</div>","null","delaylearn","learning","ITI","60670c6f988b7e2e9edd72ea","6VHNFoK2iVMwthxkPFzv0pauoS42","","","","","","","","","","","","","","","","","","","2332","",""
"html-keyboard-response","182","451881","0.0-76.0-0.0","","1688.4000000953674","<div style=""display: flex; flex-direction: column; align-items: center; margin-top: -40px;""><img src=""images/pattern_5.png"" style=""width: 234px; height: 230px; margin-top: -50px;""><div style=""display: flex; justify-content: space-between; margin-top: 33px;""><img src=""images/choice_trial_11.png"" style=""width: 408px; height: 417px; margin-right: 200px;""><img src=""images/choice_trial_2.png"" style=""width: 408px; height: 417px;""></div></div>","f","delaylearn","learning","trial","60670c6f988b7e2e9edd72ea","6VHNFoK2iVMwthxkPFzv0pauoS42","3","images/choice_trial_11.png","images/choice_trial_2.png","images/pattern_5.png","j","f","750","11","2","4","0","33","1","0","11","180","","","","",""
"html-keyboard-response","183","452886","0.0-76.0-1.0","","null","<div style=""display: flex; flex-direction: column; align-items: center; margin-top: -40px;""><img src=""images/pattern_5.png"" style=""width: 234px; height: 230px; margin-top: -50px;""><div style=""display: flex; justify-content: space-between; margin-top: 33px;""><img src=""images/choice_trial_11.png"" style=""width: 408px; height: 417px; margin-right: 608px;""></div></div>","null","delaylearn","learning","display_response","60670c6f988b7e2e9edd72ea","6VHNFoK2iVMwthxkPFzv0pauoS42","","","","","","","","","","","","","","","","","chosen stimuli: images/choice_trial_11.png","","","",""
"html-keyboard-response","184","453651","0.0-76.0-2.0","","null","","null","delaylearn","learning","feedback_duration_window","60670c6f988b7e2e9edd72ea","6VHNFoK2iVMwthxkPFzv0pauoS42","","","","","","","","","","","","","","","","","","750","","",""
"html-keyboard-response","185","455168","0.0-76.0-3.0","","null","<div style='margin:auto;width: auto; font-size: 150%'><span style='font-weight: bold; font-size: 100px; color: red;'>0 points!</span><br><br></div>","null","delaylearn","learning","feedback_image_window","60670c6f988b7e2e9edd72ea","6VHNFoK2iVMwthxkPFzv0pauoS42","","","","","","","","","","","","","","","","","","","","",""
"html-keyboard-response","186","456835","0.0-77.0","","null","<div style=""font-size:100px;"">+</div>","null","delaylearn","learning","ITI","60670c6f988b7e2e9edd72ea","6VHNFoK2iVMwthxkPFzv0pauoS42","","","","","","","","","","","","","","","","","","","1657","",""
"html-keyboard-response","187","458232","0.0-78.0-0.0","","1395.4000000953674","<div style=""display: flex; flex-direction: column; align-items: center; margin-top: -40px;""><img src=""images/pattern_1.png"" style=""width: 234px; height: 230px; margin-top: -50px;""><div style=""display: flex; justify-content: space-between; margin-top: 33px;""><img src=""images/choice_trial_14.png"" style=""width: 408px; height: 417px; margin-right: 200px;""><img src=""images/choice_trial_8.png"" style=""width: 408px; height: 417px;""></div></div>","j","delaylearn","learning","trial","60670c6f988b7e2e9edd72ea","6VHNFoK2iVMwthxkPFzv0pauoS42","3","images/choice_trial_14.png","images/choice_trial_8.png","images/pattern_1.png","f","f","7000","14","8","1","0","34","0","0","8","180","","","","",""
"html-keyboard-response","188","459235","0.0-78.0-1.0","","null","<div style=""display: flex; flex-direction: column; align-items: center; margin-top: -40px;""><img src=""images/pattern_1.png"" style=""width: 234px; height: 230px; margin-top: -50px;""><div style=""display: flex; justify-content: space-between; margin-top: 33px;""><img src=""images/choice_trial_8.png"" style=""width: 408px; height: 417px; margin-left:608px;""></div></div>","null","delaylearn","learning","display_response","60670c6f988b7e2e9edd72ea","6VHNFoK2iVMwthxkPFzv0pauoS42","","","","","","","","","","","","","","","","","chosen stimuli: images/choice_trial_8.png","","","",""
"html-keyboard-response","189","466251","0.0-78.0-2.0","","null","","null","delaylearn","learning","feedback_duration_window","60670c6f988b7e2e9edd72ea","6VHNFoK2iVMwthxkPFzv0pauoS42","","","","","","","","","","","","","","","","","","7000","","",""
"html-keyboard-response","190","467753","0.0-78.0-3.0","","null","<div style='margin:auto;width: auto; font-size: 150%'><span style='font-weight: bold; font-size: 100px; color: red;'>0 points!</span><br><br></div>","null","delaylearn","learning","feedback_image_window","60670c6f988b7e2e9edd72ea","6VHNFoK2iVMwthxkPFzv0pauoS42","","","","","","","","","","","","","","","","","","","","",""
"html-keyboard-response","191","468266","0.0-79.0-0.0","","null","","null","","","mood_trial_fixation","","","","","","","","","","","","","","","","","","","","","","",""
"lmdlab-html-vas-response","192","474764","0.0-79.0-1.0","","5477","How happy are you right now?","0.38683540037786157","delaylearn","learning","mood_trial","60670c6f988b7e2e9edd72ea","6VHNFoK2iVMwthxkPFzv0pauoS42","","","","","","","","","","","","","","","","","","","","[""Very unhappy"",""Very happy""]",""
"html-keyboard-response","193","476452","0.0-80.0","","null","<div style=""font-size:100px;"">+</div>","null","delaylearn","learning","ITI","60670c6f988b7e2e9edd72ea","6VHNFoK2iVMwthxkPFzv0pauoS42","","","","","","","","","","","","","","","","","","","1685","",""
"html-keyboard-response","194","477384","0.0-81.0-0.0","","930.3000001907349","<div style=""display: flex; flex-direction: column; align-items: center; margin-top: -40px;""><img src=""images/pattern_6.png"" style=""width: 234px; height: 230px; margin-top: -50px;""><div style=""display: flex; justify-content: space-between; margin-top: 33px;""><img src=""images/choice_trial_16.png"" style=""width: 408px; height: 417px; margin-right: 200px;""><img src=""images/choice_trial_3.png"" style=""width: 408px; height: 417px;""></div></div>","f","delaylearn","learning","trial","60670c6f988b7e2e9edd72ea","6VHNFoK2iVMwthxkPFzv0pauoS42","3","images/choice_trial_16.png","images/choice_trial_3.png","images/pattern_6.png","j","f","750","16","3","5","0","35","1","0","16","180","","","","",""
"html-keyboard-response","195","478399","0.0-81.0-1.0","","null","<div style=""display: flex; flex-direction: column; align-items: center; margin-top: -40px;""><img src=""images/pattern_6.png"" style=""width: 234px; height: 230px; margin-top: -50px;""><div style=""display: flex; justify-content: space-between; margin-top: 33px;""><img src=""images/choice_trial_16.png"" style=""width: 408px; height: 417px; margin-right: 608px;""></div></div>","null","delaylearn","learning","display_response","60670c6f988b7e2e9edd72ea","6VHNFoK2iVMwthxkPFzv0pauoS42","","","","","","","","","","","","","","","","","chosen stimuli: images/choice_trial_16.png","","","",""
"html-keyboard-response","196","479153","0.0-81.0-2.0","","null","","null","delaylearn","learning","feedback_duration_window","60670c6f988b7e2e9edd72ea","6VHNFoK2iVMwthxkPFzv0pauoS42","","","","","","","","","","","","","","","","","","750","","",""
"html-keyboard-response","197","480667","0.0-81.0-3.0","","null","<div style='margin:auto;width: auto; font-size: 150%'><span style='font-weight: bold; font-size: 100px; color: red;'>0 points!</span><br><br></div>","null","delaylearn","learning","feedback_image_window","60670c6f988b7e2e9edd72ea","6VHNFoK2iVMwthxkPFzv0pauoS42","","","","","","","","","","","","","","","","","","","","",""
"html-keyboard-response","198","482750","0.0-82.0","","null","<div style=""font-size:100px;"">+</div>","null","delaylearn","learning","ITI","60670c6f988b7e2e9edd72ea","6VHNFoK2iVMwthxkPFzv0pauoS42","","","","","","","","","","","","","","","","","","","2067","",""
"html-keyboard-response","199","483792","0.0-83.0-0.0","","1040.2999999523163","<div style=""display: flex; flex-direction: column; align-items: center; margin-top: -40px;""><img src=""images/pattern_3.png"" style=""width: 234px; height: 230px; margin-top: -50px;""><div style=""display: flex; justify-content: space-between; margin-top: 33px;""><img src=""images/choice_trial_10.png"" style=""width: 408px; height: 417px; margin-right: 200px;""><img src=""images/choice_trial_13.png"" style=""width: 408px; height: 417px;""></div></div>","f","delaylearn","learning","trial","60670c6f988b7e2e9edd72ea","6VHNFoK2iVMwthxkPFzv0pauoS42","3","images/choice_trial_10.png","images/choice_trial_13.png","images/pattern_3.png","j","j","7000","10","13","2","1","36","0","0","10","180","","","","",""
"html-keyboard-response","200","484800","0.0-83.0-1.0","","null","<div style=""display: flex; flex-direction: column; align-items: center; margin-top: -40px;""><img src=""images/pattern_3.png"" style=""width: 234px; height: 230px; margin-top: -50px;""><div style=""display: flex; justify-content: space-between; margin-top: 33px;""><img src=""images/choice_trial_10.png"" style=""width: 408px; height: 417px; margin-right: 608px;""></div></div>","null","delaylearn","learning","display_response","60670c6f988b7e2e9edd72ea","6VHNFoK2iVMwthxkPFzv0pauoS42","","","","","","","","","","","","","","","","","chosen stimuli: images/choice_trial_10.png","","","",""
"html-keyboard-response","201","491801","0.0-83.0-2.0","","null","","null","delaylearn","learning","feedback_duration_window","60670c6f988b7e2e9edd72ea","6VHNFoK2iVMwthxkPFzv0pauoS42","","","","","","","","","","","","","","","","","","7000","","",""
"html-keyboard-response","202","493316","0.0-83.0-3.0","","null","<div style='margin:auto;width: auto; font-size: 150%'><span style='font-weight: bold; font-size: 100px; color: red;'>0 points!</span><br><br></div>","null","delaylearn","learning","feedback_image_window","60670c6f988b7e2e9edd72ea","6VHNFoK2iVMwthxkPFzv0pauoS42","","","","","","","","","","","","","","","","","","","","",""
"html-keyboard-response","203","495700","0.0-84.0","","null","<div style=""font-size:100px;"">+</div>","null","delaylearn","learning","ITI","60670c6f988b7e2e9edd72ea","6VHNFoK2iVMwthxkPFzv0pauoS42","","","","","","","","","","","","","","","","","","","2370","",""
"html-keyboard-response","204","497568","0.0-85.0-0.0","","1866","<div style=""display: flex; flex-direction: column; align-items: center; margin-top: -40px;""><img src=""images/pattern_4.png"" style=""width: 234px; height: 230px; margin-top: -50px;""><div style=""display: flex; justify-content: space-between; margin-top: 33px;""><img src=""images/choice_trial_9.png"" style=""width: 408px; height: 417px; margin-right: 200px;""><img src=""images/choice_trial_15.png"" style=""width: 408px; height: 417px;""></div></div>","f","delaylearn","learning","trial","60670c6f988b7e2e9edd72ea","6VHNFoK2iVMwthxkPFzv0pauoS42","3","images/choice_trial_9.png","images/choice_trial_15.png","images/pattern_4.png","f","j","7000","9","15","3","1","37","0","1","9","190","","","","",""
"html-keyboard-response","205","498585","0.0-85.0-1.0","","null","<div style=""display: flex; flex-direction: column; align-items: center; margin-top: -40px;""><img src=""images/pattern_4.png"" style=""width: 234px; height: 230px; margin-top: -50px;""><div style=""display: flex; justify-content: space-between; margin-top: 33px;""><img src=""images/choice_trial_9.png"" style=""width: 408px; height: 417px; margin-right: 608px;""></div></div>","null","delaylearn","learning","display_response","60670c6f988b7e2e9edd72ea","6VHNFoK2iVMwthxkPFzv0pauoS42","","","","","","","","","","","","","","","","","chosen stimuli: images/choice_trial_9.png","","","",""
"html-keyboard-response","206","505598","0.0-85.0-2.0","","null","","null","delaylearn","learning","feedback_duration_window","60670c6f988b7e2e9edd72ea","6VHNFoK2iVMwthxkPFzv0pauoS42","","","","","","","","","","","","","","","","","","7000","","",""
"html-keyboard-response","207","507100","0.0-85.0-3.0","","null","<div style='margin:auto;width: auto; font-size: 150%'><span style='font-weight: bold; font-size: 100px; color: green;'>+10 points!</span><br><br></div>","null","delaylearn","learning","feedback_image_window","60670c6f988b7e2e9edd72ea","6VHNFoK2iVMwthxkPFzv0pauoS42","","","","","","","","","","","","","","","","","","","","",""
"html-keyboard-response","208","509232","0.0-86.0","","null","<div style=""font-size:100px;"">+</div>","null","delaylearn","learning","ITI","60670c6f988b7e2e9edd72ea","6VHNFoK2iVMwthxkPFzv0pauoS42","","","","","","","","","","","","","","","","","","","2130","",""
"html-keyboard-response","209","510991","0.0-87.0-0.0","","1757.7999999523163","<div style=""display: flex; flex-direction: column; align-items: center; margin-top: -40px;""><img src=""images/pattern_7.png"" style=""width: 234px; height: 230px; margin-top: -50px;""><div style=""display: flex; justify-content: space-between; margin-top: 33px;""><img src=""images/choice_trial_6.png"" style=""width: 408px; height: 417px; margin-right: 200px;""><img src=""images/choice_trial_12.png"" style=""width: 408px; height: 417px;""></div></div>","j","delaylearn","learning","trial","60670c6f988b7e2e9edd72ea","6VHNFoK2iVMwthxkPFzv0pauoS42","3","images/choice_trial_6.png","images/choice_trial_12.png","images/pattern_7.png","f","f","750","6","12","6","0","38","0","0","12","190","","","","",""
"html-keyboard-response","210","511995","0.0-87.0-1.0","","null","<div style=""display: flex; flex-direction: column; align-items: center; margin-top: -40px;""><img src=""images/pattern_7.png"" style=""width: 234px; height: 230px; margin-top: -50px;""><div style=""display: flex; justify-content: space-between; margin-top: 33px;""><img src=""images/choice_trial_12.png"" style=""width: 408px; height: 417px; margin-left:608px;""></div></div>","null","delaylearn","learning","display_response","60670c6f988b7e2e9edd72ea","6VHNFoK2iVMwthxkPFzv0pauoS42","","","","","","","","","","","","","","","","","chosen stimuli: images/choice_trial_12.png","","","",""
"html-keyboard-response","211","512752","0.0-87.0-2.0","","null","","null","delaylearn","learning","feedback_duration_window","60670c6f988b7e2e9edd72ea","6VHNFoK2iVMwthxkPFzv0pauoS42","","","","","","","","","","","","","","","","","","750","","",""
"html-keyboard-response","212","514267","0.0-87.0-3.0","","null","<div style='margin:auto;width: auto; font-size: 150%'><span style='font-weight: bold; font-size: 100px; color: red;'>0 points!</span><br><br></div>","null","delaylearn","learning","feedback_image_window","60670c6f988b7e2e9edd72ea","6VHNFoK2iVMwthxkPFzv0pauoS42","","","","","","","","","","","","","","","","","","","","",""
"html-keyboard-response","213","516100","0.0-88.0","","null","<div style=""font-size:100px;"">+</div>","null","delaylearn","learning","ITI","60670c6f988b7e2e9edd72ea","6VHNFoK2iVMwthxkPFzv0pauoS42","","","","","","","","","","","","","","","","","","","1825","",""
"html-keyboard-response","214","519116","0.0-89.0-0.0","","null","<div style=""display: flex; flex-direction: column; align-items: center; margin-top: -40px;""><img src=""images/pattern_1.png"" style=""width: 234px; height: 230px; margin-top: -50px;""><div style=""display: flex; justify-content: space-between; margin-top: 33px;""><img src=""images/choice_trial_14.png"" style=""width: 408px; height: 417px; margin-right: 200px;""><img src=""images/choice_trial_8.png"" style=""width: 408px; height: 417px;""></div></div>","null","delaylearn","learning","trial","60670c6f988b7e2e9edd72ea","6VHNFoK2iVMwthxkPFzv0pauoS42","3","images/choice_trial_14.png","images/choice_trial_8.png","images/pattern_1.png","f","f","7000","14","8","1","0","39","0","0","0","190","","","","",""
"html-keyboard-response","215","520131","0.0-89.0-1.0","","null","<div style='font-weight: bold; font-size: 75px; color: red;'>Missed Trial <br><br><br><br> Please respond faster</div>","null","delaylearn","learning","display_response","60670c6f988b7e2e9edd72ea","6VHNFoK2iVMwthxkPFzv0pauoS42","","","","","","","","","","","","","","","","","Missed trial","","","",""
"html-keyboard-response","216","520137","0.0-89.0-2.0","","null","","null","delaylearn","learning","feedback_duration_window","60670c6f988b7e2e9edd72ea","6VHNFoK2iVMwthxkPFzv0pauoS42","","","","","","","","","","","","","","","","","","0","","",""
"html-keyboard-response","217","520143","0.0-89.0-3.0","","null","","null","delaylearn","learning","feedback_image_window","60670c6f988b7e2e9edd72ea","6VHNFoK2iVMwthxkPFzv0pauoS42","","","","","","","","","","","","","","","","","","","","",""
"html-keyboard-response","218","520650","0.0-90.0-0.0","","null","","null","","","mood_trial_fixation","","","","","","","","","","","","","","","","","","","","","","",""
"lmdlab-html-vas-response","219","526484","0.0-90.0-1.0","","4818","How happy are you right now?","0.3536664660058555","delaylearn","learning","mood_trial","60670c6f988b7e2e9edd72ea","6VHNFoK2iVMwthxkPFzv0pauoS42","","","","","","","","","","","","","","","","","","","","[""Very unhappy"",""Very happy""]",""
"html-keyboard-response","220","528485","0.0-91.0","","null","<div style=""font-size:100px;"">+</div>","null","delaylearn","learning","ITI","60670c6f988b7e2e9edd72ea","6VHNFoK2iVMwthxkPFzv0pauoS42","","","","","","","","","","","","","","","","","","","1993","",""
