"trial_type","trial_index","time_elapsed","internal_node_id","participant","rt","stimulus","response","exp_name","exp_stage","test_part","subjectID","databaseID","counterbal","choice_stimuli_1","choice_stimuli_2","pattern_stimuli","rewarded_answer","correct_answer","feedback_duration_times","stim_left","stim_right","pair","leftright_counter","trial","response_correct","response_rewarded","chosen_stim","counter","displayed_choice","feedback_durations","ITI_duration","labels","rest_warning"
"pavlovia","0","445","0.0-0.0","","","","","","","","","","","","","","","","","","","","","","","","","","","","","",""
"html-keyboard-response","1","3458","0.0-1.0","","null","<div style=""font-size:100px;"">+</div>","null","delaylearn","learning","pre_fixation","6147759141eeb37502a2967d","","","","","","","","","","","","","","","","","","","","","",""
"html-keyboard-response","2","3737","0.0-2.0-0.0","","277","<div style=""display: flex; flex-direction: column; align-items: center; margin-top: -40px;""><img src=""images/demo_images/pattern_1.png"" style=""width: 234px; height: 230px; margin-top: -50px;""><div style=""display: flex; justify-content: space-between; margin-top: 33px;""><img src=""images/demo_images/choice_trial_2.png"" style=""width: 408px; height: 417px; margin-right: 200px;""><img src=""images/demo_images/choice_trial_1.png"" style=""width: 408px; height: 417px;""></div></div>","f","delaylearn","learning","trial","6147759141eeb37502a2967d","zH0I3ajmYeQxQBpGY6IH9uuBZWx1","1","images/demo_images/choice_trial_2.png","images/demo_images/choice_trial_1.png","images/demo_images/pattern_1.png","j","j","3000","2","1","20","1","1","0","0","2","0","","","","",""
"html-keyboard-response","3","4744","0.0-2.0-1.0","","null","<div style=""display: flex; flex-direction: column; align-items: center; margin-top: -40px;""><img src=""images/demo_images/pattern_1.png"" style=""width: 234px; height: 230px; margin-top: -50px;""><div style=""display: flex; justify-content: space-between; margin-top: 33px;""><img src=""images/demo_images/choice_trial_2.png"" style=""width: 408px; height: 417px; margin-right: 608px;""></div></div>","null","delaylearn","learning","display_response","6147759141eeb37502a2967d","zH0I3ajmYeQxQBpGY6IH9uuBZWx1","","","","","","","","","","","","","","","","","chosen stimuli: images/demo_images/choice_trial_2.png","","","",""
"html-keyboard-response","4","7755","0.0-2.0-2.0","","null","","null","delaylearn","learning","feedback_duration_window","6147759141eeb37502a2967d","zH0I3ajmYeQxQBpGY6IH9uuBZWx1","","","","","","","","","","","","","","","","","","3000","","",""
"html-keyboard-response","5","9263","0.0-2.0-3.0","","null","<div style='margin:auto;width: auto; font-size: 150%'><span style='font-weight: bold; font-size: 100px; color: red;'>0 points!</span><br><br></div>","null","delaylearn","learning","feedback_image_window","6147759141eeb37502a2967d","zH0I3ajmYeQxQBpGY6IH9uuBZWx1","","","","","","","","","","","","","","","","","","","","",""
"html-keyboard-response","6","11723","0.0-3.0","","null","<div style=""font-size:100px;"">+</div>","null","delaylearn","learning","ITI","6147759141eeb37502a2967d","zH0I3ajmYeQxQBpGY6IH9uuBZWx1","","","","","","","","","","","","","","","","","","","2446","",""
"html-keyboard-response","7","13416","0.0-4.0-0.0","","1689","<div style=""display: flex; flex-direction: column; align-items: center; margin-top: -40px;""><img src=""images/demo_images/pattern_1.png"" style=""width: 234px; height: 230px; margin-top: -50px;""><div style=""display: flex; justify-content: space-between; margin-top: 33px;""><img src=""images/demo_images/choice_trial_2.png"" style=""width: 408px; height: 417px; margin-right: 200px;""><img src=""images/demo_images/choice_trial_1.png"" style=""width: 408px; height: 417px;""></div></div>","j","delaylearn","learning","trial","6147759141eeb37502a2967d","zH0I3ajmYeQxQBpGY6IH9uuBZWx1","1","images/demo_images/choice_trial_2.png","images/demo_images/choice_trial_1.png","images/demo_images/pattern_1.png","j","j","3000","2","1","20","1","2","1","1","1","10","","","","",""
"html-keyboard-response","8","14426","0.0-4.0-1.0","","null","<div style=""display: flex; flex-direction: column; align-items: center; margin-top: -40px;""><img src=""images/demo_images/pattern_1.png"" style=""width: 234px; height: 230px; margin-top: -50px;""><div style=""display: flex; justify-content: space-between; margin-top: 33px;""><img src=""images/demo_images/choice_trial_1.png"" style=""width: 408px; height: 417px; margin-left:608px;""></div></div>","null","delaylearn","learning","display_response","6147759141eeb37502a2967d","zH0I3ajmYeQxQBpGY6IH9uuBZWx1","","","","","","","","","","","","","","","","","chosen stimuli: images/demo_images/choice_trial_1.png","","","",""
"html-keyboard-response","9","17436","0.0-4.0-2.0","","null","","null","delaylearn","learning","feedback_duration_window","6147759141eeb37502a2967d","zH0I3ajmYeQxQBpGY6IH9uuBZWx1","","","","","","","","","","","","","","","","","","3000","","",""
"html-keyboard-response","10","18946","0.0-4.0-3.0","","null","<div style='margin:auto;width: auto; font-size: 150%'><span style='font-weight: bold; font-size: 100px; color: green;'>+10 points!</span><br><br></div>","null","delaylearn","learning","feedback_image_window","6147759141eeb37502a2967d","zH0I3ajmYeQxQBpGY6IH9uuBZWx1","","","","","","","","","","","","","","","","","","","","",""
"html-keyboard-response","11","20950","0.0-5.0","","null","<div style=""font-size:100px;"">+</div>","null","delaylearn","learning","ITI","6147759141eeb37502a2967d","zH0I3ajmYeQxQBpGY6IH9uuBZWx1","","","","","","","","","","","","","","","","","","","1994","",""
"html-keyboard-response","12","22324","0.0-6.0-0.0","","1371.5","<div style=""display: flex; flex-direction: column; align-items: center; margin-top: -40px;""><img src=""images/demo_images/pattern_1.png"" style=""width: 234px; height: 230px; margin-top: -50px;""><div style=""display: flex; justify-content: space-between; margin-top: 33px;""><img src=""images/demo_images/choice_trial_1.png"" style=""width: 408px; height: 417px; margin-right: 200px;""><img src=""images/demo_images/choice_trial_2.png"" style=""width: 408px; height: 417px;""></div></div>","f","delaylearn","learning","trial","6147759141eeb37502a2967d","zH0I3ajmYeQxQBpGY6IH9uuBZWx1","1","images/demo_images/choice_trial_1.png","images/demo_images/choice_trial_2.png","images/demo_images/pattern_1.png","j","f","3000","1","2","20","0","3","1","0","1","10","","","","",""
"html-keyboard-response","13","23341","0.0-6.0-1.0","","null","<div style=""display: flex; flex-direction: column; align-items: center; margin-top: -40px;""><img src=""images/demo_images/pattern_1.png"" style=""width: 234px; height: 230px; margin-top: -50px;""><div style=""display: flex; justify-content: space-between; margin-top: 33px;""><img src=""images/demo_images/choice_trial_1.png"" style=""width: 408px; height: 417px; margin-right: 608px;""></div></div>","null","delaylearn","learning","display_response","6147759141eeb37502a2967d","zH0I3ajmYeQxQBpGY6IH9uuBZWx1","","","","","","","","","","","","","","","","","chosen stimuli: images/demo_images/choice_trial_1.png","","","",""
"html-keyboard-response","14","26356","0.0-6.0-2.0","","null","","null","delaylearn","learning","feedback_duration_window","6147759141eeb37502a2967d","zH0I3ajmYeQxQBpGY6IH9uuBZWx1","","","","","","","","","","","","","","","","","","3000","","",""
"html-keyboard-response","15","27862","0.0-6.0-3.0","","null","<div style='margin:auto;width: auto; font-size: 150%'><span style='font-weight: bold; font-size: 100px; color: red;'>0 points!</span><br><br></div>","null","delaylearn","learning","feedback_image_window","6147759141eeb37502a2967d","zH0I3ajmYeQxQBpGY6IH9uuBZWx1","","","","","","","","","","","","","","","","","","","","",""
"html-keyboard-response","16","30308","0.0-7.0","","null","<div style=""font-size:100px;"">+</div>","null","delaylearn","learning","ITI","6147759141eeb37502a2967d","zH0I3ajmYeQxQBpGY6IH9uuBZWx1","","","","","","","","","","","","","","","","","","","2442","",""
"html-keyboard-response","17","33214","0.0-8.0-0.0","","2904.5","<div style=""display: flex; flex-direction: column; align-items: center; margin-top: -40px;""><img src=""images/demo_images/pattern_1.png"" style=""width: 234px; height: 230px; margin-top: -50px;""><div style=""display: flex; justify-content: space-between; margin-top: 33px;""><img src=""images/demo_images/choice_trial_1.png"" style=""width: 408px; height: 417px; margin-right: 200px;""><img src=""images/demo_images/choice_trial_2.png"" style=""width: 408px; height: 417px;""></div></div>","f","delaylearn","learning","trial","6147759141eeb37502a2967d","zH0I3ajmYeQxQBpGY6IH9uuBZWx1","1","images/demo_images/choice_trial_1.png","images/demo_images/choice_trial_2.png","images/demo_images/pattern_1.png","f","f","3000","1","2","20","0","4","1","1","1","20","","","","",""
"html-keyboard-response","18","34227","0.0-8.0-1.0","","null","<div style=""display: flex; flex-direction: column; align-items: center; margin-top: -40px;""><img src=""images/demo_images/pattern_1.png"" style=""width: 234px; height: 230px; margin-top: -50px;""><div style=""display: flex; justify-content: space-between; margin-top: 33px;""><img src=""images/demo_images/choice_trial_1.png"" style=""width: 408px; height: 417px; margin-right: 608px;""></div></div>","null","delaylearn","learning","display_response","6147759141eeb37502a2967d","zH0I3ajmYeQxQBpGY6IH9uuBZWx1","","","","","","","","","","","","","","","","","chosen stimuli: images/demo_images/choice_trial_1.png","","","",""
"html-keyboard-response","19","37238","0.0-8.0-2.0","","null","","null","delaylearn","learning","feedback_duration_window","6147759141eeb37502a2967d","zH0I3ajmYeQxQBpGY6IH9uuBZWx1","","","","","","","","","","","","","","","","","","3000","","",""
"html-keyboard-response","20","38746","0.0-8.0-3.0","","null","<div style='margin:auto;width: auto; font-size: 150%'><span style='font-weight: bold; font-size: 100px; color: green;'>+10 points!</span><br><br></div>","null","delaylearn","learning","feedback_image_window","6147759141eeb37502a2967d","zH0I3ajmYeQxQBpGY6IH9uuBZWx1","","","","","","","","","","","","","","","","","","","","",""
"html-keyboard-response","21","39255","0.0-9.0-0.0","","null","","null","","","mood_trial_fixation","","","","","","","","","","","","","","","","","","","","","","",""
"lmdlab-html-vas-response","22","43737","0.0-9.0-1.0","","3465","How happy are you right now?","0.8310185538397895","delaylearn","learning","mood_trial","6147759141eeb37502a2967d","zH0I3ajmYeQxQBpGY6IH9uuBZWx1","","","","","","","","","","","","","","","","","","","","[""Very unhappy"",""Very happy""]",""
"html-keyboard-response","23","45386","0.0-10.0","","null","<div style=""font-size:100px;"">+</div>","null","delaylearn","learning","ITI","6147759141eeb37502a2967d","zH0I3ajmYeQxQBpGY6IH9uuBZWx1","","","","","","","","","","","","","","","","","","","1639","",""
"html-keyboard-response","24","47482","0.0-11.0-0.0","","2093.7000000476837","<div style=""display: flex; flex-direction: column; align-items: center; margin-top: -40px;""><img src=""images/demo_images/pattern_1.png"" style=""width: 234px; height: 230px; margin-top: -50px;""><div style=""display: flex; justify-content: space-between; margin-top: 33px;""><img src=""images/demo_images/choice_trial_2.png"" style=""width: 408px; height: 417px; margin-right: 200px;""><img src=""images/demo_images/choice_trial_1.png"" style=""width: 408px; height: 417px;""></div></div>","j","delaylearn","learning","trial","6147759141eeb37502a2967d","zH0I3ajmYeQxQBpGY6IH9uuBZWx1","1","images/demo_images/choice_trial_2.png","images/demo_images/choice_trial_1.png","images/demo_images/pattern_1.png","j","j","3000","2","1","20","1","5","1","1","1","30","","","","",""
"html-keyboard-response","25","48492","0.0-11.0-1.0","","null","<div style=""display: flex; flex-direction: column; align-items: center; margin-top: -40px;""><img src=""images/demo_images/pattern_1.png"" style=""width: 234px; height: 230px; margin-top: -50px;""><div style=""display: flex; justify-content: space-between; margin-top: 33px;""><img src=""images/demo_images/choice_trial_1.png"" style=""width: 408px; height: 417px; margin-left:608px;""></div></div>","null","delaylearn","learning","display_response","6147759141eeb37502a2967d","zH0I3ajmYeQxQBpGY6IH9uuBZWx1","","","","","","","","","","","","","","","","","chosen stimuli: images/demo_images/choice_trial_1.png","","","",""
"html-keyboard-response","26","51502","0.0-11.0-2.0","","null","","null","delaylearn","learning","feedback_duration_window","6147759141eeb37502a2967d","zH0I3ajmYeQxQBpGY6IH9uuBZWx1","","","","","","","","","","","","","","","","","","3000","","",""
"html-keyboard-response","27","53012","0.0-11.0-3.0","","null","<div style='margin:auto;width: auto; font-size: 150%'><span style='font-weight: bold; font-size: 100px; color: green;'>+10 points!</span><br><br></div>","null","delaylearn","learning","feedback_image_window","6147759141eeb37502a2967d","zH0I3ajmYeQxQBpGY6IH9uuBZWx1","","","","","","","","","","","","","","","","","","","","",""
"html-keyboard-response","28","55425","0.0-12.0","","null","<div style=""font-size:100px;"">+</div>","null","delaylearn","learning","ITI","6147759141eeb37502a2967d","zH0I3ajmYeQxQBpGY6IH9uuBZWx1","","","","","","","","","","","","","","","","","","","2401","",""
"html-keyboard-response","29","56674","0.0-13.0-0.0","","1246.4000000953674","<div style=""display: flex; flex-direction: column; align-items: center; margin-top: -40px;""><img src=""images/demo_images/pattern_1.png"" style=""width: 234px; height: 230px; margin-top: -50px;""><div style=""display: flex; justify-content: space-between; margin-top: 33px;""><img src=""images/demo_images/choice_trial_1.png"" style=""width: 408px; height: 417px; margin-right: 200px;""><img src=""images/demo_images/choice_trial_2.png"" style=""width: 408px; height: 417px;""></div></div>","f","delaylearn","learning","trial","6147759141eeb37502a2967d","zH0I3ajmYeQxQBpGY6IH9uuBZWx1","1","images/demo_images/choice_trial_1.png","images/demo_images/choice_trial_2.png","images/demo_images/pattern_1.png","f","f","3000","1","2","20","0","6","1","1","1","40","","","","",""
"html-keyboard-response","30","57689","0.0-13.0-1.0","","null","<div style=""display: flex; flex-direction: column; align-items: center; margin-top: -40px;""><img src=""images/demo_images/pattern_1.png"" style=""width: 234px; height: 230px; margin-top: -50px;""><div style=""display: flex; justify-content: space-between; margin-top: 33px;""><img src=""images/demo_images/choice_trial_1.png"" style=""width: 408px; height: 417px; margin-right: 608px;""></div></div>","null","delaylearn","learning","display_response","6147759141eeb37502a2967d","zH0I3ajmYeQxQBpGY6IH9uuBZWx1","","","","","","","","","","","","","","","","","chosen stimuli: images/demo_images/choice_trial_1.png","","","",""
"html-keyboard-response","31","60704","0.0-13.0-2.0","","null","","null","delaylearn","learning","feedback_duration_window","6147759141eeb37502a2967d","zH0I3ajmYeQxQBpGY6IH9uuBZWx1","","","","","","","","","","","","","","","","","","3000","","",""
"html-keyboard-response","32","62210","0.0-13.0-3.0","","null","<div style='margin:auto;width: auto; font-size: 150%'><span style='font-weight: bold; font-size: 100px; color: green;'>+10 points!</span><br><br></div>","null","delaylearn","learning","feedback_image_window","6147759141eeb37502a2967d","zH0I3ajmYeQxQBpGY6IH9uuBZWx1","","","","","","","","","","","","","","","","","","","","",""
"html-keyboard-response","33","64529","0.0-14.0","","null","<div style=""font-size:100px;"">+</div>","null","delaylearn","learning","ITI","6147759141eeb37502a2967d","zH0I3ajmYeQxQBpGY6IH9uuBZWx1","","","","","","","","","","","","","","","","","","","2314","",""
"html-keyboard-response","34","65465","0.0-15.0-0.0","","933.7000000476837","<div style=""display: flex; flex-direction: column; align-items: center; margin-top: -40px;""><img src=""images/demo_images/pattern_1.png"" style=""width: 234px; height: 230px; margin-top: -50px;""><div style=""display: flex; justify-content: space-between; margin-top: 33px;""><img src=""images/demo_images/choice_trial_2.png"" style=""width: 408px; height: 417px; margin-right: 200px;""><img src=""images/demo_images/choice_trial_1.png"" style=""width: 408px; height: 417px;""></div></div>","j","delaylearn","learning","trial","6147759141eeb37502a2967d","zH0I3ajmYeQxQBpGY6IH9uuBZWx1","1","images/demo_images/choice_trial_2.png","images/demo_images/choice_trial_1.png","images/demo_images/pattern_1.png","j","j","3000","2","1","20","1","7","1","1","1","50","","","","",""
"html-keyboard-response","35","66473","0.0-15.0-1.0","","null","<div style=""display: flex; flex-direction: column; align-items: center; margin-top: -40px;""><img src=""images/demo_images/pattern_1.png"" style=""width: 234px; height: 230px; margin-top: -50px;""><div style=""display: flex; justify-content: space-between; margin-top: 33px;""><img src=""images/demo_images/choice_trial_1.png"" style=""width: 408px; height: 417px; margin-left:608px;""></div></div>","null","delaylearn","learning","display_response","6147759141eeb37502a2967d","zH0I3ajmYeQxQBpGY6IH9uuBZWx1","","","","","","","","","","","","","","","","","chosen stimuli: images/demo_images/choice_trial_1.png","","","",""
"html-keyboard-response","36","69486","0.0-15.0-2.0","","null","","null","delaylearn","learning","feedback_duration_window","6147759141eeb37502a2967d","zH0I3ajmYeQxQBpGY6IH9uuBZWx1","","","","","","","","","","","","","","","","","","3000","","",""
"html-keyboard-response","37","70993","0.0-15.0-3.0","","null","<div style='margin:auto;width: auto; font-size: 150%'><span style='font-weight: bold; font-size: 100px; color: green;'>+10 points!</span><br><br></div>","null","delaylearn","learning","feedback_image_window","6147759141eeb37502a2967d","zH0I3ajmYeQxQBpGY6IH9uuBZWx1","","","","","","","","","","","","","","","","","","","","",""
"html-keyboard-response","38","72967","0.0-16.0","","null","<div style=""font-size:100px;"">+</div>","null","delaylearn","learning","ITI","6147759141eeb37502a2967d","zH0I3ajmYeQxQBpGY6IH9uuBZWx1","","","","","","","","","","","","","","","","","","","1958","",""
"html-keyboard-response","39","73684","0.0-17.0-0.0","","714.7999999523163","<div style=""display: flex; flex-direction: column; align-items: center; margin-top: -40px;""><img src=""images/demo_images/pattern_1.png"" style=""width: 234px; height: 230px; margin-top: -50px;""><div style=""display: flex; justify-content: space-between; margin-top: 33px;""><img src=""images/demo_images/choice_trial_1.png"" style=""width: 408px; height: 417px; margin-right: 200px;""><img src=""images/demo_images/choice_trial_2.png"" style=""width: 408px; height: 417px;""></div></div>","f","delaylearn","learning","trial","6147759141eeb37502a2967d","zH0I3ajmYeQxQBpGY6IH9uuBZWx1","1","images/demo_images/choice_trial_1.png","images/demo_images/choice_trial_2.png","images/demo_images/pattern_1.png","f","f","3000","1","2","20","0","8","1","1","1","60","","","","",""
"html-keyboard-response","40","74690","0.0-17.0-1.0","","null","<div style=""display: flex; flex-direction: column; align-items: center; margin-top: -40px;""><img src=""images/demo_images/pattern_1.png"" style=""width: 234px; height: 230px; margin-top: -50px;""><div style=""display: flex; justify-content: space-between; margin-top: 33px;""><img src=""images/demo_images/choice_trial_1.png"" style=""width: 408px; height: 417px; margin-right: 608px;""></div></div>","null","delaylearn","learning","display_response","6147759141eeb37502a2967d","zH0I3ajmYeQxQBpGY6IH9uuBZWx1","","","","","","","","","","","","","","","","","chosen stimuli: images/demo_images/choice_trial_1.png","","","",""
"html-keyboard-response","41","77701","0.0-17.0-2.0","","null","","null","delaylearn","learning","feedback_duration_window","6147759141eeb37502a2967d","zH0I3ajmYeQxQBpGY6IH9uuBZWx1","","","","","","","","","","","","","","","","","","3000","","",""
"html-keyboard-response","42","79208","0.0-17.0-3.0","","null","<div style='margin:auto;width: auto; font-size: 150%'><span style='font-weight: bold; font-size: 100px; color: green;'>+10 points!</span><br><br></div>","null","delaylearn","learning","feedback_image_window","6147759141eeb37502a2967d","zH0I3ajmYeQxQBpGY6IH9uuBZWx1","","","","","","","","","","","","","","","","","","","","",""
"html-button-response","43","81588","0.0-18.0","","2377.2999999523163","
  <div style=""display: flex; align-items: center; justify-content: center; height: 80vh;"">
  <div>
          <img src=""images/inst_demo_finish.png"" style=""width: 80vw; height:auto;"">
          <br><br>
      </div>
      <br><br>
  </div>","0","","","","","","","","","","","","","","","","","","","","","","","","","",""
"html-keyboard-response","44","87800","0.0-19.0","","6210.5","
  <div style=""display: flex; align-items: center; justify-content: center; height: 80vh;"">
  <div>
          <img src=""images/inst_6.png"" style=""width: 80vw; height:auto;"">
          <br><br>
      </div>
      <br><br>
  </div>","j","","","","","","","","","","","","","","","","","","","","","","","","","",""
"html-keyboard-response","45","90802","0.0-20.0","","null","<div style=""font-size:100px;"">+</div>","null","delaylearn","learning","pre_fixation","6147759141eeb37502a2967d","","","","","","","","","","","","","","","","","","","","","",""
"html-keyboard-response","46","92967","0.0-21.0","","null","<div style=""font-size:100px;"">+</div>","null","delaylearn","learning","ITI","6147759141eeb37502a2967d","zH0I3ajmYeQxQBpGY6IH9uuBZWx1","","","","","","","","","","","","","","","","","","","2149","",""
"html-keyboard-response","47","94887","0.0-22.0-0.0","","1916.8999999761581","<div style=""display: flex; flex-direction: column; align-items: center; margin-top: -40px;""><img src=""images/pattern_3.png"" style=""width: 234px; height: 230px; margin-top: -50px;""><div style=""display: flex; justify-content: space-between; margin-top: 33px;""><img src=""images/choice_trial_5.png"" style=""width: 408px; height: 417px; margin-right: 200px;""><img src=""images/choice_trial_6.png"" style=""width: 408px; height: 417px;""></div></div>","j","delaylearn","learning","trial","6147759141eeb37502a2967d","zH0I3ajmYeQxQBpGY6IH9uuBZWx1","1","images/choice_trial_5.png","images/choice_trial_6.png","images/pattern_3.png","f","f","7000","5","6","2","0","9","0","0","6","60","","","","",""
"html-keyboard-response","48","95889","0.0-22.0-1.0","","null","<div style=""display: flex; flex-direction: column; align-items: center; margin-top: -40px;""><img src=""images/pattern_3.png"" style=""width: 234px; height: 230px; margin-top: -50px;""><div style=""display: flex; justify-content: space-between; margin-top: 33px;""><img src=""images/choice_trial_6.png"" style=""width: 408px; height: 417px; margin-left:608px;""></div></div>","null","delaylearn","learning","display_response","6147759141eeb37502a2967d","zH0I3ajmYeQxQBpGY6IH9uuBZWx1","","","","","","","","","","","","","","","","","chosen stimuli: images/choice_trial_6.png","","","",""
"html-keyboard-response","49","102903","0.0-22.0-2.0","","null","","null","delaylearn","learning","feedback_duration_window","6147759141eeb37502a2967d","zH0I3ajmYeQxQBpGY6IH9uuBZWx1","","","","","","","","","","","","","","","","","","7000","","",""
"html-keyboard-response","50","104409","0.0-22.0-3.0","","null","<div style='margin:auto;width: auto; font-size: 150%'><span style='font-weight: bold; font-size: 100px; color: red;'>0 points!</span><br><br></div>","null","delaylearn","learning","feedback_image_window","6147759141eeb37502a2967d","zH0I3ajmYeQxQBpGY6IH9uuBZWx1","","","","","","","","","","","","","","","","","","","","",""
"html-keyboard-response","51","106317","0.0-23.0","","null","<div style=""font-size:100px;"">+</div>","null","delaylearn","learning","ITI","6147759141eeb37502a2967d","zH0I3ajmYeQxQBpGY6IH9uuBZWx1","","","","","","","","","","","","","","","","","","","1907","",""
"html-keyboard-response","52","108660","0.0-24.0-0.0","","2340.7000000476837","<div style=""display: flex; flex-direction: column; align-items: center; margin-top: -40px;""><img src=""images/pattern_7.png"" style=""width: 234px; height: 230px; margin-top: -50px;""><div style=""display: flex; justify-content: space-between; margin-top: 33px;""><img src=""images/choice_trial_14.png"" style=""width: 408px; height: 417px; margin-right: 200px;""><img src=""images/choice_trial_13.png"" style=""width: 408px; height: 417px;""></div></div>","f","delaylearn","learning","trial","6147759141eeb37502a2967d","zH0I3ajmYeQxQBpGY6IH9uuBZWx1","1","images/choice_trial_14.png","images/choice_trial_13.png","images/pattern_7.png","j","j","750","14","13","6","1","10","0","0","14","60","","","","",""
"html-keyboard-response","53","109672","0.0-24.0-1.0","","null","<div style=""display: flex; flex-direction: column; align-items: center; margin-top: -40px;""><img src=""images/pattern_7.png"" style=""width: 234px; height: 230px; margin-top: -50px;""><div style=""display: flex; justify-content: space-between; margin-top: 33px;""><img src=""images/choice_trial_14.png"" style=""width: 408px; height: 417px; margin-right: 608px;""></div></div>","null","delaylearn","learning","display_response","6147759141eeb37502a2967d","zH0I3ajmYeQxQBpGY6IH9uuBZWx1","","","","","","","","","","","","","","","","","chosen stimuli: images/choice_trial_14.png","","","",""
"html-keyboard-response","54","110435","0.0-24.0-2.0","","null","","null","delaylearn","learning","feedback_duration_window","6147759141eeb37502a2967d","zH0I3ajmYeQxQBpGY6IH9uuBZWx1","","","","","","","","","","","","","","","","","","750","","",""
"html-keyboard-response","55","111941","0.0-24.0-3.0","","null","<div style='margin:auto;width: auto; font-size: 150%'><span style='font-weight: bold; font-size: 100px; color: red;'>0 points!</span><br><br></div>","null","delaylearn","learning","feedback_image_window","6147759141eeb37502a2967d","zH0I3ajmYeQxQBpGY6IH9uuBZWx1","","","","","","","","","","","","","","","","","","","","",""
"html-keyboard-response","56","113631","0.0-25.0","","null","<div style=""font-size:100px;"">+</div>","null","delaylearn","learning","ITI","6147759141eeb37502a2967d","zH0I3ajmYeQxQBpGY6IH9uuBZWx1","","","","","","","","","","","","","","","","","","","1681","",""
"html-keyboard-response","57","115779","0.0-26.0-0.0","","2145.399999976158","<div style=""display: flex; flex-direction: column; align-items: center; margin-top: -40px;""><img src=""images/pattern_4.png"" style=""width: 234px; height: 230px; margin-top: -50px;""><div style=""display: flex; justify-content: space-between; margin-top: 33px;""><img src=""images/choice_trial_7.png"" style=""width: 408px; height: 417px; margin-right: 200px;""><img src=""images/choice_trial_8.png"" style=""width: 408px; height: 417px;""></div></div>","f","delaylearn","learning","trial","6147759141eeb37502a2967d","zH0I3ajmYeQxQBpGY6IH9uuBZWx1","1","images/choice_trial_7.png","images/choice_trial_8.png","images/pattern_4.png","f","f","7000","7","8","3","0","11","1","1","7","70","","","","",""
"html-keyboard-response","58","116790","0.0-26.0-1.0","","null","<div style=""display: flex; flex-direction: column; align-items: center; margin-top: -40px;""><img src=""images/pattern_4.png"" style=""width: 234px; height: 230px; margin-top: -50px;""><div style=""display: flex; justify-content: space-between; margin-top: 33px;""><img src=""images/choice_trial_7.png"" style=""width: 408px; height: 417px; margin-right: 608px;""></div></div>","null","delaylearn","learning","display_response","6147759141eeb37502a2967d","zH0I3ajmYeQxQBpGY6IH9uuBZWx1","","","","","","","","","","","","","","","","","chosen stimuli: images/choice_trial_7.png","","","",""
"html-keyboard-response","59","123805","0.0-26.0-2.0","","null","","null","delaylearn","learning","feedback_duration_window","6147759141eeb37502a2967d","zH0I3ajmYeQxQBpGY6IH9uuBZWx1","","","","","","","","","","","","","","","","","","7000","","",""
"html-keyboard-response","60","125310","0.0-26.0-3.0","","null","<div style='margin:auto;width: auto; font-size: 150%'><span style='font-weight: bold; font-size: 100px; color: green;'>+10 points!</span><br><br></div>","null","delaylearn","learning","feedback_image_window","6147759141eeb37502a2967d","zH0I3ajmYeQxQBpGY6IH9uuBZWx1","","","","","","","","","","","","","","","","","","","","",""
"html-keyboard-response","61","126825","0.0-27.0","","null","<div style=""font-size:100px;"">+</div>","null","delaylearn","learning","ITI","6147759141eeb37502a2967d","zH0I3ajmYeQxQBpGY6IH9uuBZWx1","","","","","","","","","","","","","","","","","","","1513","",""
"html-keyboard-response","62","129140","0.0-28.0-0.0","","2311.399999976158","<div style=""display: flex; flex-direction: column; align-items: center; margin-top: -40px;""><img src=""images/pattern_5.png"" style=""width: 234px; height: 230px; margin-top: -50px;""><div style=""display: flex; justify-content: space-between; margin-top: 33px;""><img src=""images/choice_trial_10.png"" style=""width: 408px; height: 417px; margin-right: 200px;""><img src=""images/choice_trial_9.png"" style=""width: 408px; height: 417px;""></div></div>","j","delaylearn","learning","trial","6147759141eeb37502a2967d","zH0I3ajmYeQxQBpGY6IH9uuBZWx1","1","images/choice_trial_10.png","images/choice_trial_9.png","images/pattern_5.png","j","j","750","10","9","4","1","12","1","1","9","80","","","","",""
"html-keyboard-response","63","130154","0.0-28.0-1.0","","null","<div style=""display: flex; flex-direction: column; align-items: center; margin-top: -40px;""><img src=""images/pattern_5.png"" style=""width: 234px; height: 230px; margin-top: -50px;""><div style=""display: flex; justify-content: space-between; margin-top: 33px;""><img src=""images/choice_trial_9.png"" style=""width: 408px; height: 417px; margin-left:608px;""></div></div>","null","delaylearn","learning","display_response","6147759141eeb37502a2967d","zH0I3ajmYeQxQBpGY6IH9uuBZWx1","","","","","","","","","","","","","","","","","chosen stimuli: images/choice_trial_9.png","","","",""
"html-keyboard-response","64","130918","0.0-28.0-2.0","","null","","null","delaylearn","learning","feedback_duration_window","6147759141eeb37502a2967d","zH0I3ajmYeQxQBpGY6IH9uuBZWx1","","","","","","","","","","","","","","","","","","750","","",""
"html-keyboard-response","65","132420","0.0-28.0-3.0","","null","<div style='margin:auto;width: auto; font-size: 150%'><span style='font-weight: bold; font-size: 100px; color: green;'>+10 points!</span><br><br></div>","null","delaylearn","learning","feedback_image_window","6147759141eeb37502a2967d","zH0I3ajmYeQxQBpGY6IH9uuBZWx1","","","","","","","","","","","","","","","","","","","","",""
"html-keyboard-response","66","133952","0.0-29.0","","null","<div style=""font-size:100px;"">+</div>","null","delaylearn","learning","ITI","6147759141eeb37502a2967d","zH0I3ajmYeQxQBpGY6IH9uuBZWx1","","","","","","","","","","","","","","","","","","","1520","",""
"html-keyboard-response","67","135940","0.0-30.0-0.0","","1985.6000000238419","<div style=""display: flex; flex-direction: column; align-items: center; margin-top: -40px;""><img src=""images/pattern_6.png"" style=""width: 234px; height: 230px; margin-top: -50px;""><div style=""display: flex; justify-content: space-between; margin-top: 33px;""><img src=""images/choice_trial_11.png"" style=""width: 408px; height: 417px; margin-right: 200px;""><img src=""images/choice_trial_12.png"" style=""width: 408px; height: 417px;""></div></div>","j","delaylearn","learning","trial","6147759141eeb37502a2967d","zH0I3ajmYeQxQBpGY6IH9uuBZWx1","1","images/choice_trial_11.png","images/choice_trial_12.png","images/pattern_6.png","j","f","750","11","12","5","0","13","0","1","12","90","","","","",""
"html-keyboard-response","68","136953","0.0-30.0-1.0","","null","<div style=""display: flex; flex-direction: column; align-items: center; margin-top: -40px;""><img src=""images/pattern_6.png"" style=""width: 234px; height: 230px; margin-top: -50px;""><div style=""display: flex; justify-content: space-between; margin-top: 33px;""><img src=""images/choice_trial_12.png"" style=""width: 408px; height: 417px; margin-left:608px;""></div></div>","null","delaylearn","learning","display_response","6147759141eeb37502a2967d","zH0I3ajmYeQxQBpGY6IH9uuBZWx1","","","","","","","","","","","","","","","","","chosen stimuli: images/choice_trial_12.png","","","",""
"html-keyboard-response","69","137717","0.0-30.0-2.0","","null","","null","delaylearn","learning","feedback_duration_window","6147759141eeb37502a2967d","zH0I3ajmYeQxQBpGY6IH9uuBZWx1","","","","","","","","","","","","","","","","","","750","","",""
"html-keyboard-response","70","139221","0.0-30.0-3.0","","null","<div style='margin:auto;width: auto; font-size: 150%'><span style='font-weight: bold; font-size: 100px; color: green;'>+10 points!</span><br><br></div>","null","delaylearn","learning","feedback_image_window","6147759141eeb37502a2967d","zH0I3ajmYeQxQBpGY6IH9uuBZWx1","","","","","","","","","","","","","","","","","","","","",""
"html-keyboard-response","71","139733","0.0-31.0-0.0","","null","","null","","","mood_trial_fixation","","","","","","","","","","","","","","","","","","","","","","",""
"lmdlab-html-vas-response","72","146383","0.0-31.0-1.0","","5642","How happy are you right now?","0.8709491093953451","delaylearn","learning","mood_trial","6147759141eeb37502a2967d","zH0I3ajmYeQxQBpGY6IH9uuBZWx1","","","","","","","","","","","","","","","","","","","","[""Very unhappy"",""Very happy""]",""
"html-keyboard-response","73","148280","0.0-32.0","","null","<div style=""font-size:100px;"">+</div>","null","delaylearn","learning","ITI","6147759141eeb37502a2967d","zH0I3ajmYeQxQBpGY6IH9uuBZWx1","","","","","","","","","","","","","","","","","","","1891","",""
"html-keyboard-response","74","149763","0.0-33.0-0.0","","1480.2000000476837","<div style=""display: flex; flex-direction: column; align-items: center; margin-top: -40px;""><img src=""images/pattern_1.png"" style=""width: 234px; height: 230px; margin-top: -50px;""><div style=""display: flex; justify-content: space-between; margin-top: 33px;""><img src=""images/choice_trial_2.png"" style=""width: 408px; height: 417px; margin-right: 200px;""><img src=""images/choice_trial_1.png"" style=""width: 408px; height: 417px;""></div></div>","f","delaylearn","learning","trial","6147759141eeb37502a2967d","zH0I3ajmYeQxQBpGY6IH9uuBZWx1","1","images/choice_trial_2.png","images/choice_trial_1.png","images/pattern_1.png","j","j","7000","2","1","1","1","14","0","0","2","90","","","","",""
"html-keyboard-response","75","150769","0.0-33.0-1.0","","null","<div style=""display: flex; flex-direction: column; align-items: center; margin-top: -40px;""><img src=""images/pattern_1.png"" style=""width: 234px; height: 230px; margin-top: -50px;""><div style=""display: flex; justify-content: space-between; margin-top: 33px;""><img src=""images/choice_trial_2.png"" style=""width: 408px; height: 417px; margin-right: 608px;""></div></div>","null","delaylearn","learning","display_response","6147759141eeb37502a2967d","zH0I3ajmYeQxQBpGY6IH9uuBZWx1","","","","","","","","","","","","","","","","","chosen stimuli: images/choice_trial_2.png","","","",""
"html-keyboard-response","76","157775","0.0-33.0-2.0","","null","","null","delaylearn","learning","feedback_duration_window","6147759141eeb37502a2967d","zH0I3ajmYeQxQBpGY6IH9uuBZWx1","","","","","","","","","","","","","","","","","","7000","","",""
"html-keyboard-response","77","159287","0.0-33.0-3.0","","null","<div style='margin:auto;width: auto; font-size: 150%'><span style='font-weight: bold; font-size: 100px; color: red;'>0 points!</span><br><br></div>","null","delaylearn","learning","feedback_image_window","6147759141eeb37502a2967d","zH0I3ajmYeQxQBpGY6IH9uuBZWx1","","","","","","","","","","","","","","","","","","","","",""
"html-keyboard-response","78","161269","0.0-34.0","","null","<div style=""font-size:100px;"">+</div>","null","delaylearn","learning","ITI","6147759141eeb37502a2967d","zH0I3ajmYeQxQBpGY6IH9uuBZWx1","","","","","","","","","","","","","","","","","","","1979","",""
"html-keyboard-response","79","162923","0.0-35.0-0.0","","1651.0999999046326","<div style=""display: flex; flex-direction: column; align-items: center; margin-top: -40px;""><img src=""images/pattern_3.png"" style=""width: 234px; height: 230px; margin-top: -50px;""><div style=""display: flex; justify-content: space-between; margin-top: 33px;""><img src=""images/choice_trial_6.png"" style=""width: 408px; height: 417px; margin-right: 200px;""><img src=""images/choice_trial_5.png"" style=""width: 408px; height: 417px;""></div></div>","j","delaylearn","learning","trial","6147759141eeb37502a2967d","zH0I3ajmYeQxQBpGY6IH9uuBZWx1","1","images/choice_trial_6.png","images/choice_trial_5.png","images/pattern_3.png","f","j","7000","6","5","2","1","15","1","0","5","90","","","","",""
"html-keyboard-response","80","163934","0.0-35.0-1.0","","null","<div style=""display: flex; flex-direction: column; align-items: center; margin-top: -40px;""><img src=""images/pattern_3.png"" style=""width: 234px; height: 230px; margin-top: -50px;""><div style=""display: flex; justify-content: space-between; margin-top: 33px;""><img src=""images/choice_trial_5.png"" style=""width: 408px; height: 417px; margin-left:608px;""></div></div>","null","delaylearn","learning","display_response","6147759141eeb37502a2967d","zH0I3ajmYeQxQBpGY6IH9uuBZWx1","","","","","","","","","","","","","","","","","chosen stimuli: images/choice_trial_5.png","","","",""
"html-keyboard-response","81","170938","0.0-35.0-2.0","","null","","null","delaylearn","learning","feedback_duration_window","6147759141eeb37502a2967d","zH0I3ajmYeQxQBpGY6IH9uuBZWx1","","","","","","","","","","","","","","","","","","7000","","",""
"html-keyboard-response","82","172450","0.0-35.0-3.0","","null","<div style='margin:auto;width: auto; font-size: 150%'><span style='font-weight: bold; font-size: 100px; color: red;'>0 points!</span><br><br></div>","null","delaylearn","learning","feedback_image_window","6147759141eeb37502a2967d","zH0I3ajmYeQxQBpGY6IH9uuBZWx1","","","","","","","","","","","","","","","","","","","","",""
"html-keyboard-response","83","174125","0.0-36.0","","null","<div style=""font-size:100px;"">+</div>","null","delaylearn","learning","ITI","6147759141eeb37502a2967d","zH0I3ajmYeQxQBpGY6IH9uuBZWx1","","","","","","","","","","","","","","","","","","","1672","",""
"html-keyboard-response","84","176350","0.0-37.0-0.0","","2222.600000023842","<div style=""display: flex; flex-direction: column; align-items: center; margin-top: -40px;""><img src=""images/pattern_5.png"" style=""width: 234px; height: 230px; margin-top: -50px;""><div style=""display: flex; justify-content: space-between; margin-top: 33px;""><img src=""images/choice_trial_9.png"" style=""width: 408px; height: 417px; margin-right: 200px;""><img src=""images/choice_trial_10.png"" style=""width: 408px; height: 417px;""></div></div>","f","delaylearn","learning","trial","6147759141eeb37502a2967d","zH0I3ajmYeQxQBpGY6IH9uuBZWx1","1","images/choice_trial_9.png","images/choice_trial_10.png","images/pattern_5.png","f","f","750","9","10","4","0","16","1","1","9","100","","","","",""
"html-keyboard-response","85","177353","0.0-37.0-1.0","","null","<div style=""display: flex; flex-direction: column; align-items: center; margin-top: -40px;""><img src=""images/pattern_5.png"" style=""width: 234px; height: 230px; margin-top: -50px;""><div style=""display: flex; justify-content: space-between; margin-top: 33px;""><img src=""images/choice_trial_9.png"" style=""width: 408px; height: 417px; margin-right: 608px;""></div></div>","null","delaylearn","learning","display_response","6147759141eeb37502a2967d","zH0I3ajmYeQxQBpGY6IH9uuBZWx1","","","","","","","","","","","","","","","","","chosen stimuli: images/choice_trial_9.png","","","",""
"html-keyboard-response","86","178116","0.0-37.0-2.0","","null","","null","delaylearn","learning","feedback_duration_window","6147759141eeb37502a2967d","zH0I3ajmYeQxQBpGY6IH9uuBZWx1","","","","","","","","","","","","","","","","","","750","","",""
"html-keyboard-response","87","179619","0.0-37.0-3.0","","null","<div style='margin:auto;width: auto; font-size: 150%'><span style='font-weight: bold; font-size: 100px; color: green;'>+10 points!</span><br><br></div>","null","delaylearn","learning","feedback_image_window","6147759141eeb37502a2967d","zH0I3ajmYeQxQBpGY6IH9uuBZWx1","","","","","","","","","","","","","","","","","","","","",""
"html-keyboard-response","88","180129","0.0-38.0-0.0","","null","","null","","","mood_trial_fixation","","","","","","","","","","","","","","","","","","","","","","",""
"lmdlab-html-vas-response","89","185187","0.0-38.0-1.0","","4050","How happy are you right now?","0.8726852205064561","delaylearn","learning","mood_trial","6147759141eeb37502a2967d","zH0I3ajmYeQxQBpGY6IH9uuBZWx1","","","","","","","","","","","","","","","","","","","","[""Very unhappy"",""Very happy""]",""
"html-keyboard-response","90","186921","0.0-39.0","","null","<div style=""font-size:100px;"">+</div>","null","delaylearn","learning","ITI","6147759141eeb37502a2967d","zH0I3ajmYeQxQBpGY6IH9uuBZWx1","","","","","","","","","","","","","","","","","","","1728","",""
"html-keyboard-response","91","189402","0.0-40.0-0.0","","2479","<div style=""display: flex; flex-direction: column; align-items: center; margin-top: -40px;""><img src=""images/pattern_6.png"" style=""width: 234px; height: 230px; margin-top: -50px;""><div style=""display: flex; justify-content: space-between; margin-top: 33px;""><img src=""images/choice_trial_11.png"" style=""width: 408px; height: 417px; margin-right: 200px;""><img src=""images/choice_trial_12.png"" style=""width: 408px; height: 417px;""></div></div>","f","delaylearn","learning","trial","6147759141eeb37502a2967d","zH0I3ajmYeQxQBpGY6IH9uuBZWx1","1","images/choice_trial_11.png","images/choice_trial_12.png","images/pattern_6.png","f","f","750","11","12","5","0","17","1","1","11","110","","","","",""
"html-keyboard-response","92","190415","0.0-40.0-1.0","","null","<div style=""display: flex; flex-direction: column; align-items: center; margin-top: -40px;""><img src=""images/pattern_6.png"" style=""width: 234px; height: 230px; margin-top: -50px;""><div style=""display: flex; justify-content: space-between; margin-top: 33px;""><img src=""images/choice_trial_11.png"" style=""width: 408px; height: 417px; margin-right: 608px;""></div></div>","null","delaylearn","learning","display_response","6147759141eeb37502a2967d","zH0I3ajmYeQxQBpGY6IH9uuBZWx1","","","","","","","","","","","","","","","","","chosen stimuli: images/choice_trial_11.png","","","",""
"html-keyboard-response","93","191167","0.0-40.0-2.0","","null","","null","delaylearn","learning","feedback_duration_window","6147759141eeb37502a2967d","zH0I3ajmYeQxQBpGY6IH9uuBZWx1","","","","","","","","","","","","","","","","","","750","","",""
"html-keyboard-response","94","192669","0.0-40.0-3.0","","null","<div style='margin:auto;width: auto; font-size: 150%'><span style='font-weight: bold; font-size: 100px; color: green;'>+10 points!</span><br><br></div>","null","delaylearn","learning","feedback_image_window","6147759141eeb37502a2967d","zH0I3ajmYeQxQBpGY6IH9uuBZWx1","","","","","","","","","","","","","","","","","","","","",""
"html-keyboard-response","95","195031","0.0-41.0","","null","<div style=""font-size:100px;"">+</div>","null","delaylearn","learning","ITI","6147759141eeb37502a2967d","zH0I3ajmYeQxQBpGY6IH9uuBZWx1","","","","","","","","","","","","","","","","","","","2352","",""
"html-keyboard-response","96","197018","0.0-42.0-0.0","","1983.8000000715256","<div style=""display: flex; flex-direction: column; align-items: center; margin-top: -40px;""><img src=""images/pattern_4.png"" style=""width: 234px; height: 230px; margin-top: -50px;""><div style=""display: flex; justify-content: space-between; margin-top: 33px;""><img src=""images/choice_trial_8.png"" style=""width: 408px; height: 417px; margin-right: 200px;""><img src=""images/choice_trial_7.png"" style=""width: 408px; height: 417px;""></div></div>","j","delaylearn","learning","trial","6147759141eeb37502a2967d","zH0I3ajmYeQxQBpGY6IH9uuBZWx1","1","images/choice_trial_8.png","images/choice_trial_7.png","images/pattern_4.png","j","j","7000","8","7","3","1","18","1","1","7","120","","","","",""
"html-keyboard-response","97","198031","0.0-42.0-1.0","","null","<div style=""display: flex; flex-direction: column; align-items: center; margin-top: -40px;""><img src=""images/pattern_4.png"" style=""width: 234px; height: 230px; margin-top: -50px;""><div style=""display: flex; justify-content: space-between; margin-top: 33px;""><img src=""images/choice_trial_7.png"" style=""width: 408px; height: 417px; margin-left:608px;""></div></div>","null","delaylearn","learning","display_response","6147759141eeb37502a2967d","zH0I3ajmYeQxQBpGY6IH9uuBZWx1","","","","","","","","","","","","","","","","","chosen stimuli: images/choice_trial_7.png","","","",""
"html-keyboard-response","98","205042","0.0-42.0-2.0","","null","","null","delaylearn","learning","feedback_duration_window","6147759141eeb37502a2967d","zH0I3ajmYeQxQBpGY6IH9uuBZWx1","","","","","","","","","","","","","","","","","","7000","","",""
"html-keyboard-response","99","206551","0.0-42.0-3.0","","null","<div style='margin:auto;width: auto; font-size: 150%'><span style='font-weight: bold; font-size: 100px; color: green;'>+10 points!</span><br><br></div>","null","delaylearn","learning","feedback_image_window","6147759141eeb37502a2967d","zH0I3ajmYeQxQBpGY6IH9uuBZWx1","","","","","","","","","","","","","","","","","","","","",""
"html-keyboard-response","100","208331","0.0-43.0","","null","<div style=""font-size:100px;"">+</div>","null","delaylearn","learning","ITI","6147759141eeb37502a2967d","zH0I3ajmYeQxQBpGY6IH9uuBZWx1","","","","","","","","","","","","","","","","","","","1771","",""
"html-keyboard-response","101","210020","0.0-44.0-0.0","","1685.7999999523163","<div style=""display: flex; flex-direction: column; align-items: center; margin-top: -40px;""><img src=""images/pattern_7.png"" style=""width: 234px; height: 230px; margin-top: -50px;""><div style=""display: flex; justify-content: space-between; margin-top: 33px;""><img src=""images/choice_trial_13.png"" style=""width: 408px; height: 417px; margin-right: 200px;""><img src=""images/choice_trial_14.png"" style=""width: 408px; height: 417px;""></div></div>","f","delaylearn","learning","trial","6147759141eeb37502a2967d","zH0I3ajmYeQxQBpGY6IH9uuBZWx1","1","images/choice_trial_13.png","images/choice_trial_14.png","images/pattern_7.png","j","f","750","13","14","6","0","19","1","0","13","120","","","","",""
"html-keyboard-response","102","211032","0.0-44.0-1.0","","null","<div style=""display: flex; flex-direction: column; align-items: center; margin-top: -40px;""><img src=""images/pattern_7.png"" style=""width: 234px; height: 230px; margin-top: -50px;""><div style=""display: flex; justify-content: space-between; margin-top: 33px;""><img src=""images/choice_trial_13.png"" style=""width: 408px; height: 417px; margin-right: 608px;""></div></div>","null","delaylearn","learning","display_response","6147759141eeb37502a2967d","zH0I3ajmYeQxQBpGY6IH9uuBZWx1","","","","","","","","","","","","","","","","","chosen stimuli: images/choice_trial_13.png","","","",""
"html-keyboard-response","103","211797","0.0-44.0-2.0","","null","","null","delaylearn","learning","feedback_duration_window","6147759141eeb37502a2967d","zH0I3ajmYeQxQBpGY6IH9uuBZWx1","","","","","","","","","","","","","","","","","","750","","",""
"html-keyboard-response","104","213300","0.0-44.0-3.0","","null","<div style='margin:auto;width: auto; font-size: 150%'><span style='font-weight: bold; font-size: 100px; color: red;'>0 points!</span><br><br></div>","null","delaylearn","learning","feedback_image_window","6147759141eeb37502a2967d","zH0I3ajmYeQxQBpGY6IH9uuBZWx1","","","","","","","","","","","","","","","","","","","","",""
"html-keyboard-response","105","215099","0.0-45.0","","null","<div style=""font-size:100px;"">+</div>","null","delaylearn","learning","ITI","6147759141eeb37502a2967d","zH0I3ajmYeQxQBpGY6IH9uuBZWx1","","","","","","","","","","","","","","","","","","","1797","",""
"html-keyboard-response","106","216358","0.0-46.0-0.0","","1256.5","<div style=""display: flex; flex-direction: column; align-items: center; margin-top: -40px;""><img src=""images/pattern_1.png"" style=""width: 234px; height: 230px; margin-top: -50px;""><div style=""display: flex; justify-content: space-between; margin-top: 33px;""><img src=""images/choice_trial_1.png"" style=""width: 408px; height: 417px; margin-right: 200px;""><img src=""images/choice_trial_2.png"" style=""width: 408px; height: 417px;""></div></div>","j","delaylearn","learning","trial","6147759141eeb37502a2967d","zH0I3ajmYeQxQBpGY6IH9uuBZWx1","1","images/choice_trial_1.png","images/choice_trial_2.png","images/pattern_1.png","f","f","7000","1","2","1","0","20","0","0","2","120","","","","",""
"html-keyboard-response","107","217369","0.0-46.0-1.0","","null","<div style=""display: flex; flex-direction: column; align-items: center; margin-top: -40px;""><img src=""images/pattern_1.png"" style=""width: 234px; height: 230px; margin-top: -50px;""><div style=""display: flex; justify-content: space-between; margin-top: 33px;""><img src=""images/choice_trial_2.png"" style=""width: 408px; height: 417px; margin-left:608px;""></div></div>","null","delaylearn","learning","display_response","6147759141eeb37502a2967d","zH0I3ajmYeQxQBpGY6IH9uuBZWx1","","","","","","","","","","","","","","","","","chosen stimuli: images/choice_trial_2.png","","","",""
"html-keyboard-response","108","224373","0.0-46.0-2.0","","null","","null","delaylearn","learning","feedback_duration_window","6147759141eeb37502a2967d","zH0I3ajmYeQxQBpGY6IH9uuBZWx1","","","","","","","","","","","","","","","","","","7000","","",""
"html-keyboard-response","109","225884","0.0-46.0-3.0","","null","<div style='margin:auto;width: auto; font-size: 150%'><span style='font-weight: bold; font-size: 100px; color: red;'>0 points!</span><br><br></div>","null","delaylearn","learning","feedback_image_window","6147759141eeb37502a2967d","zH0I3ajmYeQxQBpGY6IH9uuBZWx1","","","","","","","","","","","","","","","","","","","","",""
"html-keyboard-response","110","227807","0.0-47.0","","null","<div style=""font-size:100px;"">+</div>","null","delaylearn","learning","ITI","6147759141eeb37502a2967d","zH0I3ajmYeQxQBpGY6IH9uuBZWx1","","","","","","","","","","","","","","","","","","","1920","",""
"html-keyboard-response","111","228826","0.0-48.0-0.0","","1016.7999999523163","<div style=""display: flex; flex-direction: column; align-items: center; margin-top: -40px;""><img src=""images/pattern_6.png"" style=""width: 234px; height: 230px; margin-top: -50px;""><div style=""display: flex; justify-content: space-between; margin-top: 33px;""><img src=""images/choice_trial_12.png"" style=""width: 408px; height: 417px; margin-right: 200px;""><img src=""images/choice_trial_11.png"" style=""width: 408px; height: 417px;""></div></div>","j","delaylearn","learning","trial","6147759141eeb37502a2967d","zH0I3ajmYeQxQBpGY6IH9uuBZWx1","1","images/choice_trial_12.png","images/choice_trial_11.png","images/pattern_6.png","j","j","750","12","11","5","1","21","1","1","11","130","","","","",""
"html-keyboard-response","112","229831","0.0-48.0-1.0","","null","<div style=""display: flex; flex-direction: column; align-items: center; margin-top: -40px;""><img src=""images/pattern_6.png"" style=""width: 234px; height: 230px; margin-top: -50px;""><div style=""display: flex; justify-content: space-between; margin-top: 33px;""><img src=""images/choice_trial_11.png"" style=""width: 408px; height: 417px; margin-left:608px;""></div></div>","null","delaylearn","learning","display_response","6147759141eeb37502a2967d","zH0I3ajmYeQxQBpGY6IH9uuBZWx1","","","","","","","","","","","","","","","","","chosen stimuli: images/choice_trial_11.png","","","",""
"html-keyboard-response","113","230597","0.0-48.0-2.0","","null","","null","delaylearn","learning","feedback_duration_window","6147759141eeb37502a2967d","zH0I3ajmYeQxQBpGY6IH9uuBZWx1","","","","","","","","","","","","","","","","","","750","","",""
"html-keyboard-response","114","232100","0.0-48.0-3.0","","null","<div style='margin:auto;width: auto; font-size: 150%'><span style='font-weight: bold; font-size: 100px; color: green;'>+10 points!</span><br><br></div>","null","delaylearn","learning","feedback_image_window","6147759141eeb37502a2967d","zH0I3ajmYeQxQBpGY6IH9uuBZWx1","","","","","","","","","","","","","","","","","","","","",""
"html-keyboard-response","115","233820","0.0-49.0","","null","<div style=""font-size:100px;"">+</div>","null","delaylearn","learning","ITI","6147759141eeb37502a2967d","zH0I3ajmYeQxQBpGY6IH9uuBZWx1","","","","","","","","","","","","","","","","","","","1715","",""
"html-keyboard-response","116","236442","0.0-50.0-0.0","","2619.2000000476837","<div style=""display: flex; flex-direction: column; align-items: center; margin-top: -40px;""><img src=""images/pattern_4.png"" style=""width: 234px; height: 230px; margin-top: -50px;""><div style=""display: flex; justify-content: space-between; margin-top: 33px;""><img src=""images/choice_trial_7.png"" style=""width: 408px; height: 417px; margin-right: 200px;""><img src=""images/choice_trial_8.png"" style=""width: 408px; height: 417px;""></div></div>","f","delaylearn","learning","trial","6147759141eeb37502a2967d","zH0I3ajmYeQxQBpGY6IH9uuBZWx1","1","images/choice_trial_7.png","images/choice_trial_8.png","images/pattern_4.png","f","f","7000","7","8","3","0","22","1","1","7","140","","","","",""
"html-keyboard-response","117","237448","0.0-50.0-1.0","","null","<div style=""display: flex; flex-direction: column; align-items: center; margin-top: -40px;""><img src=""images/pattern_4.png"" style=""width: 234px; height: 230px; margin-top: -50px;""><div style=""display: flex; justify-content: space-between; margin-top: 33px;""><img src=""images/choice_trial_7.png"" style=""width: 408px; height: 417px; margin-right: 608px;""></div></div>","null","delaylearn","learning","display_response","6147759141eeb37502a2967d","zH0I3ajmYeQxQBpGY6IH9uuBZWx1","","","","","","","","","","","","","","","","","chosen stimuli: images/choice_trial_7.png","","","",""
"html-keyboard-response","118","244453","0.0-50.0-2.0","","null","","null","delaylearn","learning","feedback_duration_window","6147759141eeb37502a2967d","zH0I3ajmYeQxQBpGY6IH9uuBZWx1","","","","","","","","","","","","","","","","","","7000","","",""
"html-keyboard-response","119","245966","0.0-50.0-3.0","","null","<div style='margin:auto;width: auto; font-size: 150%'><span style='font-weight: bold; font-size: 100px; color: green;'>+10 points!</span><br><br></div>","null","delaylearn","learning","feedback_image_window","6147759141eeb37502a2967d","zH0I3ajmYeQxQBpGY6IH9uuBZWx1","","","","","","","","","","","","","","","","","","","","",""
"html-keyboard-response","120","246479","0.0-51.0-0.0","","null","","null","","","mood_trial_fixation","","","","","","","","","","","","","","","","","","","","","","",""
"lmdlab-html-vas-response","121","250335","0.0-51.0-1.0","","2846","How happy are you right now?","0.8362268871731229","delaylearn","learning","mood_trial","6147759141eeb37502a2967d","zH0I3ajmYeQxQBpGY6IH9uuBZWx1","","","","","","","","","","","","","","","","","","","","[""Very unhappy"",""Very happy""]",""
"html-keyboard-response","122","252497","0.0-52.0","","null","<div style=""font-size:100px;"">+</div>","null","delaylearn","learning","ITI","6147759141eeb37502a2967d","zH0I3ajmYeQxQBpGY6IH9uuBZWx1","","","","","","","","","","","","","","","","","","","2158","",""
"html-keyboard-response","123","254703","0.0-53.0-0.0","","2202.2000000476837","<div style=""display: flex; flex-direction: column; align-items: center; margin-top: -40px;""><img src=""images/pattern_7.png"" style=""width: 234px; height: 230px; margin-top: -50px;""><div style=""display: flex; justify-content: space-between; margin-top: 33px;""><img src=""images/choice_trial_14.png"" style=""width: 408px; height: 417px; margin-right: 200px;""><img src=""images/choice_trial_13.png"" style=""width: 408px; height: 417px;""></div></div>","j","delaylearn","learning","trial","6147759141eeb37502a2967d","zH0I3ajmYeQxQBpGY6IH9uuBZWx1","1","images/choice_trial_14.png","images/choice_trial_13.png","images/pattern_7.png","j","j","750","14","13","6","1","23","1","1","13","150","","","","",""
"html-keyboard-response","124","255714","0.0-53.0-1.0","","null","<div style=""display: flex; flex-direction: column; align-items: center; margin-top: -40px;""><img src=""images/pattern_7.png"" style=""width: 234px; height: 230px; margin-top: -50px;""><div style=""display: flex; justify-content: space-between; margin-top: 33px;""><img src=""images/choice_trial_13.png"" style=""width: 408px; height: 417px; margin-left:608px;""></div></div>","null","delaylearn","learning","display_response","6147759141eeb37502a2967d","zH0I3ajmYeQxQBpGY6IH9uuBZWx1","","","","","","","","","","","","","","","","","chosen stimuli: images/choice_trial_13.png","","","",""
"html-keyboard-response","125","256478","0.0-53.0-2.0","","null","","null","delaylearn","learning","feedback_duration_window","6147759141eeb37502a2967d","zH0I3ajmYeQxQBpGY6IH9uuBZWx1","","","","","","","","","","","","","","","","","","750","","",""
"html-keyboard-response","126","257982","0.0-53.0-3.0","","null","<div style='margin:auto;width: auto; font-size: 150%'><span style='font-weight: bold; font-size: 100px; color: green;'>+10 points!</span><br><br></div>","null","delaylearn","learning","feedback_image_window","6147759141eeb37502a2967d","zH0I3ajmYeQxQBpGY6IH9uuBZWx1","","","","","","","","","","","","","","","","","","","","",""
"html-keyboard-response","127","260048","0.0-54.0","","null","<div style=""font-size:100px;"">+</div>","null","delaylearn","learning","ITI","6147759141eeb37502a2967d","zH0I3ajmYeQxQBpGY6IH9uuBZWx1","","","","","","","","","","","","","","","","","","","2063","",""
"html-keyboard-response","128","261541","0.0-55.0-0.0","","1489.8999999761581","<div style=""display: flex; flex-direction: column; align-items: center; margin-top: -40px;""><img src=""images/pattern_1.png"" style=""width: 234px; height: 230px; margin-top: -50px;""><div style=""display: flex; justify-content: space-between; margin-top: 33px;""><img src=""images/choice_trial_2.png"" style=""width: 408px; height: 417px; margin-right: 200px;""><img src=""images/choice_trial_1.png"" style=""width: 408px; height: 417px;""></div></div>","f","delaylearn","learning","trial","6147759141eeb37502a2967d","zH0I3ajmYeQxQBpGY6IH9uuBZWx1","1","images/choice_trial_2.png","images/choice_trial_1.png","images/pattern_1.png","f","j","7000","2","1","1","1","24","0","1","2","160","","","","",""
"html-keyboard-response","129","262547","0.0-55.0-1.0","","null","<div style=""display: flex; flex-direction: column; align-items: center; margin-top: -40px;""><img src=""images/pattern_1.png"" style=""width: 234px; height: 230px; margin-top: -50px;""><div style=""display: flex; justify-content: space-between; margin-top: 33px;""><img src=""images/choice_trial_2.png"" style=""width: 408px; height: 417px; margin-right: 608px;""></div></div>","null","delaylearn","learning","display_response","6147759141eeb37502a2967d","zH0I3ajmYeQxQBpGY6IH9uuBZWx1","","","","","","","","","","","","","","","","","chosen stimuli: images/choice_trial_2.png","","","",""
"html-keyboard-response","130","269553","0.0-55.0-2.0","","null","","null","delaylearn","learning","feedback_duration_window","6147759141eeb37502a2967d","zH0I3ajmYeQxQBpGY6IH9uuBZWx1","","","","","","","","","","","","","","","","","","7000","","",""
"html-keyboard-response","131","271065","0.0-55.0-3.0","","null","<div style='margin:auto;width: auto; font-size: 150%'><span style='font-weight: bold; font-size: 100px; color: green;'>+10 points!</span><br><br></div>","null","delaylearn","learning","feedback_image_window","6147759141eeb37502a2967d","zH0I3ajmYeQxQBpGY6IH9uuBZWx1","","","","","","","","","","","","","","","","","","","","",""
"html-keyboard-response","132","273215","0.0-56.0","","null","<div style=""font-size:100px;"">+</div>","null","delaylearn","learning","ITI","6147759141eeb37502a2967d","zH0I3ajmYeQxQBpGY6IH9uuBZWx1","","","","","","","","","","","","","","","","","","","2139","",""
"html-keyboard-response","133","275637","0.0-57.0-0.0","","2419.7000000476837","<div style=""display: flex; flex-direction: column; align-items: center; margin-top: -40px;""><img src=""images/pattern_5.png"" style=""width: 234px; height: 230px; margin-top: -50px;""><div style=""display: flex; justify-content: space-between; margin-top: 33px;""><img src=""images/choice_trial_10.png"" style=""width: 408px; height: 417px; margin-right: 200px;""><img src=""images/choice_trial_9.png"" style=""width: 408px; height: 417px;""></div></div>","j","delaylearn","learning","trial","6147759141eeb37502a2967d","zH0I3ajmYeQxQBpGY6IH9uuBZWx1","1","images/choice_trial_10.png","images/choice_trial_9.png","images/pattern_5.png","j","j","750","10","9","4","1","25","1","1","9","170","","","","",""
"html-keyboard-response","134","276648","0.0-57.0-1.0","","null","<div style=""display: flex; flex-direction: column; align-items: center; margin-top: -40px;""><img src=""images/pattern_5.png"" style=""width: 234px; height: 230px; margin-top: -50px;""><div style=""display: flex; justify-content: space-between; margin-top: 33px;""><img src=""images/choice_trial_9.png"" style=""width: 408px; height: 417px; margin-left:608px;""></div></div>","null","delaylearn","learning","display_response","6147759141eeb37502a2967d","zH0I3ajmYeQxQBpGY6IH9uuBZWx1","","","","","","","","","","","","","","","","","chosen stimuli: images/choice_trial_9.png","","","",""
"html-keyboard-response","135","277411","0.0-57.0-2.0","","null","","null","delaylearn","learning","feedback_duration_window","6147759141eeb37502a2967d","zH0I3ajmYeQxQBpGY6IH9uuBZWx1","","","","","","","","","","","","","","","","","","750","","",""
"html-keyboard-response","136","278915","0.0-57.0-3.0","","null","<div style='margin:auto;width: auto; font-size: 150%'><span style='font-weight: bold; font-size: 100px; color: green;'>+10 points!</span><br><br></div>","null","delaylearn","learning","feedback_image_window","6147759141eeb37502a2967d","zH0I3ajmYeQxQBpGY6IH9uuBZWx1","","","","","","","","","","","","","","","","","","","","",""
"html-keyboard-response","137","280633","0.0-58.0","","null","<div style=""font-size:100px;"">+</div>","null","delaylearn","learning","ITI","6147759141eeb37502a2967d","zH0I3ajmYeQxQBpGY6IH9uuBZWx1","","","","","","","","","","","","","","","","","","","1704","",""
"html-keyboard-response","138","282110","0.0-59.0-0.0","","1473.1000000238419","<div style=""display: flex; flex-direction: column; align-items: center; margin-top: -40px;""><img src=""images/pattern_3.png"" style=""width: 234px; height: 230px; margin-top: -50px;""><div style=""display: flex; justify-content: space-between; margin-top: 33px;""><img src=""images/choice_trial_6.png"" style=""width: 408px; height: 417px; margin-right: 200px;""><img src=""images/choice_trial_5.png"" style=""width: 408px; height: 417px;""></div></div>","j","delaylearn","learning","trial","6147759141eeb37502a2967d","zH0I3ajmYeQxQBpGY6IH9uuBZWx1","1","images/choice_trial_6.png","images/choice_trial_5.png","images/pattern_3.png","j","j","7000","6","5","2","1","26","1","1","5","180","","","","",""
"html-keyboard-response","139","283111","0.0-59.0-1.0","","null","<div style=""display: flex; flex-direction: column; align-items: center; margin-top: -40px;""><img src=""images/pattern_3.png"" style=""width: 234px; height: 230px; margin-top: -50px;""><div style=""display: flex; justify-content: space-between; margin-top: 33px;""><img src=""images/choice_trial_5.png"" style=""width: 408px; height: 417px; margin-left:608px;""></div></div>","null","delaylearn","learning","display_response","6147759141eeb37502a2967d","zH0I3ajmYeQxQBpGY6IH9uuBZWx1","","","","","","","","","","","","","","","","","chosen stimuli: images/choice_trial_5.png","","","",""
"html-keyboard-response","140","290119","0.0-59.0-2.0","","null","","null","delaylearn","learning","feedback_duration_window","6147759141eeb37502a2967d","zH0I3ajmYeQxQBpGY6IH9uuBZWx1","","","","","","","","","","","","","","","","","","7000","","",""
"html-keyboard-response","141","291632","0.0-59.0-3.0","","null","<div style='margin:auto;width: auto; font-size: 150%'><span style='font-weight: bold; font-size: 100px; color: green;'>+10 points!</span><br><br></div>","null","delaylearn","learning","feedback_image_window","6147759141eeb37502a2967d","zH0I3ajmYeQxQBpGY6IH9uuBZWx1","","","","","","","","","","","","","","","","","","","","",""
"lmdlab-html-vas-response","142","298364","0.0-60.0-0.0","","5216","*How <b><u>confident</u></b> are you feeling about your answers at this moment?*","0.6852092742919922","rewlearn","rate_confidence","","6147759141eeb37502a2967d","zH0I3ajmYeQxQBpGY6IH9uuBZWx1","","","","","","","","","","","","","","","","","","","","[""No confidence"",""Complete confidence""]",""
"lmdlab-rest-trial-limit","143","304864","0.0-60.0-1.0","","4996.200000047684","<div style=""font-size:40px;""><b>Please take a break!</b><br><br><br><br><p>Great work: you earned 180 points.<br><br><br><p>You have completed part(s) 1 of 5.<br><br><br><br>When you are ready to continue<br><br><br>please click the button.</p><br><br>","0","delaylearn","learning","break","6147759141eeb37502a2967d","zH0I3ajmYeQxQBpGY6IH9uuBZWx1","","","","","","","","","","","","","","","","","","","","","0"
"html-keyboard-response","144","307871","0.0-60.0-2.0","","null","<div style=""font-size:100px;"">+</div>","null","delaylearn","learning","pre_fixation","6147759141eeb37502a2967d","","","","","","","","","","","","","","","","","","","","","",""
"lmdlab-html-vas-response","145","312224","0.0-60.0-3.0-0.0","","3343","How happy are you right now?","0.7997685538397895","delaylearn","learning","mood_baseline","6147759141eeb37502a2967d","zH0I3ajmYeQxQBpGY6IH9uuBZWx1","","","","","","","","","","","","","","","","","","","","[""Very unhappy"",""Very happy""]",""
"html-keyboard-response","146","313730","0.0-60.0-3.0-1.0","","null","","null","","","mood_baseline_fixation","","","","","","","","","","","","","","","","","","","","","","",""
"html-keyboard-response","147","315515","0.0-61.0","","null","<div style=""font-size:100px;"">+</div>","null","delaylearn","learning","ITI","6147759141eeb37502a2967d","zH0I3ajmYeQxQBpGY6IH9uuBZWx1","","","","","","","","","","","","","","","","","","","1776","",""
"html-keyboard-response","148","316879","0.0-62.0-0.0","","1360.8999999761581","<div style=""display: flex; flex-direction: column; align-items: center; margin-top: -40px;""><img src=""images/pattern_7.png"" style=""width: 234px; height: 230px; margin-top: -50px;""><div style=""display: flex; justify-content: space-between; margin-top: 33px;""><img src=""images/choice_trial_14.png"" style=""width: 408px; height: 417px; margin-right: 200px;""><img src=""images/choice_trial_13.png"" style=""width: 408px; height: 417px;""></div></div>","j","delaylearn","learning","trial","6147759141eeb37502a2967d","zH0I3ajmYeQxQBpGY6IH9uuBZWx1","1","images/choice_trial_14.png","images/choice_trial_13.png","images/pattern_7.png","j","j","750","14","13","6","1","27","1","1","13","190","","","","",""
"html-keyboard-response","149","317894","0.0-62.0-1.0","","null","<div style=""display: flex; flex-direction: column; align-items: center; margin-top: -40px;""><img src=""images/pattern_7.png"" style=""width: 234px; height: 230px; margin-top: -50px;""><div style=""display: flex; justify-content: space-between; margin-top: 33px;""><img src=""images/choice_trial_13.png"" style=""width: 408px; height: 417px; margin-left:608px;""></div></div>","null","delaylearn","learning","display_response","6147759141eeb37502a2967d","zH0I3ajmYeQxQBpGY6IH9uuBZWx1","","","","","","","","","","","","","","","","","chosen stimuli: images/choice_trial_13.png","","","",""
"html-keyboard-response","150","318659","0.0-62.0-2.0","","null","","null","delaylearn","learning","feedback_duration_window","6147759141eeb37502a2967d","zH0I3ajmYeQxQBpGY6IH9uuBZWx1","","","","","","","","","","","","","","","","","","750","","",""
"html-keyboard-response","151","320164","0.0-62.0-3.0","","null","<div style='margin:auto;width: auto; font-size: 150%'><span style='font-weight: bold; font-size: 100px; color: green;'>+10 points!</span><br><br></div>","null","delaylearn","learning","feedback_image_window","6147759141eeb37502a2967d","zH0I3ajmYeQxQBpGY6IH9uuBZWx1","","","","","","","","","","","","","","","","","","","","",""
"html-keyboard-response","152","320675","0.0-63.0-0.0","","null","","null","","","mood_trial_fixation","","","","","","","","","","","","","","","","","","","","","","",""
"lmdlab-html-vas-response","153","324896","0.0-63.0-1.0","","3212","How happy are you right now?","0.8101852205064561","delaylearn","learning","mood_trial","6147759141eeb37502a2967d","zH0I3ajmYeQxQBpGY6IH9uuBZWx1","","","","","","","","","","","","","","","","","","","","[""Very unhappy"",""Very happy""]",""
"html-keyboard-response","154","326585","0.0-64.0","","null","<div style=""font-size:100px;"">+</div>","null","delaylearn","learning","ITI","6147759141eeb37502a2967d","zH0I3ajmYeQxQBpGY6IH9uuBZWx1","","","","","","","","","","","","","","","","","","","1675","",""
"html-keyboard-response","155","328293","0.0-65.0-0.0","","1704.5999999046326","<div style=""display: flex; flex-direction: column; align-items: center; margin-top: -40px;""><img src=""images/pattern_1.png"" style=""width: 234px; height: 230px; margin-top: -50px;""><div style=""display: flex; justify-content: space-between; margin-top: 33px;""><img src=""images/choice_trial_1.png"" style=""width: 408px; height: 417px; margin-right: 200px;""><img src=""images/choice_trial_2.png"" style=""width: 408px; height: 417px;""></div></div>","j","delaylearn","learning","trial","6147759141eeb37502a2967d","zH0I3ajmYeQxQBpGY6IH9uuBZWx1","1","images/choice_trial_1.png","images/choice_trial_2.png","images/pattern_1.png","f","f","7000","1","2","1","0","28","0","0","2","190","","","","",""
"html-keyboard-response","156","329309","0.0-65.0-1.0","","null","<div style=""display: flex; flex-direction: column; align-items: center; margin-top: -40px;""><img src=""images/pattern_1.png"" style=""width: 234px; height: 230px; margin-top: -50px;""><div style=""display: flex; justify-content: space-between; margin-top: 33px;""><img src=""images/choice_trial_2.png"" style=""width: 408px; height: 417px; margin-left:608px;""></div></div>","null","delaylearn","learning","display_response","6147759141eeb37502a2967d","zH0I3ajmYeQxQBpGY6IH9uuBZWx1","","","","","","","","","","","","","","","","","chosen stimuli: images/choice_trial_2.png","","","",""
"html-keyboard-response","157","336314","0.0-65.0-2.0","","null","","null","delaylearn","learning","feedback_duration_window","6147759141eeb37502a2967d","zH0I3ajmYeQxQBpGY6IH9uuBZWx1","","","","","","","","","","","","","","","","","","7000","","",""
"html-keyboard-response","158","337829","0.0-65.0-3.0","","null","<div style='margin:auto;width: auto; font-size: 150%'><span style='font-weight: bold; font-size: 100px; color: red;'>0 points!</span><br><br></div>","null","delaylearn","learning","feedback_image_window","6147759141eeb37502a2967d","zH0I3ajmYeQxQBpGY6IH9uuBZWx1","","","","","","","","","","","","","","","","","","","","",""
"html-keyboard-response","159","339908","0.0-66.0","","null","<div style=""font-size:100px;"">+</div>","null","delaylearn","learning","ITI","6147759141eeb37502a2967d","zH0I3ajmYeQxQBpGY6IH9uuBZWx1","","","","","","","","","","","","","","","","","","","2073","",""
"html-keyboard-response","160","340934","0.0-67.0-0.0","","1022.3999999761581","<div style=""display: flex; flex-direction: column; align-items: center; margin-top: -40px;""><img src=""images/pattern_5.png"" style=""width: 234px; height: 230px; margin-top: -50px;""><div style=""display: flex; justify-content: space-between; margin-top: 33px;""><img src=""images/choice_trial_9.png"" style=""width: 408px; height: 417px; margin-right: 200px;""><img src=""images/choice_trial_10.png"" style=""width: 408px; height: 417px;""></div></div>","f","delaylearn","learning","trial","6147759141eeb37502a2967d","zH0I3ajmYeQxQBpGY6IH9uuBZWx1","1","images/choice_trial_9.png","images/choice_trial_10.png","images/pattern_5.png","f","f","750","9","10","4","0","29","1","1","9","200","","","","",""
"html-keyboard-response","161","341944","0.0-67.0-1.0","","null","<div style=""display: flex; flex-direction: column; align-items: center; margin-top: -40px;""><img src=""images/pattern_5.png"" style=""width: 234px; height: 230px; margin-top: -50px;""><div style=""display: flex; justify-content: space-between; margin-top: 33px;""><img src=""images/choice_trial_9.png"" style=""width: 408px; height: 417px; margin-right: 608px;""></div></div>","null","delaylearn","learning","display_response","6147759141eeb37502a2967d","zH0I3ajmYeQxQBpGY6IH9uuBZWx1","","","","","","","","","","","","","","","","","chosen stimuli: images/choice_trial_9.png","","","",""
"html-keyboard-response","162","342708","0.0-67.0-2.0","","null","","null","delaylearn","learning","feedback_duration_window","6147759141eeb37502a2967d","zH0I3ajmYeQxQBpGY6IH9uuBZWx1","","","","","","","","","","","","","","","","","","750","","",""
"html-keyboard-response","163","344212","0.0-67.0-3.0","","null","<div style='margin:auto;width: auto; font-size: 150%'><span style='font-weight: bold; font-size: 100px; color: green;'>+10 points!</span><br><br></div>","null","delaylearn","learning","feedback_image_window","6147759141eeb37502a2967d","zH0I3ajmYeQxQBpGY6IH9uuBZWx1","","","","","","","","","","","","","","","","","","","","",""
"html-keyboard-response","164","346706","0.0-68.0","","null","<div style=""font-size:100px;"">+</div>","null","delaylearn","learning","ITI","6147759141eeb37502a2967d","zH0I3ajmYeQxQBpGY6IH9uuBZWx1","","","","","","","","","","","","","","","","","","","2483","",""
"html-keyboard-response","165","348502","0.0-69.0-0.0","","1794.1000000238419","<div style=""display: flex; flex-direction: column; align-items: center; margin-top: -40px;""><img src=""images/pattern_6.png"" style=""width: 234px; height: 230px; margin-top: -50px;""><div style=""display: flex; justify-content: space-between; margin-top: 33px;""><img src=""images/choice_trial_12.png"" style=""width: 408px; height: 417px; margin-right: 200px;""><img src=""images/choice_trial_11.png"" style=""width: 408px; height: 417px;""></div></div>","j","delaylearn","learning","trial","6147759141eeb37502a2967d","zH0I3ajmYeQxQBpGY6IH9uuBZWx1","1","images/choice_trial_12.png","images/choice_trial_11.png","images/pattern_6.png","j","j","750","12","11","5","1","30","1","1","11","210","","","","",""
"html-keyboard-response","166","349510","0.0-69.0-1.0","","null","<div style=""display: flex; flex-direction: column; align-items: center; margin-top: -40px;""><img src=""images/pattern_6.png"" style=""width: 234px; height: 230px; margin-top: -50px;""><div style=""display: flex; justify-content: space-between; margin-top: 33px;""><img src=""images/choice_trial_11.png"" style=""width: 408px; height: 417px; margin-left:608px;""></div></div>","null","delaylearn","learning","display_response","6147759141eeb37502a2967d","zH0I3ajmYeQxQBpGY6IH9uuBZWx1","","","","","","","","","","","","","","","","","chosen stimuli: images/choice_trial_11.png","","","",""
"html-keyboard-response","167","350274","0.0-69.0-2.0","","null","","null","delaylearn","learning","feedback_duration_window","6147759141eeb37502a2967d","zH0I3ajmYeQxQBpGY6IH9uuBZWx1","","","","","","","","","","","","","","","","","","750","","",""
"html-keyboard-response","168","351779","0.0-69.0-3.0","","null","<div style='margin:auto;width: auto; font-size: 150%'><span style='font-weight: bold; font-size: 100px; color: green;'>+10 points!</span><br><br></div>","null","delaylearn","learning","feedback_image_window","6147759141eeb37502a2967d","zH0I3ajmYeQxQBpGY6IH9uuBZWx1","","","","","","","","","","","","","","","","","","","","",""
"html-keyboard-response","169","352289","0.0-70.0-0.0","","null","","null","","","mood_trial_fixation","","","","","","","","","","","","","","","","","","","","","","",""
"lmdlab-html-vas-response","170","355969","0.0-70.0-1.0","","2671","How happy are you right now?","0.7494213316175673","delaylearn","learning","mood_trial","6147759141eeb37502a2967d","zH0I3ajmYeQxQBpGY6IH9uuBZWx1","","","","","","","","","","","","","","","","","","","","[""Very unhappy"",""Very happy""]",""
"html-keyboard-response","171","358264","0.0-71.0","","null","<div style=""font-size:100px;"">+</div>","null","delaylearn","learning","ITI","6147759141eeb37502a2967d","zH0I3ajmYeQxQBpGY6IH9uuBZWx1","","","","","","","","","","","","","","","","","","","2293","",""
"html-keyboard-response","172","359677","0.0-72.0-0.0","","1409.7000000476837","<div style=""display: flex; flex-direction: column; align-items: center; margin-top: -40px;""><img src=""images/pattern_4.png"" style=""width: 234px; height: 230px; margin-top: -50px;""><div style=""display: flex; justify-content: space-between; margin-top: 33px;""><img src=""images/choice_trial_8.png"" style=""width: 408px; height: 417px; margin-right: 200px;""><img src=""images/choice_trial_7.png"" style=""width: 408px; height: 417px;""></div></div>","j","delaylearn","learning","trial","6147759141eeb37502a2967d","zH0I3ajmYeQxQBpGY6IH9uuBZWx1","1","images/choice_trial_8.png","images/choice_trial_7.png","images/pattern_4.png","j","j","7000","8","7","3","1","31","1","1","7","220","","","","",""
"html-keyboard-response","173","360690","0.0-72.0-1.0","","null","<div style=""display: flex; flex-direction: column; align-items: center; margin-top: -40px;""><img src=""images/pattern_4.png"" style=""width: 234px; height: 230px; margin-top: -50px;""><div style=""display: flex; justify-content: space-between; margin-top: 33px;""><img src=""images/choice_trial_7.png"" style=""width: 408px; height: 417px; margin-left:608px;""></div></div>","null","delaylearn","learning","display_response","6147759141eeb37502a2967d","zH0I3ajmYeQxQBpGY6IH9uuBZWx1","","","","","","","","","","","","","","","","","chosen stimuli: images/choice_trial_7.png","","","",""
"html-keyboard-response","174","367695","0.0-72.0-2.0","","null","","null","delaylearn","learning","feedback_duration_window","6147759141eeb37502a2967d","zH0I3ajmYeQxQBpGY6IH9uuBZWx1","","","","","","","","","","","","","","","","","","7000","","",""
"html-keyboard-response","175","369211","0.0-72.0-3.0","","null","<div style='margin:auto;width: auto; font-size: 150%'><span style='font-weight: bold; font-size: 100px; color: green;'>+10 points!</span><br><br></div>","null","delaylearn","learning","feedback_image_window","6147759141eeb37502a2967d","zH0I3ajmYeQxQBpGY6IH9uuBZWx1","","","","","","","","","","","","","","","","","","","","",""
"html-keyboard-response","176","371640","0.0-73.0","","null","<div style=""font-size:100px;"">+</div>","null","delaylearn","learning","ITI","6147759141eeb37502a2967d","zH0I3ajmYeQxQBpGY6IH9uuBZWx1","","","","","","","","","","","","","","","","","","","2420","",""
"html-keyboard-response","177","373087","0.0-74.0-0.0","","1443.8999999761581","<div style=""display: flex; flex-direction: column; align-items: center; margin-top: -40px;""><img src=""images/pattern_3.png"" style=""width: 234px; height: 230px; margin-top: -50px;""><div style=""display: flex; justify-content: space-between; margin-top: 33px;""><img src=""images/choice_trial_6.png"" style=""width: 408px; height: 417px; margin-right: 200px;""><img src=""images/choice_trial_5.png"" style=""width: 408px; height: 417px;""></div></div>","j","delaylearn","learning","trial","6147759141eeb37502a2967d","zH0I3ajmYeQxQBpGY6IH9uuBZWx1","1","images/choice_trial_6.png","images/choice_trial_5.png","images/pattern_3.png","j","j","7000","6","5","2","1","32","1","1","5","230","","","","",""
"html-keyboard-response","178","374093","0.0-74.0-1.0","","null","<div style=""display: flex; flex-direction: column; align-items: center; margin-top: -40px;""><img src=""images/pattern_3.png"" style=""width: 234px; height: 230px; margin-top: -50px;""><div style=""display: flex; justify-content: space-between; margin-top: 33px;""><img src=""images/choice_trial_5.png"" style=""width: 408px; height: 417px; margin-left:608px;""></div></div>","null","delaylearn","learning","display_response","6147759141eeb37502a2967d","zH0I3ajmYeQxQBpGY6IH9uuBZWx1","","","","","","","","","","","","","","","","","chosen stimuli: images/choice_trial_5.png","","","",""
"html-keyboard-response","179","381100","0.0-74.0-2.0","","null","","null","delaylearn","learning","feedback_duration_window","6147759141eeb37502a2967d","zH0I3ajmYeQxQBpGY6IH9uuBZWx1","","","","","","","","","","","","","","","","","","7000","","",""
"html-keyboard-response","180","382617","0.0-74.0-3.0","","null","<div style='margin:auto;width: auto; font-size: 150%'><span style='font-weight: bold; font-size: 100px; color: green;'>+10 points!</span><br><br></div>","null","delaylearn","learning","feedback_image_window","6147759141eeb37502a2967d","zH0I3ajmYeQxQBpGY6IH9uuBZWx1","","","","","","","","","","","","","","","","","","","","",""
"html-keyboard-response","181","385027","0.0-75.0","","null","<div style=""font-size:100px;"">+</div>","null","delaylearn","learning","ITI","6147759141eeb37502a2967d","zH0I3ajmYeQxQBpGY6IH9uuBZWx1","","","","","","","","","","","","","","","","","","","2403","",""
"html-keyboard-response","182","386474","0.0-76.0-0.0","","1444.2999999523163","<div style=""display: flex; flex-direction: column; align-items: center; margin-top: -40px;""><img src=""images/pattern_5.png"" style=""width: 234px; height: 230px; margin-top: -50px;""><div style=""display: flex; justify-content: space-between; margin-top: 33px;""><img src=""images/choice_trial_9.png"" style=""width: 408px; height: 417px; margin-right: 200px;""><img src=""images/choice_trial_10.png"" style=""width: 408px; height: 417px;""></div></div>","f","delaylearn","learning","trial","6147759141eeb37502a2967d","zH0I3ajmYeQxQBpGY6IH9uuBZWx1","1","images/choice_trial_9.png","images/choice_trial_10.png","images/pattern_5.png","j","f","750","9","10","4","0","33","1","0","9","230","","","","",""
"html-keyboard-response","183","387484","0.0-76.0-1.0","","null","<div style=""display: flex; flex-direction: column; align-items: center; margin-top: -40px;""><img src=""images/pattern_5.png"" style=""width: 234px; height: 230px; margin-top: -50px;""><div style=""display: flex; justify-content: space-between; margin-top: 33px;""><img src=""images/choice_trial_9.png"" style=""width: 408px; height: 417px; margin-right: 608px;""></div></div>","null","delaylearn","learning","display_response","6147759141eeb37502a2967d","zH0I3ajmYeQxQBpGY6IH9uuBZWx1","","","","","","","","","","","","","","","","","chosen stimuli: images/choice_trial_9.png","","","",""
"html-keyboard-response","184","388247","0.0-76.0-2.0","","null","","null","delaylearn","learning","feedback_duration_window","6147759141eeb37502a2967d","zH0I3ajmYeQxQBpGY6IH9uuBZWx1","","","","","","","","","","","","","","","","","","750","","",""
"html-keyboard-response","185","389763","0.0-76.0-3.0","","null","<div style='margin:auto;width: auto; font-size: 150%'><span style='font-weight: bold; font-size: 100px; color: red;'>0 points!</span><br><br></div>","null","delaylearn","learning","feedback_image_window","6147759141eeb37502a2967d","zH0I3ajmYeQxQBpGY6IH9uuBZWx1","","","","","","","","","","","","","","","","","","","","",""
"html-keyboard-response","186","391434","0.0-77.0","","null","<div style=""font-size:100px;"">+</div>","null","delaylearn","learning","ITI","6147759141eeb37502a2967d","zH0I3ajmYeQxQBpGY6IH9uuBZWx1","","","","","","","","","","","","","","","","","","","1660","",""
"html-keyboard-response","187","392648","0.0-78.0-0.0","","1211.8999999761581","<div style=""display: flex; flex-direction: column; align-items: center; margin-top: -40px;""><img src=""images/pattern_1.png"" style=""width: 234px; height: 230px; margin-top: -50px;""><div style=""display: flex; justify-content: space-between; margin-top: 33px;""><img src=""images/choice_trial_1.png"" style=""width: 408px; height: 417px; margin-right: 200px;""><img src=""images/choice_trial_2.png"" style=""width: 408px; height: 417px;""></div></div>","j","delaylearn","learning","trial","6147759141eeb37502a2967d","zH0I3ajmYeQxQBpGY6IH9uuBZWx1","1","images/choice_trial_1.png","images/choice_trial_2.png","images/pattern_1.png","f","f","7000","1","2","1","0","34","0","0","2","230","","","","",""
"html-keyboard-response","188","393659","0.0-78.0-1.0","","null","<div style=""display: flex; flex-direction: column; align-items: center; margin-top: -40px;""><img src=""images/pattern_1.png"" style=""width: 234px; height: 230px; margin-top: -50px;""><div style=""display: flex; justify-content: space-between; margin-top: 33px;""><img src=""images/choice_trial_2.png"" style=""width: 408px; height: 417px; margin-left:608px;""></div></div>","null","delaylearn","learning","display_response","6147759141eeb37502a2967d","zH0I3ajmYeQxQBpGY6IH9uuBZWx1","","","","","","","","","","","","","","","","","chosen stimuli: images/choice_trial_2.png","","","",""
"html-keyboard-response","189","400664","0.0-78.0-2.0","","null","","null","delaylearn","learning","feedback_duration_window","6147759141eeb37502a2967d","zH0I3ajmYeQxQBpGY6IH9uuBZWx1","","","","","","","","","","","","","","","","","","7000","","",""
"html-keyboard-response","190","402175","0.0-78.0-3.0","","null","<div style='margin:auto;width: auto; font-size: 150%'><span style='font-weight: bold; font-size: 100px; color: red;'>0 points!</span><br><br></div>","null","delaylearn","learning","feedback_image_window","6147759141eeb37502a2967d","zH0I3ajmYeQxQBpGY6IH9uuBZWx1","","","","","","","","","","","","","","","","","","","","",""
"html-keyboard-response","191","402689","0.0-79.0-0.0","","null","","null","","","mood_trial_fixation","","","","","","","","","","","","","","","","","","","","","","",""
"lmdlab-html-vas-response","192","406057","0.0-79.0-1.0","","2359","How happy are you right now?","0.5896991093953451","delaylearn","learning","mood_trial","6147759141eeb37502a2967d","zH0I3ajmYeQxQBpGY6IH9uuBZWx1","","","","","","","","","","","","","","","","","","","","[""Very unhappy"",""Very happy""]",""
"html-keyboard-response","193","407655","0.0-80.0","","null","<div style=""font-size:100px;"">+</div>","null","delaylearn","learning","ITI","6147759141eeb37502a2967d","zH0I3ajmYeQxQBpGY6IH9uuBZWx1","","","","","","","","","","","","","","","","","","","1587","",""
"html-keyboard-response","194","410672","0.0-81.0-0.0","","null","<div style=""display: flex; flex-direction: column; align-items: center; margin-top: -40px;""><img src=""images/pattern_6.png"" style=""width: 234px; height: 230px; margin-top: -50px;""><div style=""display: flex; justify-content: space-between; margin-top: 33px;""><img src=""images/choice_trial_11.png"" style=""width: 408px; height: 417px; margin-right: 200px;""><img src=""images/choice_trial_12.png"" style=""width: 408px; height: 417px;""></div></div>","null","delaylearn","learning","trial","6147759141eeb37502a2967d","zH0I3ajmYeQxQBpGY6IH9uuBZWx1","1","images/choice_trial_11.png","images/choice_trial_12.png","images/pattern_6.png","j","f","750","11","12","5","0","35","0","0","0","230","","","","",""
"html-keyboard-response","195","411679","0.0-81.0-1.0","","null","<div style='font-weight: bold; font-size: 75px; color: red;'>Missed Trial <br><br><br><br> Please respond faster</div>","null","delaylearn","learning","display_response","6147759141eeb37502a2967d","zH0I3ajmYeQxQBpGY6IH9uuBZWx1","","","","","","","","","","","","","","","","","Missed trial","","","",""
"html-keyboard-response","196","411685","0.0-81.0-2.0","","null","","null","delaylearn","learning","feedback_duration_window","6147759141eeb37502a2967d","zH0I3ajmYeQxQBpGY6IH9uuBZWx1","","","","","","","","","","","","","","","","","","0","","",""
"html-keyboard-response","197","411690","0.0-81.0-3.0","","null","","null","delaylearn","learning","feedback_image_window","6147759141eeb37502a2967d","zH0I3ajmYeQxQBpGY6IH9uuBZWx1","","","","","","","","","","","","","","","","","","","","",""
"html-keyboard-response","198","414089","0.0-82.0","","null","<div style=""font-size:100px;"">+</div>","null","delaylearn","learning","ITI","6147759141eeb37502a2967d","zH0I3ajmYeQxQBpGY6IH9uuBZWx1","","","","","","","","","","","","","","","","","","","2383","",""
"html-keyboard-response","199","415121","0.0-83.0-0.0","","1029","<div style=""display: flex; flex-direction: column; align-items: center; margin-top: -40px;""><img src=""images/pattern_3.png"" style=""width: 234px; height: 230px; margin-top: -50px;""><div style=""display: flex; justify-content: space-between; margin-top: 33px;""><img src=""images/choice_trial_6.png"" style=""width: 408px; height: 417px; margin-right: 200px;""><img src=""images/choice_trial_5.png"" style=""width: 408px; height: 417px;""></div></div>","j","delaylearn","learning","trial","6147759141eeb37502a2967d","zH0I3ajmYeQxQBpGY6IH9uuBZWx1","1","images/choice_trial_6.png","images/choice_trial_5.png","images/pattern_3.png","j","j","7000","6","5","2","1","36","1","1","5","240","","","","",""
"html-keyboard-response","200","416126","0.0-83.0-1.0","","null","<div style=""display: flex; flex-direction: column; align-items: center; margin-top: -40px;""><img src=""images/pattern_3.png"" style=""width: 234px; height: 230px; margin-top: -50px;""><div style=""display: flex; justify-content: space-between; margin-top: 33px;""><img src=""images/choice_trial_5.png"" style=""width: 408px; height: 417px; margin-left:608px;""></div></div>","null","delaylearn","learning","display_response","6147759141eeb37502a2967d","zH0I3ajmYeQxQBpGY6IH9uuBZWx1","","","","","","","","","","","","","","","","","chosen stimuli: images/choice_trial_5.png","","","",""
"html-keyboard-response","201","423133","0.0-83.0-2.0","","null","","null","delaylearn","learning","feedback_duration_window","6147759141eeb37502a2967d","zH0I3ajmYeQxQBpGY6IH9uuBZWx1","","","","","","","","","","","","","","","","","","7000","","",""
"html-keyboard-response","202","424641","0.0-83.0-3.0","","null","<div style='margin:auto;width: auto; font-size: 150%'><span style='font-weight: bold; font-size: 100px; color: green;'>+10 points!</span><br><br></div>","null","delaylearn","learning","feedback_image_window","6147759141eeb37502a2967d","zH0I3ajmYeQxQBpGY6IH9uuBZWx1","","","","","","","","","","","","","","","","","","","","",""
"html-keyboard-response","203","426410","0.0-84.0","","null","<div style=""font-size:100px;"">+</div>","null","delaylearn","learning","ITI","6147759141eeb37502a2967d","zH0I3ajmYeQxQBpGY6IH9uuBZWx1","","","","","","","","","","","","","","","","","","","1753","",""
"html-keyboard-response","204","427634","0.0-85.0-0.0","","1220.8999999761581","<div style=""display: flex; flex-direction: column; align-items: center; margin-top: -40px;""><img src=""images/pattern_4.png"" style=""width: 234px; height: 230px; margin-top: -50px;""><div style=""display: flex; justify-content: space-between; margin-top: 33px;""><img src=""images/choice_trial_8.png"" style=""width: 408px; height: 417px; margin-right: 200px;""><img src=""images/choice_trial_7.png"" style=""width: 408px; height: 417px;""></div></div>","j","delaylearn","learning","trial","6147759141eeb37502a2967d","zH0I3ajmYeQxQBpGY6IH9uuBZWx1","1","images/choice_trial_8.png","images/choice_trial_7.png","images/pattern_4.png","f","j","7000","8","7","3","1","37","1","0","7","240","","","","",""
"html-keyboard-response","205","428640","0.0-85.0-1.0","","null","<div style=""display: flex; flex-direction: column; align-items: center; margin-top: -40px;""><img src=""images/pattern_4.png"" style=""width: 234px; height: 230px; margin-top: -50px;""><div style=""display: flex; justify-content: space-between; margin-top: 33px;""><img src=""images/choice_trial_7.png"" style=""width: 408px; height: 417px; margin-left:608px;""></div></div>","null","delaylearn","learning","display_response","6147759141eeb37502a2967d","zH0I3ajmYeQxQBpGY6IH9uuBZWx1","","","","","","","","","","","","","","","","","chosen stimuli: images/choice_trial_7.png","","","",""
"html-keyboard-response","206","435648","0.0-85.0-2.0","","null","","null","delaylearn","learning","feedback_duration_window","6147759141eeb37502a2967d","zH0I3ajmYeQxQBpGY6IH9uuBZWx1","","","","","","","","","","","","","","","","","","7000","","",""
"html-keyboard-response","207","437158","0.0-85.0-3.0","","null","<div style='margin:auto;width: auto; font-size: 150%'><span style='font-weight: bold; font-size: 100px; color: red;'>0 points!</span><br><br></div>","null","delaylearn","learning","feedback_image_window","6147759141eeb37502a2967d","zH0I3ajmYeQxQBpGY6IH9uuBZWx1","","","","","","","","","","","","","","","","","","","","",""
"html-keyboard-response","208","438705","0.0-86.0","","null","<div style=""font-size:100px;"">+</div>","null","delaylearn","learning","ITI","6147759141eeb37502a2967d","zH0I3ajmYeQxQBpGY6IH9uuBZWx1","","","","","","","","","","","","","","","","","","","1533","",""
"html-keyboard-response","209","441721","0.0-87.0-0.0","","null","<div style=""display: flex; flex-direction: column; align-items: center; margin-top: -40px;""><img src=""images/pattern_7.png"" style=""width: 234px; height: 230px; margin-top: -50px;""><div style=""display: flex; justify-content: space-between; margin-top: 33px;""><img src=""images/choice_trial_13.png"" style=""width: 408px; height: 417px; margin-right: 200px;""><img src=""images/choice_trial_14.png"" style=""width: 408px; height: 417px;""></div></div>","null","delaylearn","learning","trial","6147759141eeb37502a2967d","zH0I3ajmYeQxQBpGY6IH9uuBZWx1","1","images/choice_trial_13.png","images/choice_trial_14.png","images/pattern_7.png","f","f","750","13","14","6","0","38","0","0","0","240","","","","",""
"html-keyboard-response","210","442738","0.0-87.0-1.0","","null","<div style='font-weight: bold; font-size: 75px; color: red;'>Missed Trial <br><br><br><br> Please respond faster</div>","null","delaylearn","learning","display_response","6147759141eeb37502a2967d","zH0I3ajmYeQxQBpGY6IH9uuBZWx1","","","","","","","","","","","","","","","","","Missed trial","","","",""
"html-keyboard-response","211","442743","0.0-87.0-2.0","","null","","null","delaylearn","learning","feedback_duration_window","6147759141eeb37502a2967d","zH0I3ajmYeQxQBpGY6IH9uuBZWx1","","","","","","","","","","","","","","","","","","0","","",""
"html-keyboard-response","212","442749","0.0-87.0-3.0","","null","","null","delaylearn","learning","feedback_image_window","6147759141eeb37502a2967d","zH0I3ajmYeQxQBpGY6IH9uuBZWx1","","","","","","","","","","","","","","","","","","","","",""
"html-keyboard-response","213","444696","0.0-88.0","","null","<div style=""font-size:100px;"">+</div>","null","delaylearn","learning","ITI","6147759141eeb37502a2967d","zH0I3ajmYeQxQBpGY6IH9uuBZWx1","","","","","","","","","","","","","","","","","","","1945","",""
"html-keyboard-response","214","445698","0.0-89.0-0.0","","997.1999999284744","<div style=""display: flex; flex-direction: column; align-items: center; margin-top: -40px;""><img src=""images/pattern_1.png"" style=""width: 234px; height: 230px; margin-top: -50px;""><div style=""display: flex; justify-content: space-between; margin-top: 33px;""><img src=""images/choice_trial_1.png"" style=""width: 408px; height: 417px; margin-right: 200px;""><img src=""images/choice_trial_2.png"" style=""width: 408px; height: 417px;""></div></div>","j","delaylearn","learning","trial","6147759141eeb37502a2967d","zH0I3ajmYeQxQBpGY6IH9uuBZWx1","1","images/choice_trial_1.png","images/choice_trial_2.png","images/pattern_1.png","f","f","7000","1","2","1","0","39","0","0","2","240","","","","",""
"html-keyboard-response","215","446705","0.0-89.0-1.0","","null","<div style=""display: flex; flex-direction: column; align-items: center; margin-top: -40px;""><img src=""images/pattern_1.png"" style=""width: 234px; height: 230px; margin-top: -50px;""><div style=""display: flex; justify-content: space-between; margin-top: 33px;""><img src=""images/choice_trial_2.png"" style=""width: 408px; height: 417px; margin-left:608px;""></div></div>","null","delaylearn","learning","display_response","6147759141eeb37502a2967d","zH0I3ajmYeQxQBpGY6IH9uuBZWx1","","","","","","","","","","","","","","","","","chosen stimuli: images/choice_trial_2.png","","","",""
"html-keyboard-response","216","453712","0.0-89.0-2.0","","null","","null","delaylearn","learning","feedback_duration_window","6147759141eeb37502a2967d","zH0I3ajmYeQxQBpGY6IH9uuBZWx1","","","","","","","","","","","","","","","","","","7000","","",""
"html-keyboard-response","217","455228","0.0-89.0-3.0","","null","<div style='margin:auto;width: auto; font-size: 150%'><span style='font-weight: bold; font-size: 100px; color: red;'>0 points!</span><br><br></div>","null","delaylearn","learning","feedback_image_window","6147759141eeb37502a2967d","zH0I3ajmYeQxQBpGY6IH9uuBZWx1","","","","","","","","","","","","","","","","","","","","",""
"html-keyboard-response","218","455735","0.0-90.0-0.0","","null","","null","","","mood_trial_fixation","","","","","","","","","","","","","","","","","","","","","","",""
"lmdlab-html-vas-response","219","459114","0.0-90.0-1.0","","2369","How happy are you right now?","0.6296296649509006","delaylearn","learning","mood_trial","6147759141eeb37502a2967d","zH0I3ajmYeQxQBpGY6IH9uuBZWx1","","","","","","","","","","","","","","","","","","","","[""Very unhappy"",""Very happy""]",""
"html-keyboard-response","220","460844","0.0-91.0","","null","<div style=""font-size:100px;"">+</div>","null","delaylearn","learning","ITI","6147759141eeb37502a2967d","zH0I3ajmYeQxQBpGY6IH9uuBZWx1","","","","","","","","","","","","","","","","","","","1720","",""
"html-keyboard-response","221","461998","0.0-92.0-0.0","","1151.2999999523163","<div style=""display: flex; flex-direction: column; align-items: center; margin-top: -40px;""><img src=""images/pattern_3.png"" style=""width: 234px; height: 230px; margin-top: -50px;""><div style=""display: flex; justify-content: space-between; margin-top: 33px;""><img src=""images/choice_trial_5.png"" style=""width: 408px; height: 417px; margin-right: 200px;""><img src=""images/choice_trial_6.png"" style=""width: 408px; height: 417px;""></div></div>","f","delaylearn","learning","trial","6147759141eeb37502a2967d","zH0I3ajmYeQxQBpGY6IH9uuBZWx1","1","images/choice_trial_5.png","images/choice_trial_6.png","images/pattern_3.png","j","f","7000","5","6","2","0","40","1","0","5","240","","","","",""
