"trial_type","trial_index","time_elapsed","internal_node_id","participant","rt","stimulus","response","exp_name","exp_stage","test_part","subjectID","databaseID","counterbal","choice_stimuli_1","choice_stimuli_2","pattern_stimuli","rewarded_answer","correct_answer","feedback_duration_times","stim_left","stim_right","pair","leftright_counter","trial","response_correct","response_rewarded","chosen_stim","counter","displayed_choice","feedback_durations","ITI_duration","labels","rest_warning"
"pavlovia","0","602","0.0-0.0","","","","","","","","","","","","","","","","","","","","","","","","","","","","","",""
"html-keyboard-response","1","3615","0.0-1.0","","null","<div style=""font-size:100px;"">+</div>","null","delaylearn","learning","pre_fixation","65980b9029b10879b38af54b","","","","","","","","","","","","","","","","","","","","","",""
"html-keyboard-response","2","4502","0.0-2.0-0.0","","886.2000000029802","<div style=""display: flex; flex-direction: column; align-items: center; margin-top: -40px;""><img src=""images/demo_images/pattern_1.png"" style=""width: 234px; height: 230px; margin-top: -50px;""><div style=""display: flex; justify-content: space-between; margin-top: 33px;""><img src=""images/demo_images/choice_trial_2.png"" style=""width: 408px; height: 417px; margin-right: 200px;""><img src=""images/demo_images/choice_trial_1.png"" style=""width: 408px; height: 417px;""></div></div>","f","delaylearn","learning","trial","65980b9029b10879b38af54b","TsVsfTKS0CN8X6WJsRXE6px9VXF3","4","images/demo_images/choice_trial_2.png","images/demo_images/choice_trial_1.png","images/demo_images/pattern_1.png","j","j","3000","2","1","20","1","1","0","0","2","0","","","","",""
"html-keyboard-response","3","5518","0.0-2.0-1.0","","null","<div style=""display: flex; flex-direction: column; align-items: center; margin-top: -40px;""><img src=""images/demo_images/pattern_1.png"" style=""width: 234px; height: 230px; margin-top: -50px;""><div style=""display: flex; justify-content: space-between; margin-top: 33px;""><img src=""images/demo_images/choice_trial_2.png"" style=""width: 408px; height: 417px; margin-right: 608px;""></div></div>","null","delaylearn","learning","display_response","65980b9029b10879b38af54b","TsVsfTKS0CN8X6WJsRXE6px9VXF3","","","","","","","","","","","","","","","","","chosen stimuli: images/demo_images/choice_trial_2.png","","","",""
"html-keyboard-response","4","8529","0.0-2.0-2.0","","null","","null","delaylearn","learning","feedback_duration_window","65980b9029b10879b38af54b","TsVsfTKS0CN8X6WJsRXE6px9VXF3","","","","","","","","","","","","","","","","","","3000","","",""
"html-keyboard-response","5","10031","0.0-2.0-3.0","","null","<div style='margin:auto;width: auto; font-size: 150%'><span style='font-weight: bold; font-size: 100px; color: red;'>0 points!</span><br><br></div>","null","delaylearn","learning","feedback_image_window","65980b9029b10879b38af54b","TsVsfTKS0CN8X6WJsRXE6px9VXF3","","","","","","","","","","","","","","","","","","","","",""
"html-keyboard-response","6","11672","0.0-3.0","","null","<div style=""font-size:100px;"">+</div>","null","delaylearn","learning","ITI","65980b9029b10879b38af54b","TsVsfTKS0CN8X6WJsRXE6px9VXF3","","","","","","","","","","","","","","","","","","","1628","",""
"html-keyboard-response","7","12349","0.0-4.0-0.0","","676.3999999910593","<div style=""display: flex; flex-direction: column; align-items: center; margin-top: -40px;""><img src=""images/demo_images/pattern_1.png"" style=""width: 234px; height: 230px; margin-top: -50px;""><div style=""display: flex; justify-content: space-between; margin-top: 33px;""><img src=""images/demo_images/choice_trial_2.png"" style=""width: 408px; height: 417px; margin-right: 200px;""><img src=""images/demo_images/choice_trial_1.png"" style=""width: 408px; height: 417px;""></div></div>","j","delaylearn","learning","trial","65980b9029b10879b38af54b","TsVsfTKS0CN8X6WJsRXE6px9VXF3","4","images/demo_images/choice_trial_2.png","images/demo_images/choice_trial_1.png","images/demo_images/pattern_1.png","j","j","3000","2","1","20","1","2","1","1","1","10","","","","",""
"html-keyboard-response","8","13356","0.0-4.0-1.0","","null","<div style=""display: flex; flex-direction: column; align-items: center; margin-top: -40px;""><img src=""images/demo_images/pattern_1.png"" style=""width: 234px; height: 230px; margin-top: -50px;""><div style=""display: flex; justify-content: space-between; margin-top: 33px;""><img src=""images/demo_images/choice_trial_1.png"" style=""width: 408px; height: 417px; margin-left:608px;""></div></div>","null","delaylearn","learning","display_response","65980b9029b10879b38af54b","TsVsfTKS0CN8X6WJsRXE6px9VXF3","","","","","","","","","","","","","","","","","chosen stimuli: images/demo_images/choice_trial_1.png","","","",""
"html-keyboard-response","9","16359","0.0-4.0-2.0","","null","","null","delaylearn","learning","feedback_duration_window","65980b9029b10879b38af54b","TsVsfTKS0CN8X6WJsRXE6px9VXF3","","","","","","","","","","","","","","","","","","3000","","",""
"html-keyboard-response","10","17865","0.0-4.0-3.0","","null","<div style='margin:auto;width: auto; font-size: 150%'><span style='font-weight: bold; font-size: 100px; color: green;'>+10 points!</span><br><br></div>","null","delaylearn","learning","feedback_image_window","65980b9029b10879b38af54b","TsVsfTKS0CN8X6WJsRXE6px9VXF3","","","","","","","","","","","","","","","","","","","","",""
"html-keyboard-response","11","20367","0.0-5.0","","null","<div style=""font-size:100px;"">+</div>","null","delaylearn","learning","ITI","65980b9029b10879b38af54b","TsVsfTKS0CN8X6WJsRXE6px9VXF3","","","","","","","","","","","","","","","","","","","2499","",""
"html-keyboard-response","12","22920","0.0-6.0-0.0","","2552.2999999970198","<div style=""display: flex; flex-direction: column; align-items: center; margin-top: -40px;""><img src=""images/demo_images/pattern_1.png"" style=""width: 234px; height: 230px; margin-top: -50px;""><div style=""display: flex; justify-content: space-between; margin-top: 33px;""><img src=""images/demo_images/choice_trial_1.png"" style=""width: 408px; height: 417px; margin-right: 200px;""><img src=""images/demo_images/choice_trial_2.png"" style=""width: 408px; height: 417px;""></div></div>","f","delaylearn","learning","trial","65980b9029b10879b38af54b","TsVsfTKS0CN8X6WJsRXE6px9VXF3","4","images/demo_images/choice_trial_1.png","images/demo_images/choice_trial_2.png","images/demo_images/pattern_1.png","j","f","3000","1","2","20","0","3","1","0","1","10","","","","",""
"html-keyboard-response","13","23932","0.0-6.0-1.0","","null","<div style=""display: flex; flex-direction: column; align-items: center; margin-top: -40px;""><img src=""images/demo_images/pattern_1.png"" style=""width: 234px; height: 230px; margin-top: -50px;""><div style=""display: flex; justify-content: space-between; margin-top: 33px;""><img src=""images/demo_images/choice_trial_1.png"" style=""width: 408px; height: 417px; margin-right: 608px;""></div></div>","null","delaylearn","learning","display_response","65980b9029b10879b38af54b","TsVsfTKS0CN8X6WJsRXE6px9VXF3","","","","","","","","","","","","","","","","","chosen stimuli: images/demo_images/choice_trial_1.png","","","",""
"html-keyboard-response","14","26947","0.0-6.0-2.0","","null","","null","delaylearn","learning","feedback_duration_window","65980b9029b10879b38af54b","TsVsfTKS0CN8X6WJsRXE6px9VXF3","","","","","","","","","","","","","","","","","","3000","","",""
"html-keyboard-response","15","28468","0.0-6.0-3.0","","null","<div style='margin:auto;width: auto; font-size: 150%'><span style='font-weight: bold; font-size: 100px; color: red;'>0 points!</span><br><br></div>","null","delaylearn","learning","feedback_image_window","65980b9029b10879b38af54b","TsVsfTKS0CN8X6WJsRXE6px9VXF3","","","","","","","","","","","","","","","","","","","","",""
"html-keyboard-response","16","30970","0.0-7.0","","null","<div style=""font-size:100px;"">+</div>","null","delaylearn","learning","ITI","65980b9029b10879b38af54b","TsVsfTKS0CN8X6WJsRXE6px9VXF3","","","","","","","","","","","","","","","","","","","2486","",""
"html-keyboard-response","17","32580","0.0-8.0-0.0","","1607.7000000029802","<div style=""display: flex; flex-direction: column; align-items: center; margin-top: -40px;""><img src=""images/demo_images/pattern_1.png"" style=""width: 234px; height: 230px; margin-top: -50px;""><div style=""display: flex; justify-content: space-between; margin-top: 33px;""><img src=""images/demo_images/choice_trial_1.png"" style=""width: 408px; height: 417px; margin-right: 200px;""><img src=""images/demo_images/choice_trial_2.png"" style=""width: 408px; height: 417px;""></div></div>","j","delaylearn","learning","trial","65980b9029b10879b38af54b","TsVsfTKS0CN8X6WJsRXE6px9VXF3","4","images/demo_images/choice_trial_1.png","images/demo_images/choice_trial_2.png","images/demo_images/pattern_1.png","f","f","3000","1","2","20","0","4","0","0","2","10","","","","",""
"html-keyboard-response","18","33594","0.0-8.0-1.0","","null","<div style=""display: flex; flex-direction: column; align-items: center; margin-top: -40px;""><img src=""images/demo_images/pattern_1.png"" style=""width: 234px; height: 230px; margin-top: -50px;""><div style=""display: flex; justify-content: space-between; margin-top: 33px;""><img src=""images/demo_images/choice_trial_2.png"" style=""width: 408px; height: 417px; margin-left:608px;""></div></div>","null","delaylearn","learning","display_response","65980b9029b10879b38af54b","TsVsfTKS0CN8X6WJsRXE6px9VXF3","","","","","","","","","","","","","","","","","chosen stimuli: images/demo_images/choice_trial_2.png","","","",""
"html-keyboard-response","19","36608","0.0-8.0-2.0","","null","","null","delaylearn","learning","feedback_duration_window","65980b9029b10879b38af54b","TsVsfTKS0CN8X6WJsRXE6px9VXF3","","","","","","","","","","","","","","","","","","3000","","",""
"html-keyboard-response","20","38112","0.0-8.0-3.0","","null","<div style='margin:auto;width: auto; font-size: 150%'><span style='font-weight: bold; font-size: 100px; color: red;'>0 points!</span><br><br></div>","null","delaylearn","learning","feedback_image_window","65980b9029b10879b38af54b","TsVsfTKS0CN8X6WJsRXE6px9VXF3","","","","","","","","","","","","","","","","","","","","",""
"html-keyboard-response","21","38613","0.0-9.0-0.0","","null","","null","","","mood_trial_fixation","","","","","","","","","","","","","","","","","","","","","","",""
"lmdlab-html-vas-response","22","42545","0.0-9.0-1.0","","2911","How happy are you right now?","0.26851851851851855","delaylearn","learning","mood_trial","65980b9029b10879b38af54b","TsVsfTKS0CN8X6WJsRXE6px9VXF3","","","","","","","","","","","","","","","","","","","","[""Very unhappy"",""Very happy""]",""
"html-keyboard-response","23","44405","0.0-10.0","","null","<div style=""font-size:100px;"">+</div>","null","delaylearn","learning","ITI","65980b9029b10879b38af54b","TsVsfTKS0CN8X6WJsRXE6px9VXF3","","","","","","","","","","","","","","","","","","","1852","",""
"html-keyboard-response","24","45802","0.0-11.0-0.0","","1396.5","<div style=""display: flex; flex-direction: column; align-items: center; margin-top: -40px;""><img src=""images/demo_images/pattern_1.png"" style=""width: 234px; height: 230px; margin-top: -50px;""><div style=""display: flex; justify-content: space-between; margin-top: 33px;""><img src=""images/demo_images/choice_trial_2.png"" style=""width: 408px; height: 417px; margin-right: 200px;""><img src=""images/demo_images/choice_trial_1.png"" style=""width: 408px; height: 417px;""></div></div>","j","delaylearn","learning","trial","65980b9029b10879b38af54b","TsVsfTKS0CN8X6WJsRXE6px9VXF3","4","images/demo_images/choice_trial_2.png","images/demo_images/choice_trial_1.png","images/demo_images/pattern_1.png","j","j","3000","2","1","20","1","5","1","1","1","20","","","","",""
"html-keyboard-response","25","46816","0.0-11.0-1.0","","null","<div style=""display: flex; flex-direction: column; align-items: center; margin-top: -40px;""><img src=""images/demo_images/pattern_1.png"" style=""width: 234px; height: 230px; margin-top: -50px;""><div style=""display: flex; justify-content: space-between; margin-top: 33px;""><img src=""images/demo_images/choice_trial_1.png"" style=""width: 408px; height: 417px; margin-left:608px;""></div></div>","null","delaylearn","learning","display_response","65980b9029b10879b38af54b","TsVsfTKS0CN8X6WJsRXE6px9VXF3","","","","","","","","","","","","","","","","","chosen stimuli: images/demo_images/choice_trial_1.png","","","",""
"html-keyboard-response","26","49831","0.0-11.0-2.0","","null","","null","delaylearn","learning","feedback_duration_window","65980b9029b10879b38af54b","TsVsfTKS0CN8X6WJsRXE6px9VXF3","","","","","","","","","","","","","","","","","","3000","","",""
"html-keyboard-response","27","51346","0.0-11.0-3.0","","null","<div style='margin:auto;width: auto; font-size: 150%'><span style='font-weight: bold; font-size: 100px; color: green;'>+10 points!</span><br><br></div>","null","delaylearn","learning","feedback_image_window","65980b9029b10879b38af54b","TsVsfTKS0CN8X6WJsRXE6px9VXF3","","","","","","","","","","","","","","","","","","","","",""
"html-keyboard-response","28","53587","0.0-12.0","","null","<div style=""font-size:100px;"">+</div>","null","delaylearn","learning","ITI","65980b9029b10879b38af54b","TsVsfTKS0CN8X6WJsRXE6px9VXF3","","","","","","","","","","","","","","","","","","","2230","",""
"html-keyboard-response","29","54932","0.0-13.0-0.0","","1343.7000000029802","<div style=""display: flex; flex-direction: column; align-items: center; margin-top: -40px;""><img src=""images/demo_images/pattern_1.png"" style=""width: 234px; height: 230px; margin-top: -50px;""><div style=""display: flex; justify-content: space-between; margin-top: 33px;""><img src=""images/demo_images/choice_trial_1.png"" style=""width: 408px; height: 417px; margin-right: 200px;""><img src=""images/demo_images/choice_trial_2.png"" style=""width: 408px; height: 417px;""></div></div>","f","delaylearn","learning","trial","65980b9029b10879b38af54b","TsVsfTKS0CN8X6WJsRXE6px9VXF3","4","images/demo_images/choice_trial_1.png","images/demo_images/choice_trial_2.png","images/demo_images/pattern_1.png","f","f","3000","1","2","20","0","6","1","1","1","30","","","","",""
"html-keyboard-response","30","55938","0.0-13.0-1.0","","null","<div style=""display: flex; flex-direction: column; align-items: center; margin-top: -40px;""><img src=""images/demo_images/pattern_1.png"" style=""width: 234px; height: 230px; margin-top: -50px;""><div style=""display: flex; justify-content: space-between; margin-top: 33px;""><img src=""images/demo_images/choice_trial_1.png"" style=""width: 408px; height: 417px; margin-right: 608px;""></div></div>","null","delaylearn","learning","display_response","65980b9029b10879b38af54b","TsVsfTKS0CN8X6WJsRXE6px9VXF3","","","","","","","","","","","","","","","","","chosen stimuli: images/demo_images/choice_trial_1.png","","","",""
"html-keyboard-response","31","58941","0.0-13.0-2.0","","null","","null","delaylearn","learning","feedback_duration_window","65980b9029b10879b38af54b","TsVsfTKS0CN8X6WJsRXE6px9VXF3","","","","","","","","","","","","","","","","","","3000","","",""
"html-keyboard-response","32","60443","0.0-13.0-3.0","","null","<div style='margin:auto;width: auto; font-size: 150%'><span style='font-weight: bold; font-size: 100px; color: green;'>+10 points!</span><br><br></div>","null","delaylearn","learning","feedback_image_window","65980b9029b10879b38af54b","TsVsfTKS0CN8X6WJsRXE6px9VXF3","","","","","","","","","","","","","","","","","","","","",""
"html-keyboard-response","33","62234","0.0-14.0","","null","<div style=""font-size:100px;"">+</div>","null","delaylearn","learning","ITI","65980b9029b10879b38af54b","TsVsfTKS0CN8X6WJsRXE6px9VXF3","","","","","","","","","","","","","","","","","","","1788","",""
"html-keyboard-response","34","63483","0.0-15.0-0.0","","1247.1000000089407","<div style=""display: flex; flex-direction: column; align-items: center; margin-top: -40px;""><img src=""images/demo_images/pattern_1.png"" style=""width: 234px; height: 230px; margin-top: -50px;""><div style=""display: flex; justify-content: space-between; margin-top: 33px;""><img src=""images/demo_images/choice_trial_2.png"" style=""width: 408px; height: 417px; margin-right: 200px;""><img src=""images/demo_images/choice_trial_1.png"" style=""width: 408px; height: 417px;""></div></div>","j","delaylearn","learning","trial","65980b9029b10879b38af54b","TsVsfTKS0CN8X6WJsRXE6px9VXF3","4","images/demo_images/choice_trial_2.png","images/demo_images/choice_trial_1.png","images/demo_images/pattern_1.png","j","j","3000","2","1","20","1","7","1","1","1","40","","","","",""
"html-keyboard-response","35","64489","0.0-15.0-1.0","","null","<div style=""display: flex; flex-direction: column; align-items: center; margin-top: -40px;""><img src=""images/demo_images/pattern_1.png"" style=""width: 234px; height: 230px; margin-top: -50px;""><div style=""display: flex; justify-content: space-between; margin-top: 33px;""><img src=""images/demo_images/choice_trial_1.png"" style=""width: 408px; height: 417px; margin-left:608px;""></div></div>","null","delaylearn","learning","display_response","65980b9029b10879b38af54b","TsVsfTKS0CN8X6WJsRXE6px9VXF3","","","","","","","","","","","","","","","","","chosen stimuli: images/demo_images/choice_trial_1.png","","","",""
"html-keyboard-response","36","67494","0.0-15.0-2.0","","null","","null","delaylearn","learning","feedback_duration_window","65980b9029b10879b38af54b","TsVsfTKS0CN8X6WJsRXE6px9VXF3","","","","","","","","","","","","","","","","","","3000","","",""
"html-keyboard-response","37","69011","0.0-15.0-3.0","","null","<div style='margin:auto;width: auto; font-size: 150%'><span style='font-weight: bold; font-size: 100px; color: green;'>+10 points!</span><br><br></div>","null","delaylearn","learning","feedback_image_window","65980b9029b10879b38af54b","TsVsfTKS0CN8X6WJsRXE6px9VXF3","","","","","","","","","","","","","","","","","","","","",""
"html-keyboard-response","38","70612","0.0-16.0","","null","<div style=""font-size:100px;"">+</div>","null","delaylearn","learning","ITI","65980b9029b10879b38af54b","TsVsfTKS0CN8X6WJsRXE6px9VXF3","","","","","","","","","","","","","","","","","","","1590","",""
"html-keyboard-response","39","71624","0.0-17.0-0.0","","1010.5999999940395","<div style=""display: flex; flex-direction: column; align-items: center; margin-top: -40px;""><img src=""images/demo_images/pattern_1.png"" style=""width: 234px; height: 230px; margin-top: -50px;""><div style=""display: flex; justify-content: space-between; margin-top: 33px;""><img src=""images/demo_images/choice_trial_1.png"" style=""width: 408px; height: 417px; margin-right: 200px;""><img src=""images/demo_images/choice_trial_2.png"" style=""width: 408px; height: 417px;""></div></div>","f","delaylearn","learning","trial","65980b9029b10879b38af54b","TsVsfTKS0CN8X6WJsRXE6px9VXF3","4","images/demo_images/choice_trial_1.png","images/demo_images/choice_trial_2.png","images/demo_images/pattern_1.png","f","f","3000","1","2","20","0","8","1","1","1","50","","","","",""
"html-keyboard-response","40","72629","0.0-17.0-1.0","","null","<div style=""display: flex; flex-direction: column; align-items: center; margin-top: -40px;""><img src=""images/demo_images/pattern_1.png"" style=""width: 234px; height: 230px; margin-top: -50px;""><div style=""display: flex; justify-content: space-between; margin-top: 33px;""><img src=""images/demo_images/choice_trial_1.png"" style=""width: 408px; height: 417px; margin-right: 608px;""></div></div>","null","delaylearn","learning","display_response","65980b9029b10879b38af54b","TsVsfTKS0CN8X6WJsRXE6px9VXF3","","","","","","","","","","","","","","","","","chosen stimuli: images/demo_images/choice_trial_1.png","","","",""
"html-keyboard-response","41","75642","0.0-17.0-2.0","","null","","null","delaylearn","learning","feedback_duration_window","65980b9029b10879b38af54b","TsVsfTKS0CN8X6WJsRXE6px9VXF3","","","","","","","","","","","","","","","","","","3000","","",""
"html-keyboard-response","42","77148","0.0-17.0-3.0","","null","<div style='margin:auto;width: auto; font-size: 150%'><span style='font-weight: bold; font-size: 100px; color: green;'>+10 points!</span><br><br></div>","null","delaylearn","learning","feedback_image_window","65980b9029b10879b38af54b","TsVsfTKS0CN8X6WJsRXE6px9VXF3","","","","","","","","","","","","","","","","","","","","",""
"html-button-response","43","79761","0.0-18.0","","2611.199999988079","
  <div style=""display: flex; align-items: center; justify-content: center; height: 80vh;"">
  <div>
          <img src=""images/inst_demo_finish.png"" style=""width: 80vw; height:auto;"">
          <br><br>
      </div>
      <br><br>
  </div>","0","","","","","","","","","","","","","","","","","","","","","","","","","",""
"html-keyboard-response","44","83186","0.0-19.0","","3424.8999999910593","
  <div style=""display: flex; align-items: center; justify-content: center; height: 80vh;"">
  <div>
          <img src=""images/inst_6.png"" style=""width: 80vw; height:auto;"">
          <br><br>
      </div>
      <br><br>
  </div>","j","","","","","","","","","","","","","","","","","","","","","","","","","",""
"html-keyboard-response","45","86196","0.0-20.0","","null","<div style=""font-size:100px;"">+</div>","null","delaylearn","learning","pre_fixation","65980b9029b10879b38af54b","","","","","","","","","","","","","","","","","","","","","",""
"html-keyboard-response","46","88235","0.0-21.0","","null","<div style=""font-size:100px;"">+</div>","null","delaylearn","learning","ITI","65980b9029b10879b38af54b","TsVsfTKS0CN8X6WJsRXE6px9VXF3","","","","","","","","","","","","","","","","","","","2030","",""
"html-keyboard-response","47","89210","0.0-22.0-0.0","","973","<div style=""display: flex; flex-direction: column; align-items: center; margin-top: -40px;""><img src=""images/pattern_3.png"" style=""width: 234px; height: 230px; margin-top: -50px;""><div style=""display: flex; justify-content: space-between; margin-top: 33px;""><img src=""images/choice_trial_16.png"" style=""width: 408px; height: 417px; margin-right: 200px;""><img src=""images/choice_trial_6.png"" style=""width: 408px; height: 417px;""></div></div>","f","delaylearn","learning","trial","65980b9029b10879b38af54b","TsVsfTKS0CN8X6WJsRXE6px9VXF3","4","images/choice_trial_16.png","images/choice_trial_6.png","images/pattern_3.png","f","f","7000","16","6","2","0","9","1","1","16","60","","","","",""
"html-keyboard-response","48","90224","0.0-22.0-1.0","","null","<div style=""display: flex; flex-direction: column; align-items: center; margin-top: -40px;""><img src=""images/pattern_3.png"" style=""width: 234px; height: 230px; margin-top: -50px;""><div style=""display: flex; justify-content: space-between; margin-top: 33px;""><img src=""images/choice_trial_16.png"" style=""width: 408px; height: 417px; margin-right: 608px;""></div></div>","null","delaylearn","learning","display_response","65980b9029b10879b38af54b","TsVsfTKS0CN8X6WJsRXE6px9VXF3","","","","","","","","","","","","","","","","","chosen stimuli: images/choice_trial_16.png","","","",""
"html-keyboard-response","49","97240","0.0-22.0-2.0","","null","","null","delaylearn","learning","feedback_duration_window","65980b9029b10879b38af54b","TsVsfTKS0CN8X6WJsRXE6px9VXF3","","","","","","","","","","","","","","","","","","7000","","",""
"html-keyboard-response","50","98742","0.0-22.0-3.0","","null","<div style='margin:auto;width: auto; font-size: 150%'><span style='font-weight: bold; font-size: 100px; color: green;'>+10 points!</span><br><br></div>","null","delaylearn","learning","feedback_image_window","65980b9029b10879b38af54b","TsVsfTKS0CN8X6WJsRXE6px9VXF3","","","","","","","","","","","","","","","","","","","","",""
"html-keyboard-response","51","100498","0.0-23.0","","null","<div style=""font-size:100px;"">+</div>","null","delaylearn","learning","ITI","65980b9029b10879b38af54b","TsVsfTKS0CN8X6WJsRXE6px9VXF3","","","","","","","","","","","","","","","","","","","1748","",""
"html-keyboard-response","52","102125","0.0-24.0-0.0","","1626.7999999970198","<div style=""display: flex; flex-direction: column; align-items: center; margin-top: -40px;""><img src=""images/pattern_7.png"" style=""width: 234px; height: 230px; margin-top: -50px;""><div style=""display: flex; justify-content: space-between; margin-top: 33px;""><img src=""images/choice_trial_4.png"" style=""width: 408px; height: 417px; margin-right: 200px;""><img src=""images/choice_trial_13.png"" style=""width: 408px; height: 417px;""></div></div>","j","delaylearn","learning","trial","65980b9029b10879b38af54b","TsVsfTKS0CN8X6WJsRXE6px9VXF3","4","images/choice_trial_4.png","images/choice_trial_13.png","images/pattern_7.png","j","j","750","4","13","6","1","10","1","1","13","70","","","","",""
"html-keyboard-response","53","103131","0.0-24.0-1.0","","null","<div style=""display: flex; flex-direction: column; align-items: center; margin-top: -40px;""><img src=""images/pattern_7.png"" style=""width: 234px; height: 230px; margin-top: -50px;""><div style=""display: flex; justify-content: space-between; margin-top: 33px;""><img src=""images/choice_trial_13.png"" style=""width: 408px; height: 417px; margin-left:608px;""></div></div>","null","delaylearn","learning","display_response","65980b9029b10879b38af54b","TsVsfTKS0CN8X6WJsRXE6px9VXF3","","","","","","","","","","","","","","","","","chosen stimuli: images/choice_trial_13.png","","","",""
"html-keyboard-response","54","103901","0.0-24.0-2.0","","null","","null","delaylearn","learning","feedback_duration_window","65980b9029b10879b38af54b","TsVsfTKS0CN8X6WJsRXE6px9VXF3","","","","","","","","","","","","","","","","","","750","","",""
"html-keyboard-response","55","105407","0.0-24.0-3.0","","null","<div style='margin:auto;width: auto; font-size: 150%'><span style='font-weight: bold; font-size: 100px; color: green;'>+10 points!</span><br><br></div>","null","delaylearn","learning","feedback_image_window","65980b9029b10879b38af54b","TsVsfTKS0CN8X6WJsRXE6px9VXF3","","","","","","","","","","","","","","","","","","","","",""
"html-keyboard-response","56","107556","0.0-25.0","","null","<div style=""font-size:100px;"">+</div>","null","delaylearn","learning","ITI","65980b9029b10879b38af54b","TsVsfTKS0CN8X6WJsRXE6px9VXF3","","","","","","","","","","","","","","","","","","","2147","",""
"html-keyboard-response","57","108792","0.0-26.0-0.0","","1234.5999999940395","<div style=""display: flex; flex-direction: column; align-items: center; margin-top: -40px;""><img src=""images/pattern_4.png"" style=""width: 234px; height: 230px; margin-top: -50px;""><div style=""display: flex; justify-content: space-between; margin-top: 33px;""><img src=""images/choice_trial_8.png"" style=""width: 408px; height: 417px; margin-right: 200px;""><img src=""images/choice_trial_7.png"" style=""width: 408px; height: 417px;""></div></div>","j","delaylearn","learning","trial","65980b9029b10879b38af54b","TsVsfTKS0CN8X6WJsRXE6px9VXF3","4","images/choice_trial_8.png","images/choice_trial_7.png","images/pattern_4.png","f","f","7000","8","7","3","0","11","0","0","7","70","","","","",""
"html-keyboard-response","58","109814","0.0-26.0-1.0","","null","<div style=""display: flex; flex-direction: column; align-items: center; margin-top: -40px;""><img src=""images/pattern_4.png"" style=""width: 234px; height: 230px; margin-top: -50px;""><div style=""display: flex; justify-content: space-between; margin-top: 33px;""><img src=""images/choice_trial_7.png"" style=""width: 408px; height: 417px; margin-left:608px;""></div></div>","null","delaylearn","learning","display_response","65980b9029b10879b38af54b","TsVsfTKS0CN8X6WJsRXE6px9VXF3","","","","","","","","","","","","","","","","","chosen stimuli: images/choice_trial_7.png","","","",""
"html-keyboard-response","59","116823","0.0-26.0-2.0","","null","","null","delaylearn","learning","feedback_duration_window","65980b9029b10879b38af54b","TsVsfTKS0CN8X6WJsRXE6px9VXF3","","","","","","","","","","","","","","","","","","7000","","",""
"html-keyboard-response","60","118330","0.0-26.0-3.0","","null","<div style='margin:auto;width: auto; font-size: 150%'><span style='font-weight: bold; font-size: 100px; color: red;'>0 points!</span><br><br></div>","null","delaylearn","learning","feedback_image_window","65980b9029b10879b38af54b","TsVsfTKS0CN8X6WJsRXE6px9VXF3","","","","","","","","","","","","","","","","","","","","",""
"html-keyboard-response","61","120331","0.0-27.0","","null","<div style=""font-size:100px;"">+</div>","null","delaylearn","learning","ITI","65980b9029b10879b38af54b","TsVsfTKS0CN8X6WJsRXE6px9VXF3","","","","","","","","","","","","","","","","","","","1993","",""
"html-keyboard-response","62","121396","0.0-28.0-0.0","","1063.5","<div style=""display: flex; flex-direction: column; align-items: center; margin-top: -40px;""><img src=""images/pattern_5.png"" style=""width: 234px; height: 230px; margin-top: -50px;""><div style=""display: flex; justify-content: space-between; margin-top: 33px;""><img src=""images/choice_trial_15.png"" style=""width: 408px; height: 417px; margin-right: 200px;""><img src=""images/choice_trial_5.png"" style=""width: 408px; height: 417px;""></div></div>","f","delaylearn","learning","trial","65980b9029b10879b38af54b","TsVsfTKS0CN8X6WJsRXE6px9VXF3","4","images/choice_trial_15.png","images/choice_trial_5.png","images/pattern_5.png","j","j","750","15","5","4","1","12","0","0","15","70","","","","",""
"html-keyboard-response","63","122403","0.0-28.0-1.0","","null","<div style=""display: flex; flex-direction: column; align-items: center; margin-top: -40px;""><img src=""images/pattern_5.png"" style=""width: 234px; height: 230px; margin-top: -50px;""><div style=""display: flex; justify-content: space-between; margin-top: 33px;""><img src=""images/choice_trial_15.png"" style=""width: 408px; height: 417px; margin-right: 608px;""></div></div>","null","delaylearn","learning","display_response","65980b9029b10879b38af54b","TsVsfTKS0CN8X6WJsRXE6px9VXF3","","","","","","","","","","","","","","","","","chosen stimuli: images/choice_trial_15.png","","","",""
"html-keyboard-response","64","123157","0.0-28.0-2.0","","null","","null","delaylearn","learning","feedback_duration_window","65980b9029b10879b38af54b","TsVsfTKS0CN8X6WJsRXE6px9VXF3","","","","","","","","","","","","","","","","","","750","","",""
"html-keyboard-response","65","124664","0.0-28.0-3.0","","null","<div style='margin:auto;width: auto; font-size: 150%'><span style='font-weight: bold; font-size: 100px; color: red;'>0 points!</span><br><br></div>","null","delaylearn","learning","feedback_image_window","65980b9029b10879b38af54b","TsVsfTKS0CN8X6WJsRXE6px9VXF3","","","","","","","","","","","","","","","","","","","","",""
"html-keyboard-response","66","126928","0.0-29.0","","null","<div style=""font-size:100px;"">+</div>","null","delaylearn","learning","ITI","65980b9029b10879b38af54b","TsVsfTKS0CN8X6WJsRXE6px9VXF3","","","","","","","","","","","","","","","","","","","2253","",""
"html-keyboard-response","67","128322","0.0-30.0-0.0","","1393.199999988079","<div style=""display: flex; flex-direction: column; align-items: center; margin-top: -40px;""><img src=""images/pattern_6.png"" style=""width: 234px; height: 230px; margin-top: -50px;""><div style=""display: flex; justify-content: space-between; margin-top: 33px;""><img src=""images/choice_trial_10.png"" style=""width: 408px; height: 417px; margin-right: 200px;""><img src=""images/choice_trial_3.png"" style=""width: 408px; height: 417px;""></div></div>","j","delaylearn","learning","trial","65980b9029b10879b38af54b","TsVsfTKS0CN8X6WJsRXE6px9VXF3","4","images/choice_trial_10.png","images/choice_trial_3.png","images/pattern_6.png","j","f","750","10","3","5","0","13","0","1","3","80","","","","",""
"html-keyboard-response","68","129334","0.0-30.0-1.0","","null","<div style=""display: flex; flex-direction: column; align-items: center; margin-top: -40px;""><img src=""images/pattern_6.png"" style=""width: 234px; height: 230px; margin-top: -50px;""><div style=""display: flex; justify-content: space-between; margin-top: 33px;""><img src=""images/choice_trial_3.png"" style=""width: 408px; height: 417px; margin-left:608px;""></div></div>","null","delaylearn","learning","display_response","65980b9029b10879b38af54b","TsVsfTKS0CN8X6WJsRXE6px9VXF3","","","","","","","","","","","","","","","","","chosen stimuli: images/choice_trial_3.png","","","",""
"html-keyboard-response","69","130088","0.0-30.0-2.0","","null","","null","delaylearn","learning","feedback_duration_window","65980b9029b10879b38af54b","TsVsfTKS0CN8X6WJsRXE6px9VXF3","","","","","","","","","","","","","","","","","","750","","",""
"html-keyboard-response","70","131595","0.0-30.0-3.0","","null","<div style='margin:auto;width: auto; font-size: 150%'><span style='font-weight: bold; font-size: 100px; color: green;'>+10 points!</span><br><br></div>","null","delaylearn","learning","feedback_image_window","65980b9029b10879b38af54b","TsVsfTKS0CN8X6WJsRXE6px9VXF3","","","","","","","","","","","","","","","","","","","","",""
"html-keyboard-response","71","132096","0.0-31.0-0.0","","null","","null","","","mood_trial_fixation","","","","","","","","","","","","","","","","","","","","","","",""
"lmdlab-html-vas-response","72","136083","0.0-31.0-1.0","","2969","How happy are you right now?","0.5277777777777778","delaylearn","learning","mood_trial","65980b9029b10879b38af54b","TsVsfTKS0CN8X6WJsRXE6px9VXF3","","","","","","","","","","","","","","","","","","","","[""Very unhappy"",""Very happy""]",""
"html-keyboard-response","73","137776","0.0-32.0","","null","<div style=""font-size:100px;"">+</div>","null","delaylearn","learning","ITI","65980b9029b10879b38af54b","TsVsfTKS0CN8X6WJsRXE6px9VXF3","","","","","","","","","","","","","","","","","","","1692","",""
"html-keyboard-response","74","139091","0.0-33.0-0.0","","1312.2000000029802","<div style=""display: flex; flex-direction: column; align-items: center; margin-top: -40px;""><img src=""images/pattern_1.png"" style=""width: 234px; height: 230px; margin-top: -50px;""><div style=""display: flex; justify-content: space-between; margin-top: 33px;""><img src=""images/choice_trial_9.png"" style=""width: 408px; height: 417px; margin-right: 200px;""><img src=""images/choice_trial_1.png"" style=""width: 408px; height: 417px;""></div></div>","f","delaylearn","learning","trial","65980b9029b10879b38af54b","TsVsfTKS0CN8X6WJsRXE6px9VXF3","4","images/choice_trial_9.png","images/choice_trial_1.png","images/pattern_1.png","j","j","7000","9","1","1","1","14","0","0","9","80","","","","",""
"html-keyboard-response","75","140100","0.0-33.0-1.0","","null","<div style=""display: flex; flex-direction: column; align-items: center; margin-top: -40px;""><img src=""images/pattern_1.png"" style=""width: 234px; height: 230px; margin-top: -50px;""><div style=""display: flex; justify-content: space-between; margin-top: 33px;""><img src=""images/choice_trial_9.png"" style=""width: 408px; height: 417px; margin-right: 608px;""></div></div>","null","delaylearn","learning","display_response","65980b9029b10879b38af54b","TsVsfTKS0CN8X6WJsRXE6px9VXF3","","","","","","","","","","","","","","","","","chosen stimuli: images/choice_trial_9.png","","","",""
"html-keyboard-response","76","147104","0.0-33.0-2.0","","null","","null","delaylearn","learning","feedback_duration_window","65980b9029b10879b38af54b","TsVsfTKS0CN8X6WJsRXE6px9VXF3","","","","","","","","","","","","","","","","","","7000","","",""
"html-keyboard-response","77","148606","0.0-33.0-3.0","","null","<div style='margin:auto;width: auto; font-size: 150%'><span style='font-weight: bold; font-size: 100px; color: red;'>0 points!</span><br><br></div>","null","delaylearn","learning","feedback_image_window","65980b9029b10879b38af54b","TsVsfTKS0CN8X6WJsRXE6px9VXF3","","","","","","","","","","","","","","","","","","","","",""
"html-keyboard-response","78","150855","0.0-34.0","","null","<div style=""font-size:100px;"">+</div>","null","delaylearn","learning","ITI","65980b9029b10879b38af54b","TsVsfTKS0CN8X6WJsRXE6px9VXF3","","","","","","","","","","","","","","","","","","","2237","",""
"html-keyboard-response","79","152106","0.0-35.0-0.0","","1249.800000011921","<div style=""display: flex; flex-direction: column; align-items: center; margin-top: -40px;""><img src=""images/pattern_3.png"" style=""width: 234px; height: 230px; margin-top: -50px;""><div style=""display: flex; justify-content: space-between; margin-top: 33px;""><img src=""images/choice_trial_6.png"" style=""width: 408px; height: 417px; margin-right: 200px;""><img src=""images/choice_trial_16.png"" style=""width: 408px; height: 417px;""></div></div>","j","delaylearn","learning","trial","65980b9029b10879b38af54b","TsVsfTKS0CN8X6WJsRXE6px9VXF3","4","images/choice_trial_6.png","images/choice_trial_16.png","images/pattern_3.png","f","j","7000","6","16","2","1","15","1","0","16","80","","","","",""
"html-keyboard-response","80","153110","0.0-35.0-1.0","","null","<div style=""display: flex; flex-direction: column; align-items: center; margin-top: -40px;""><img src=""images/pattern_3.png"" style=""width: 234px; height: 230px; margin-top: -50px;""><div style=""display: flex; justify-content: space-between; margin-top: 33px;""><img src=""images/choice_trial_16.png"" style=""width: 408px; height: 417px; margin-left:608px;""></div></div>","null","delaylearn","learning","display_response","65980b9029b10879b38af54b","TsVsfTKS0CN8X6WJsRXE6px9VXF3","","","","","","","","","","","","","","","","","chosen stimuli: images/choice_trial_16.png","","","",""
"html-keyboard-response","81","160115","0.0-35.0-2.0","","null","","null","delaylearn","learning","feedback_duration_window","65980b9029b10879b38af54b","TsVsfTKS0CN8X6WJsRXE6px9VXF3","","","","","","","","","","","","","","","","","","7000","","",""
"html-keyboard-response","82","161617","0.0-35.0-3.0","","null","<div style='margin:auto;width: auto; font-size: 150%'><span style='font-weight: bold; font-size: 100px; color: red;'>0 points!</span><br><br></div>","null","delaylearn","learning","feedback_image_window","65980b9029b10879b38af54b","TsVsfTKS0CN8X6WJsRXE6px9VXF3","","","","","","","","","","","","","","","","","","","","",""
"html-keyboard-response","83","163582","0.0-36.0","","null","<div style=""font-size:100px;"">+</div>","null","delaylearn","learning","ITI","65980b9029b10879b38af54b","TsVsfTKS0CN8X6WJsRXE6px9VXF3","","","","","","","","","","","","","","","","","","","1963","",""
"html-keyboard-response","84","166307","0.0-37.0-0.0","","2724","<div style=""display: flex; flex-direction: column; align-items: center; margin-top: -40px;""><img src=""images/pattern_5.png"" style=""width: 234px; height: 230px; margin-top: -50px;""><div style=""display: flex; justify-content: space-between; margin-top: 33px;""><img src=""images/choice_trial_5.png"" style=""width: 408px; height: 417px; margin-right: 200px;""><img src=""images/choice_trial_15.png"" style=""width: 408px; height: 417px;""></div></div>","j","delaylearn","learning","trial","65980b9029b10879b38af54b","TsVsfTKS0CN8X6WJsRXE6px9VXF3","4","images/choice_trial_5.png","images/choice_trial_15.png","images/pattern_5.png","f","f","750","5","15","4","0","16","0","0","15","80","","","","",""
"html-keyboard-response","85","167322","0.0-37.0-1.0","","null","<div style=""display: flex; flex-direction: column; align-items: center; margin-top: -40px;""><img src=""images/pattern_5.png"" style=""width: 234px; height: 230px; margin-top: -50px;""><div style=""display: flex; justify-content: space-between; margin-top: 33px;""><img src=""images/choice_trial_15.png"" style=""width: 408px; height: 417px; margin-left:608px;""></div></div>","null","delaylearn","learning","display_response","65980b9029b10879b38af54b","TsVsfTKS0CN8X6WJsRXE6px9VXF3","","","","","","","","","","","","","","","","","chosen stimuli: images/choice_trial_15.png","","","",""
"html-keyboard-response","86","168086","0.0-37.0-2.0","","null","","null","delaylearn","learning","feedback_duration_window","65980b9029b10879b38af54b","TsVsfTKS0CN8X6WJsRXE6px9VXF3","","","","","","","","","","","","","","","","","","750","","",""
"html-keyboard-response","87","169587","0.0-37.0-3.0","","null","<div style='margin:auto;width: auto; font-size: 150%'><span style='font-weight: bold; font-size: 100px; color: red;'>0 points!</span><br><br></div>","null","delaylearn","learning","feedback_image_window","65980b9029b10879b38af54b","TsVsfTKS0CN8X6WJsRXE6px9VXF3","","","","","","","","","","","","","","","","","","","","",""
"html-keyboard-response","88","170110","0.0-38.0-0.0","","null","","null","","","mood_trial_fixation","","","","","","","","","","","","","","","","","","","","","","",""
"lmdlab-html-vas-response","89","173480","0.0-38.0-1.0","","2351","How happy are you right now?","0.39351851851851855","delaylearn","learning","mood_trial","65980b9029b10879b38af54b","TsVsfTKS0CN8X6WJsRXE6px9VXF3","","","","","","","","","","","","","","","","","","","","[""Very unhappy"",""Very happy""]",""
"html-keyboard-response","90","175433","0.0-39.0","","null","<div style=""font-size:100px;"">+</div>","null","delaylearn","learning","ITI","65980b9029b10879b38af54b","TsVsfTKS0CN8X6WJsRXE6px9VXF3","","","","","","","","","","","","","","","","","","","1948","",""
"html-keyboard-response","91","177247","0.0-40.0-0.0","","1811.7000000029802","<div style=""display: flex; flex-direction: column; align-items: center; margin-top: -40px;""><img src=""images/pattern_6.png"" style=""width: 234px; height: 230px; margin-top: -50px;""><div style=""display: flex; justify-content: space-between; margin-top: 33px;""><img src=""images/choice_trial_10.png"" style=""width: 408px; height: 417px; margin-right: 200px;""><img src=""images/choice_trial_3.png"" style=""width: 408px; height: 417px;""></div></div>","j","delaylearn","learning","trial","65980b9029b10879b38af54b","TsVsfTKS0CN8X6WJsRXE6px9VXF3","4","images/choice_trial_10.png","images/choice_trial_3.png","images/pattern_6.png","f","f","750","10","3","5","0","17","0","0","3","80","","","","",""
"html-keyboard-response","92","178254","0.0-40.0-1.0","","null","<div style=""display: flex; flex-direction: column; align-items: center; margin-top: -40px;""><img src=""images/pattern_6.png"" style=""width: 234px; height: 230px; margin-top: -50px;""><div style=""display: flex; justify-content: space-between; margin-top: 33px;""><img src=""images/choice_trial_3.png"" style=""width: 408px; height: 417px; margin-left:608px;""></div></div>","null","delaylearn","learning","display_response","65980b9029b10879b38af54b","TsVsfTKS0CN8X6WJsRXE6px9VXF3","","","","","","","","","","","","","","","","","chosen stimuli: images/choice_trial_3.png","","","",""
"html-keyboard-response","93","179024","0.0-40.0-2.0","","null","","null","delaylearn","learning","feedback_duration_window","65980b9029b10879b38af54b","TsVsfTKS0CN8X6WJsRXE6px9VXF3","","","","","","","","","","","","","","","","","","750","","",""
"html-keyboard-response","94","180525","0.0-40.0-3.0","","null","<div style='margin:auto;width: auto; font-size: 150%'><span style='font-weight: bold; font-size: 100px; color: red;'>0 points!</span><br><br></div>","null","delaylearn","learning","feedback_image_window","65980b9029b10879b38af54b","TsVsfTKS0CN8X6WJsRXE6px9VXF3","","","","","","","","","","","","","","","","","","","","",""
"html-keyboard-response","95","182227","0.0-41.0","","null","<div style=""font-size:100px;"">+</div>","null","delaylearn","learning","ITI","65980b9029b10879b38af54b","TsVsfTKS0CN8X6WJsRXE6px9VXF3","","","","","","","","","","","","","","","","","","","1693","",""
"html-keyboard-response","96","183687","0.0-42.0-0.0","","1459.0999999940395","<div style=""display: flex; flex-direction: column; align-items: center; margin-top: -40px;""><img src=""images/pattern_4.png"" style=""width: 234px; height: 230px; margin-top: -50px;""><div style=""display: flex; justify-content: space-between; margin-top: 33px;""><img src=""images/choice_trial_7.png"" style=""width: 408px; height: 417px; margin-right: 200px;""><img src=""images/choice_trial_8.png"" style=""width: 408px; height: 417px;""></div></div>","f","delaylearn","learning","trial","65980b9029b10879b38af54b","TsVsfTKS0CN8X6WJsRXE6px9VXF3","4","images/choice_trial_7.png","images/choice_trial_8.png","images/pattern_4.png","j","j","7000","7","8","3","1","18","0","0","7","80","","","","",""
"html-keyboard-response","97","184704","0.0-42.0-1.0","","null","<div style=""display: flex; flex-direction: column; align-items: center; margin-top: -40px;""><img src=""images/pattern_4.png"" style=""width: 234px; height: 230px; margin-top: -50px;""><div style=""display: flex; justify-content: space-between; margin-top: 33px;""><img src=""images/choice_trial_7.png"" style=""width: 408px; height: 417px; margin-right: 608px;""></div></div>","null","delaylearn","learning","display_response","65980b9029b10879b38af54b","TsVsfTKS0CN8X6WJsRXE6px9VXF3","","","","","","","","","","","","","","","","","chosen stimuli: images/choice_trial_7.png","","","",""
"html-keyboard-response","98","191705","0.0-42.0-2.0","","null","","null","delaylearn","learning","feedback_duration_window","65980b9029b10879b38af54b","TsVsfTKS0CN8X6WJsRXE6px9VXF3","","","","","","","","","","","","","","","","","","7000","","",""
"html-keyboard-response","99","193206","0.0-42.0-3.0","","null","<div style='margin:auto;width: auto; font-size: 150%'><span style='font-weight: bold; font-size: 100px; color: red;'>0 points!</span><br><br></div>","null","delaylearn","learning","feedback_image_window","65980b9029b10879b38af54b","TsVsfTKS0CN8X6WJsRXE6px9VXF3","","","","","","","","","","","","","","","","","","","","",""
"html-keyboard-response","100","195055","0.0-43.0","","null","<div style=""font-size:100px;"">+</div>","null","delaylearn","learning","ITI","65980b9029b10879b38af54b","TsVsfTKS0CN8X6WJsRXE6px9VXF3","","","","","","","","","","","","","","","","","","","1837","",""
"html-keyboard-response","101","196223","0.0-44.0-0.0","","1166","<div style=""display: flex; flex-direction: column; align-items: center; margin-top: -40px;""><img src=""images/pattern_7.png"" style=""width: 234px; height: 230px; margin-top: -50px;""><div style=""display: flex; justify-content: space-between; margin-top: 33px;""><img src=""images/choice_trial_13.png"" style=""width: 408px; height: 417px; margin-right: 200px;""><img src=""images/choice_trial_4.png"" style=""width: 408px; height: 417px;""></div></div>","f","delaylearn","learning","trial","65980b9029b10879b38af54b","TsVsfTKS0CN8X6WJsRXE6px9VXF3","4","images/choice_trial_13.png","images/choice_trial_4.png","images/pattern_7.png","j","f","750","13","4","6","0","19","1","0","13","80","","","","",""
"html-keyboard-response","102","197229","0.0-44.0-1.0","","null","<div style=""display: flex; flex-direction: column; align-items: center; margin-top: -40px;""><img src=""images/pattern_7.png"" style=""width: 234px; height: 230px; margin-top: -50px;""><div style=""display: flex; justify-content: space-between; margin-top: 33px;""><img src=""images/choice_trial_13.png"" style=""width: 408px; height: 417px; margin-right: 608px;""></div></div>","null","delaylearn","learning","display_response","65980b9029b10879b38af54b","TsVsfTKS0CN8X6WJsRXE6px9VXF3","","","","","","","","","","","","","","","","","chosen stimuli: images/choice_trial_13.png","","","",""
"html-keyboard-response","103","197984","0.0-44.0-2.0","","null","","null","delaylearn","learning","feedback_duration_window","65980b9029b10879b38af54b","TsVsfTKS0CN8X6WJsRXE6px9VXF3","","","","","","","","","","","","","","","","","","750","","",""
"html-keyboard-response","104","199490","0.0-44.0-3.0","","null","<div style='margin:auto;width: auto; font-size: 150%'><span style='font-weight: bold; font-size: 100px; color: red;'>0 points!</span><br><br></div>","null","delaylearn","learning","feedback_image_window","65980b9029b10879b38af54b","TsVsfTKS0CN8X6WJsRXE6px9VXF3","","","","","","","","","","","","","","","","","","","","",""
"html-keyboard-response","105","201306","0.0-45.0","","null","<div style=""font-size:100px;"">+</div>","null","delaylearn","learning","ITI","65980b9029b10879b38af54b","TsVsfTKS0CN8X6WJsRXE6px9VXF3","","","","","","","","","","","","","","","","","","","1803","",""
"html-keyboard-response","106","202568","0.0-46.0-0.0","","1260.1000000089407","<div style=""display: flex; flex-direction: column; align-items: center; margin-top: -40px;""><img src=""images/pattern_1.png"" style=""width: 234px; height: 230px; margin-top: -50px;""><div style=""display: flex; justify-content: space-between; margin-top: 33px;""><img src=""images/choice_trial_1.png"" style=""width: 408px; height: 417px; margin-right: 200px;""><img src=""images/choice_trial_9.png"" style=""width: 408px; height: 417px;""></div></div>","j","delaylearn","learning","trial","65980b9029b10879b38af54b","TsVsfTKS0CN8X6WJsRXE6px9VXF3","4","images/choice_trial_1.png","images/choice_trial_9.png","images/pattern_1.png","f","f","7000","1","9","1","0","20","0","0","9","80","","","","",""
"html-keyboard-response","107","203572","0.0-46.0-1.0","","null","<div style=""display: flex; flex-direction: column; align-items: center; margin-top: -40px;""><img src=""images/pattern_1.png"" style=""width: 234px; height: 230px; margin-top: -50px;""><div style=""display: flex; justify-content: space-between; margin-top: 33px;""><img src=""images/choice_trial_9.png"" style=""width: 408px; height: 417px; margin-left:608px;""></div></div>","null","delaylearn","learning","display_response","65980b9029b10879b38af54b","TsVsfTKS0CN8X6WJsRXE6px9VXF3","","","","","","","","","","","","","","","","","chosen stimuli: images/choice_trial_9.png","","","",""
"html-keyboard-response","108","210582","0.0-46.0-2.0","","null","","null","delaylearn","learning","feedback_duration_window","65980b9029b10879b38af54b","TsVsfTKS0CN8X6WJsRXE6px9VXF3","","","","","","","","","","","","","","","","","","7000","","",""
"html-keyboard-response","109","212089","0.0-46.0-3.0","","null","<div style='margin:auto;width: auto; font-size: 150%'><span style='font-weight: bold; font-size: 100px; color: red;'>0 points!</span><br><br></div>","null","delaylearn","learning","feedback_image_window","65980b9029b10879b38af54b","TsVsfTKS0CN8X6WJsRXE6px9VXF3","","","","","","","","","","","","","","","","","","","","",""
"html-keyboard-response","110","213997","0.0-47.0","","null","<div style=""font-size:100px;"">+</div>","null","delaylearn","learning","ITI","65980b9029b10879b38af54b","TsVsfTKS0CN8X6WJsRXE6px9VXF3","","","","","","","","","","","","","","","","","","","1900","",""
"html-keyboard-response","111","216083","0.0-48.0-0.0","","2084","<div style=""display: flex; flex-direction: column; align-items: center; margin-top: -40px;""><img src=""images/pattern_6.png"" style=""width: 234px; height: 230px; margin-top: -50px;""><div style=""display: flex; justify-content: space-between; margin-top: 33px;""><img src=""images/choice_trial_3.png"" style=""width: 408px; height: 417px; margin-right: 200px;""><img src=""images/choice_trial_10.png"" style=""width: 408px; height: 417px;""></div></div>","f","delaylearn","learning","trial","65980b9029b10879b38af54b","TsVsfTKS0CN8X6WJsRXE6px9VXF3","4","images/choice_trial_3.png","images/choice_trial_10.png","images/pattern_6.png","j","j","750","3","10","5","1","21","0","0","3","80","","","","",""
"html-keyboard-response","112","217089","0.0-48.0-1.0","","null","<div style=""display: flex; flex-direction: column; align-items: center; margin-top: -40px;""><img src=""images/pattern_6.png"" style=""width: 234px; height: 230px; margin-top: -50px;""><div style=""display: flex; justify-content: space-between; margin-top: 33px;""><img src=""images/choice_trial_3.png"" style=""width: 408px; height: 417px; margin-right: 608px;""></div></div>","null","delaylearn","learning","display_response","65980b9029b10879b38af54b","TsVsfTKS0CN8X6WJsRXE6px9VXF3","","","","","","","","","","","","","","","","","chosen stimuli: images/choice_trial_3.png","","","",""
"html-keyboard-response","113","217843","0.0-48.0-2.0","","null","","null","delaylearn","learning","feedback_duration_window","65980b9029b10879b38af54b","TsVsfTKS0CN8X6WJsRXE6px9VXF3","","","","","","","","","","","","","","","","","","750","","",""
"html-keyboard-response","114","219350","0.0-48.0-3.0","","null","<div style='margin:auto;width: auto; font-size: 150%'><span style='font-weight: bold; font-size: 100px; color: red;'>0 points!</span><br><br></div>","null","delaylearn","learning","feedback_image_window","65980b9029b10879b38af54b","TsVsfTKS0CN8X6WJsRXE6px9VXF3","","","","","","","","","","","","","","","","","","","","",""
"html-keyboard-response","115","221220","0.0-49.0","","null","<div style=""font-size:100px;"">+</div>","null","delaylearn","learning","ITI","65980b9029b10879b38af54b","TsVsfTKS0CN8X6WJsRXE6px9VXF3","","","","","","","","","","","","","","","","","","","1857","",""
"html-keyboard-response","116","222657","0.0-50.0-0.0","","1435.1000000089407","<div style=""display: flex; flex-direction: column; align-items: center; margin-top: -40px;""><img src=""images/pattern_4.png"" style=""width: 234px; height: 230px; margin-top: -50px;""><div style=""display: flex; justify-content: space-between; margin-top: 33px;""><img src=""images/choice_trial_8.png"" style=""width: 408px; height: 417px; margin-right: 200px;""><img src=""images/choice_trial_7.png"" style=""width: 408px; height: 417px;""></div></div>","j","delaylearn","learning","trial","65980b9029b10879b38af54b","TsVsfTKS0CN8X6WJsRXE6px9VXF3","4","images/choice_trial_8.png","images/choice_trial_7.png","images/pattern_4.png","f","f","7000","8","7","3","0","22","0","0","7","80","","","","",""
"html-keyboard-response","117","223666","0.0-50.0-1.0","","null","<div style=""display: flex; flex-direction: column; align-items: center; margin-top: -40px;""><img src=""images/pattern_4.png"" style=""width: 234px; height: 230px; margin-top: -50px;""><div style=""display: flex; justify-content: space-between; margin-top: 33px;""><img src=""images/choice_trial_7.png"" style=""width: 408px; height: 417px; margin-left:608px;""></div></div>","null","delaylearn","learning","display_response","65980b9029b10879b38af54b","TsVsfTKS0CN8X6WJsRXE6px9VXF3","","","","","","","","","","","","","","","","","chosen stimuli: images/choice_trial_7.png","","","",""
"html-keyboard-response","118","230681","0.0-50.0-2.0","","null","","null","delaylearn","learning","feedback_duration_window","65980b9029b10879b38af54b","TsVsfTKS0CN8X6WJsRXE6px9VXF3","","","","","","","","","","","","","","","","","","7000","","",""
"html-keyboard-response","119","232203","0.0-50.0-3.0","","null","<div style='margin:auto;width: auto; font-size: 150%'><span style='font-weight: bold; font-size: 100px; color: red;'>0 points!</span><br><br></div>","null","delaylearn","learning","feedback_image_window","65980b9029b10879b38af54b","TsVsfTKS0CN8X6WJsRXE6px9VXF3","","","","","","","","","","","","","","","","","","","","",""
"html-keyboard-response","120","232704","0.0-51.0-0.0","","null","","null","","","mood_trial_fixation","","","","","","","","","","","","","","","","","","","","","","",""
"lmdlab-html-vas-response","121","236143","0.0-51.0-1.0","","2421","How happy are you right now?","0.2824074074074074","delaylearn","learning","mood_trial","65980b9029b10879b38af54b","TsVsfTKS0CN8X6WJsRXE6px9VXF3","","","","","","","","","","","","","","","","","","","","[""Very unhappy"",""Very happy""]",""
"html-keyboard-response","122","237982","0.0-52.0","","null","<div style=""font-size:100px;"">+</div>","null","delaylearn","learning","ITI","65980b9029b10879b38af54b","TsVsfTKS0CN8X6WJsRXE6px9VXF3","","","","","","","","","","","","","","","","","","","1835","",""
"html-keyboard-response","123","239051","0.0-53.0-0.0","","1068.0999999940395","<div style=""display: flex; flex-direction: column; align-items: center; margin-top: -40px;""><img src=""images/pattern_7.png"" style=""width: 234px; height: 230px; margin-top: -50px;""><div style=""display: flex; justify-content: space-between; margin-top: 33px;""><img src=""images/choice_trial_4.png"" style=""width: 408px; height: 417px; margin-right: 200px;""><img src=""images/choice_trial_13.png"" style=""width: 408px; height: 417px;""></div></div>","j","delaylearn","learning","trial","65980b9029b10879b38af54b","TsVsfTKS0CN8X6WJsRXE6px9VXF3","4","images/choice_trial_4.png","images/choice_trial_13.png","images/pattern_7.png","j","j","750","4","13","6","1","23","1","1","13","90","","","","",""
"html-keyboard-response","124","240058","0.0-53.0-1.0","","null","<div style=""display: flex; flex-direction: column; align-items: center; margin-top: -40px;""><img src=""images/pattern_7.png"" style=""width: 234px; height: 230px; margin-top: -50px;""><div style=""display: flex; justify-content: space-between; margin-top: 33px;""><img src=""images/choice_trial_13.png"" style=""width: 408px; height: 417px; margin-left:608px;""></div></div>","null","delaylearn","learning","display_response","65980b9029b10879b38af54b","TsVsfTKS0CN8X6WJsRXE6px9VXF3","","","","","","","","","","","","","","","","","chosen stimuli: images/choice_trial_13.png","","","",""
"html-keyboard-response","125","240827","0.0-53.0-2.0","","null","","null","delaylearn","learning","feedback_duration_window","65980b9029b10879b38af54b","TsVsfTKS0CN8X6WJsRXE6px9VXF3","","","","","","","","","","","","","","","","","","750","","",""
"html-keyboard-response","126","242344","0.0-53.0-3.0","","null","<div style='margin:auto;width: auto; font-size: 150%'><span style='font-weight: bold; font-size: 100px; color: green;'>+10 points!</span><br><br></div>","null","delaylearn","learning","feedback_image_window","65980b9029b10879b38af54b","TsVsfTKS0CN8X6WJsRXE6px9VXF3","","","","","","","","","","","","","","","","","","","","",""
"html-keyboard-response","127","244299","0.0-54.0","","null","<div style=""font-size:100px;"">+</div>","null","delaylearn","learning","ITI","65980b9029b10879b38af54b","TsVsfTKS0CN8X6WJsRXE6px9VXF3","","","","","","","","","","","","","","","","","","","1952","",""
"html-keyboard-response","128","245305","0.0-55.0-0.0","","1004.8999999910593","<div style=""display: flex; flex-direction: column; align-items: center; margin-top: -40px;""><img src=""images/pattern_1.png"" style=""width: 234px; height: 230px; margin-top: -50px;""><div style=""display: flex; justify-content: space-between; margin-top: 33px;""><img src=""images/choice_trial_9.png"" style=""width: 408px; height: 417px; margin-right: 200px;""><img src=""images/choice_trial_1.png"" style=""width: 408px; height: 417px;""></div></div>","f","delaylearn","learning","trial","65980b9029b10879b38af54b","TsVsfTKS0CN8X6WJsRXE6px9VXF3","4","images/choice_trial_9.png","images/choice_trial_1.png","images/pattern_1.png","f","j","7000","9","1","1","1","24","0","1","9","100","","","","",""
"html-keyboard-response","129","246311","0.0-55.0-1.0","","null","<div style=""display: flex; flex-direction: column; align-items: center; margin-top: -40px;""><img src=""images/pattern_1.png"" style=""width: 234px; height: 230px; margin-top: -50px;""><div style=""display: flex; justify-content: space-between; margin-top: 33px;""><img src=""images/choice_trial_9.png"" style=""width: 408px; height: 417px; margin-right: 608px;""></div></div>","null","delaylearn","learning","display_response","65980b9029b10879b38af54b","TsVsfTKS0CN8X6WJsRXE6px9VXF3","","","","","","","","","","","","","","","","","chosen stimuli: images/choice_trial_9.png","","","",""
"html-keyboard-response","130","253327","0.0-55.0-2.0","","null","","null","delaylearn","learning","feedback_duration_window","65980b9029b10879b38af54b","TsVsfTKS0CN8X6WJsRXE6px9VXF3","","","","","","","","","","","","","","","","","","7000","","",""
"html-keyboard-response","131","254828","0.0-55.0-3.0","","null","<div style='margin:auto;width: auto; font-size: 150%'><span style='font-weight: bold; font-size: 100px; color: green;'>+10 points!</span><br><br></div>","null","delaylearn","learning","feedback_image_window","65980b9029b10879b38af54b","TsVsfTKS0CN8X6WJsRXE6px9VXF3","","","","","","","","","","","","","","","","","","","","",""
"html-keyboard-response","132","256412","0.0-56.0","","null","<div style=""font-size:100px;"">+</div>","null","delaylearn","learning","ITI","65980b9029b10879b38af54b","TsVsfTKS0CN8X6WJsRXE6px9VXF3","","","","","","","","","","","","","","","","","","","1572","",""
"html-keyboard-response","133","258550","0.0-57.0-0.0","","2136.2999999970198","<div style=""display: flex; flex-direction: column; align-items: center; margin-top: -40px;""><img src=""images/pattern_5.png"" style=""width: 234px; height: 230px; margin-top: -50px;""><div style=""display: flex; justify-content: space-between; margin-top: 33px;""><img src=""images/choice_trial_15.png"" style=""width: 408px; height: 417px; margin-right: 200px;""><img src=""images/choice_trial_5.png"" style=""width: 408px; height: 417px;""></div></div>","f","delaylearn","learning","trial","65980b9029b10879b38af54b","TsVsfTKS0CN8X6WJsRXE6px9VXF3","4","images/choice_trial_15.png","images/choice_trial_5.png","images/pattern_5.png","j","j","750","15","5","4","1","25","0","0","15","100","","","","",""
"html-keyboard-response","134","259561","0.0-57.0-1.0","","null","<div style=""display: flex; flex-direction: column; align-items: center; margin-top: -40px;""><img src=""images/pattern_5.png"" style=""width: 234px; height: 230px; margin-top: -50px;""><div style=""display: flex; justify-content: space-between; margin-top: 33px;""><img src=""images/choice_trial_15.png"" style=""width: 408px; height: 417px; margin-right: 608px;""></div></div>","null","delaylearn","learning","display_response","65980b9029b10879b38af54b","TsVsfTKS0CN8X6WJsRXE6px9VXF3","","","","","","","","","","","","","","","","","chosen stimuli: images/choice_trial_15.png","","","",""
"html-keyboard-response","135","260325","0.0-57.0-2.0","","null","","null","delaylearn","learning","feedback_duration_window","65980b9029b10879b38af54b","TsVsfTKS0CN8X6WJsRXE6px9VXF3","","","","","","","","","","","","","","","","","","750","","",""
"html-keyboard-response","136","261822","0.0-57.0-3.0","","null","<div style='margin:auto;width: auto; font-size: 150%'><span style='font-weight: bold; font-size: 100px; color: red;'>0 points!</span><br><br></div>","null","delaylearn","learning","feedback_image_window","65980b9029b10879b38af54b","TsVsfTKS0CN8X6WJsRXE6px9VXF3","","","","","","","","","","","","","","","","","","","","",""
"html-keyboard-response","137","263961","0.0-58.0","","null","<div style=""font-size:100px;"">+</div>","null","delaylearn","learning","ITI","65980b9029b10879b38af54b","TsVsfTKS0CN8X6WJsRXE6px9VXF3","","","","","","","","","","","","","","","","","","","2120","",""
"html-keyboard-response","138","265251","0.0-59.0-0.0","","1288","<div style=""display: flex; flex-direction: column; align-items: center; margin-top: -40px;""><img src=""images/pattern_3.png"" style=""width: 234px; height: 230px; margin-top: -50px;""><div style=""display: flex; justify-content: space-between; margin-top: 33px;""><img src=""images/choice_trial_6.png"" style=""width: 408px; height: 417px; margin-right: 200px;""><img src=""images/choice_trial_16.png"" style=""width: 408px; height: 417px;""></div></div>","j","delaylearn","learning","trial","65980b9029b10879b38af54b","TsVsfTKS0CN8X6WJsRXE6px9VXF3","4","images/choice_trial_6.png","images/choice_trial_16.png","images/pattern_3.png","j","j","7000","6","16","2","1","26","1","1","16","110","","","","",""
"html-keyboard-response","139","266269","0.0-59.0-1.0","","null","<div style=""display: flex; flex-direction: column; align-items: center; margin-top: -40px;""><img src=""images/pattern_3.png"" style=""width: 234px; height: 230px; margin-top: -50px;""><div style=""display: flex; justify-content: space-between; margin-top: 33px;""><img src=""images/choice_trial_16.png"" style=""width: 408px; height: 417px; margin-left:608px;""></div></div>","null","delaylearn","learning","display_response","65980b9029b10879b38af54b","TsVsfTKS0CN8X6WJsRXE6px9VXF3","","","","","","","","","","","","","","","","","chosen stimuli: images/choice_trial_16.png","","","",""
"html-keyboard-response","140","273272","0.0-59.0-2.0","","null","","null","delaylearn","learning","feedback_duration_window","65980b9029b10879b38af54b","TsVsfTKS0CN8X6WJsRXE6px9VXF3","","","","","","","","","","","","","","","","","","7000","","",""
"html-keyboard-response","141","274773","0.0-59.0-3.0","","null","<div style='margin:auto;width: auto; font-size: 150%'><span style='font-weight: bold; font-size: 100px; color: green;'>+10 points!</span><br><br></div>","null","delaylearn","learning","feedback_image_window","65980b9029b10879b38af54b","TsVsfTKS0CN8X6WJsRXE6px9VXF3","","","","","","","","","","","","","","","","","","","","",""
"lmdlab-html-vas-response","142","280935","0.0-60.0-0.0","","4648","*How <b><u>confident</u></b> are you feeling about your answers at this moment?*","0.18518518518518517","rewlearn","rate_confidence","","65980b9029b10879b38af54b","TsVsfTKS0CN8X6WJsRXE6px9VXF3","","","","","","","","","","","","","","","","","","","","[""No confidence"",""Complete confidence""]",""
"lmdlab-rest-trial-limit","143","289855","0.0-60.0-1.0","","7402.20000000298","<div style=""font-size:40px;""><b>Please take a break!</b><br><br><br><br><p>Great work: you earned 110 points.<br><br><br><p>You have completed part(s) 1 of 5.<br><br><br><br>When you are ready to continue<br><br><br>please click the button.</p><br><br>","0","delaylearn","learning","break","65980b9029b10879b38af54b","TsVsfTKS0CN8X6WJsRXE6px9VXF3","","","","","","","","","","","","","","","","","","","","","0"
"html-keyboard-response","144","292869","0.0-60.0-2.0","","null","<div style=""font-size:100px;"">+</div>","null","delaylearn","learning","pre_fixation","65980b9029b10879b38af54b","","","","","","","","","","","","","","","","","","","","","",""
"lmdlab-html-vas-response","145","295902","0.0-60.0-3.0-0.0","","2016","How happy are you right now?","0.30787037037037035","delaylearn","learning","mood_baseline","65980b9029b10879b38af54b","TsVsfTKS0CN8X6WJsRXE6px9VXF3","","","","","","","","","","","","","","","","","","","","[""Very unhappy"",""Very happy""]",""
"html-keyboard-response","146","297412","0.0-60.0-3.0-1.0","","null","","null","","","mood_baseline_fixation","","","","","","","","","","","","","","","","","","","","","","",""
"html-keyboard-response","147","299471","0.0-61.0","","null","<div style=""font-size:100px;"">+</div>","null","delaylearn","learning","ITI","65980b9029b10879b38af54b","TsVsfTKS0CN8X6WJsRXE6px9VXF3","","","","","","","","","","","","","","","","","","","2043","",""
"html-keyboard-response","148","300388","0.0-62.0-0.0","","915.7999999970198","<div style=""display: flex; flex-direction: column; align-items: center; margin-top: -40px;""><img src=""images/pattern_7.png"" style=""width: 234px; height: 230px; margin-top: -50px;""><div style=""display: flex; justify-content: space-between; margin-top: 33px;""><img src=""images/choice_trial_4.png"" style=""width: 408px; height: 417px; margin-right: 200px;""><img src=""images/choice_trial_13.png"" style=""width: 408px; height: 417px;""></div></div>","j","delaylearn","learning","trial","65980b9029b10879b38af54b","TsVsfTKS0CN8X6WJsRXE6px9VXF3","4","images/choice_trial_4.png","images/choice_trial_13.png","images/pattern_7.png","j","j","750","4","13","6","1","27","1","1","13","120","","","","",""
"html-keyboard-response","149","301397","0.0-62.0-1.0","","null","<div style=""display: flex; flex-direction: column; align-items: center; margin-top: -40px;""><img src=""images/pattern_7.png"" style=""width: 234px; height: 230px; margin-top: -50px;""><div style=""display: flex; justify-content: space-between; margin-top: 33px;""><img src=""images/choice_trial_13.png"" style=""width: 408px; height: 417px; margin-left:608px;""></div></div>","null","delaylearn","learning","display_response","65980b9029b10879b38af54b","TsVsfTKS0CN8X6WJsRXE6px9VXF3","","","","","","","","","","","","","","","","","chosen stimuli: images/choice_trial_13.png","","","",""
"html-keyboard-response","150","302163","0.0-62.0-2.0","","null","","null","delaylearn","learning","feedback_duration_window","65980b9029b10879b38af54b","TsVsfTKS0CN8X6WJsRXE6px9VXF3","","","","","","","","","","","","","","","","","","750","","",""
"html-keyboard-response","151","303669","0.0-62.0-3.0","","null","<div style='margin:auto;width: auto; font-size: 150%'><span style='font-weight: bold; font-size: 100px; color: green;'>+10 points!</span><br><br></div>","null","delaylearn","learning","feedback_image_window","65980b9029b10879b38af54b","TsVsfTKS0CN8X6WJsRXE6px9VXF3","","","","","","","","","","","","","","","","","","","","",""
"html-keyboard-response","152","304170","0.0-63.0-0.0","","null","","null","","","mood_trial_fixation","","","","","","","","","","","","","","","","","","","","","","",""
"lmdlab-html-vas-response","153","307401","0.0-63.0-1.0","","2212","How happy are you right now?","0.47685185185185186","delaylearn","learning","mood_trial","65980b9029b10879b38af54b","TsVsfTKS0CN8X6WJsRXE6px9VXF3","","","","","","","","","","","","","","","","","","","","[""Very unhappy"",""Very happy""]",""
"html-keyboard-response","154","309118","0.0-64.0","","null","<div style=""font-size:100px;"">+</div>","null","delaylearn","learning","ITI","65980b9029b10879b38af54b","TsVsfTKS0CN8X6WJsRXE6px9VXF3","","","","","","","","","","","","","","","","","","","1710","",""
"html-keyboard-response","155","310224","0.0-65.0-0.0","","1104.1000000089407","<div style=""display: flex; flex-direction: column; align-items: center; margin-top: -40px;""><img src=""images/pattern_1.png"" style=""width: 234px; height: 230px; margin-top: -50px;""><div style=""display: flex; justify-content: space-between; margin-top: 33px;""><img src=""images/choice_trial_1.png"" style=""width: 408px; height: 417px; margin-right: 200px;""><img src=""images/choice_trial_9.png"" style=""width: 408px; height: 417px;""></div></div>","j","delaylearn","learning","trial","65980b9029b10879b38af54b","TsVsfTKS0CN8X6WJsRXE6px9VXF3","4","images/choice_trial_1.png","images/choice_trial_9.png","images/pattern_1.png","f","f","7000","1","9","1","0","28","0","0","9","120","","","","",""
"html-keyboard-response","156","311235","0.0-65.0-1.0","","null","<div style=""display: flex; flex-direction: column; align-items: center; margin-top: -40px;""><img src=""images/pattern_1.png"" style=""width: 234px; height: 230px; margin-top: -50px;""><div style=""display: flex; justify-content: space-between; margin-top: 33px;""><img src=""images/choice_trial_9.png"" style=""width: 408px; height: 417px; margin-left:608px;""></div></div>","null","delaylearn","learning","display_response","65980b9029b10879b38af54b","TsVsfTKS0CN8X6WJsRXE6px9VXF3","","","","","","","","","","","","","","","","","chosen stimuli: images/choice_trial_9.png","","","",""
"html-keyboard-response","157","318241","0.0-65.0-2.0","","null","","null","delaylearn","learning","feedback_duration_window","65980b9029b10879b38af54b","TsVsfTKS0CN8X6WJsRXE6px9VXF3","","","","","","","","","","","","","","","","","","7000","","",""
"html-keyboard-response","158","319743","0.0-65.0-3.0","","null","<div style='margin:auto;width: auto; font-size: 150%'><span style='font-weight: bold; font-size: 100px; color: red;'>0 points!</span><br><br></div>","null","delaylearn","learning","feedback_image_window","65980b9029b10879b38af54b","TsVsfTKS0CN8X6WJsRXE6px9VXF3","","","","","","","","","","","","","","","","","","","","",""
"html-keyboard-response","159","321830","0.0-66.0","","null","<div style=""font-size:100px;"">+</div>","null","delaylearn","learning","ITI","65980b9029b10879b38af54b","TsVsfTKS0CN8X6WJsRXE6px9VXF3","","","","","","","","","","","","","","","","","","","2079","",""
"html-keyboard-response","160","323407","0.0-67.0-0.0","","1575.6000000089407","<div style=""display: flex; flex-direction: column; align-items: center; margin-top: -40px;""><img src=""images/pattern_5.png"" style=""width: 234px; height: 230px; margin-top: -50px;""><div style=""display: flex; justify-content: space-between; margin-top: 33px;""><img src=""images/choice_trial_5.png"" style=""width: 408px; height: 417px; margin-right: 200px;""><img src=""images/choice_trial_15.png"" style=""width: 408px; height: 417px;""></div></div>","j","delaylearn","learning","trial","65980b9029b10879b38af54b","TsVsfTKS0CN8X6WJsRXE6px9VXF3","4","images/choice_trial_5.png","images/choice_trial_15.png","images/pattern_5.png","f","f","750","5","15","4","0","29","0","0","15","120","","","","",""
"html-keyboard-response","161","324414","0.0-67.0-1.0","","null","<div style=""display: flex; flex-direction: column; align-items: center; margin-top: -40px;""><img src=""images/pattern_5.png"" style=""width: 234px; height: 230px; margin-top: -50px;""><div style=""display: flex; justify-content: space-between; margin-top: 33px;""><img src=""images/choice_trial_15.png"" style=""width: 408px; height: 417px; margin-left:608px;""></div></div>","null","delaylearn","learning","display_response","65980b9029b10879b38af54b","TsVsfTKS0CN8X6WJsRXE6px9VXF3","","","","","","","","","","","","","","","","","chosen stimuli: images/choice_trial_15.png","","","",""
"html-keyboard-response","162","325168","0.0-67.0-2.0","","null","","null","delaylearn","learning","feedback_duration_window","65980b9029b10879b38af54b","TsVsfTKS0CN8X6WJsRXE6px9VXF3","","","","","","","","","","","","","","","","","","750","","",""
"html-keyboard-response","163","326675","0.0-67.0-3.0","","null","<div style='margin:auto;width: auto; font-size: 150%'><span style='font-weight: bold; font-size: 100px; color: red;'>0 points!</span><br><br></div>","null","delaylearn","learning","feedback_image_window","65980b9029b10879b38af54b","TsVsfTKS0CN8X6WJsRXE6px9VXF3","","","","","","","","","","","","","","","","","","","","",""
"html-keyboard-response","164","329062","0.0-68.0","","null","<div style=""font-size:100px;"">+</div>","null","delaylearn","learning","ITI","65980b9029b10879b38af54b","TsVsfTKS0CN8X6WJsRXE6px9VXF3","","","","","","","","","","","","","","","","","","","2382","",""
"html-keyboard-response","165","331174","0.0-69.0-0.0","","2110.6000000089407","<div style=""display: flex; flex-direction: column; align-items: center; margin-top: -40px;""><img src=""images/pattern_6.png"" style=""width: 234px; height: 230px; margin-top: -50px;""><div style=""display: flex; justify-content: space-between; margin-top: 33px;""><img src=""images/choice_trial_3.png"" style=""width: 408px; height: 417px; margin-right: 200px;""><img src=""images/choice_trial_10.png"" style=""width: 408px; height: 417px;""></div></div>","j","delaylearn","learning","trial","65980b9029b10879b38af54b","TsVsfTKS0CN8X6WJsRXE6px9VXF3","4","images/choice_trial_3.png","images/choice_trial_10.png","images/pattern_6.png","j","j","750","3","10","5","1","30","1","1","10","130","","","","",""
"html-keyboard-response","166","332182","0.0-69.0-1.0","","null","<div style=""display: flex; flex-direction: column; align-items: center; margin-top: -40px;""><img src=""images/pattern_6.png"" style=""width: 234px; height: 230px; margin-top: -50px;""><div style=""display: flex; justify-content: space-between; margin-top: 33px;""><img src=""images/choice_trial_10.png"" style=""width: 408px; height: 417px; margin-left:608px;""></div></div>","null","delaylearn","learning","display_response","65980b9029b10879b38af54b","TsVsfTKS0CN8X6WJsRXE6px9VXF3","","","","","","","","","","","","","","","","","chosen stimuli: images/choice_trial_10.png","","","",""
"html-keyboard-response","167","332949","0.0-69.0-2.0","","null","","null","delaylearn","learning","feedback_duration_window","65980b9029b10879b38af54b","TsVsfTKS0CN8X6WJsRXE6px9VXF3","","","","","","","","","","","","","","","","","","750","","",""
"html-keyboard-response","168","334465","0.0-69.0-3.0","","null","<div style='margin:auto;width: auto; font-size: 150%'><span style='font-weight: bold; font-size: 100px; color: green;'>+10 points!</span><br><br></div>","null","delaylearn","learning","feedback_image_window","65980b9029b10879b38af54b","TsVsfTKS0CN8X6WJsRXE6px9VXF3","","","","","","","","","","","","","","","","","","","","",""
"html-keyboard-response","169","334982","0.0-70.0-0.0","","null","","null","","","mood_trial_fixation","","","","","","","","","","","","","","","","","","","","","","",""
"lmdlab-html-vas-response","170","339162","0.0-70.0-1.0","","3174","How happy are you right now?","0.5023148148148148","delaylearn","learning","mood_trial","65980b9029b10879b38af54b","TsVsfTKS0CN8X6WJsRXE6px9VXF3","","","","","","","","","","","","","","","","","","","","[""Very unhappy"",""Very happy""]",""
"html-keyboard-response","171","341145","0.0-71.0","","null","<div style=""font-size:100px;"">+</div>","null","delaylearn","learning","ITI","65980b9029b10879b38af54b","TsVsfTKS0CN8X6WJsRXE6px9VXF3","","","","","","","","","","","","","","","","","","","1975","",""
"html-keyboard-response","172","342446","0.0-72.0-0.0","","1299.5","<div style=""display: flex; flex-direction: column; align-items: center; margin-top: -40px;""><img src=""images/pattern_4.png"" style=""width: 234px; height: 230px; margin-top: -50px;""><div style=""display: flex; justify-content: space-between; margin-top: 33px;""><img src=""images/choice_trial_7.png"" style=""width: 408px; height: 417px; margin-right: 200px;""><img src=""images/choice_trial_8.png"" style=""width: 408px; height: 417px;""></div></div>","f","delaylearn","learning","trial","65980b9029b10879b38af54b","TsVsfTKS0CN8X6WJsRXE6px9VXF3","4","images/choice_trial_7.png","images/choice_trial_8.png","images/pattern_4.png","j","j","7000","7","8","3","1","31","0","0","7","130","","","","",""
"html-keyboard-response","173","343449","0.0-72.0-1.0","","null","<div style=""display: flex; flex-direction: column; align-items: center; margin-top: -40px;""><img src=""images/pattern_4.png"" style=""width: 234px; height: 230px; margin-top: -50px;""><div style=""display: flex; justify-content: space-between; margin-top: 33px;""><img src=""images/choice_trial_7.png"" style=""width: 408px; height: 417px; margin-right: 608px;""></div></div>","null","delaylearn","learning","display_response","65980b9029b10879b38af54b","TsVsfTKS0CN8X6WJsRXE6px9VXF3","","","","","","","","","","","","","","","","","chosen stimuli: images/choice_trial_7.png","","","",""
"html-keyboard-response","174","350469","0.0-72.0-2.0","","null","","null","delaylearn","learning","feedback_duration_window","65980b9029b10879b38af54b","TsVsfTKS0CN8X6WJsRXE6px9VXF3","","","","","","","","","","","","","","","","","","7000","","",""
"html-keyboard-response","175","351976","0.0-72.0-3.0","","null","<div style='margin:auto;width: auto; font-size: 150%'><span style='font-weight: bold; font-size: 100px; color: red;'>0 points!</span><br><br></div>","null","delaylearn","learning","feedback_image_window","65980b9029b10879b38af54b","TsVsfTKS0CN8X6WJsRXE6px9VXF3","","","","","","","","","","","","","","","","","","","","",""
"html-keyboard-response","176","354308","0.0-73.0","","null","<div style=""font-size:100px;"">+</div>","null","delaylearn","learning","ITI","65980b9029b10879b38af54b","TsVsfTKS0CN8X6WJsRXE6px9VXF3","","","","","","","","","","","","","","","","","","","2319","",""
"html-keyboard-response","177","355160","0.0-74.0-0.0","","850","<div style=""display: flex; flex-direction: column; align-items: center; margin-top: -40px;""><img src=""images/pattern_3.png"" style=""width: 234px; height: 230px; margin-top: -50px;""><div style=""display: flex; justify-content: space-between; margin-top: 33px;""><img src=""images/choice_trial_6.png"" style=""width: 408px; height: 417px; margin-right: 200px;""><img src=""images/choice_trial_16.png"" style=""width: 408px; height: 417px;""></div></div>","j","delaylearn","learning","trial","65980b9029b10879b38af54b","TsVsfTKS0CN8X6WJsRXE6px9VXF3","4","images/choice_trial_6.png","images/choice_trial_16.png","images/pattern_3.png","j","j","7000","6","16","2","1","32","1","1","16","140","","","","",""
"html-keyboard-response","178","356179","0.0-74.0-1.0","","null","<div style=""display: flex; flex-direction: column; align-items: center; margin-top: -40px;""><img src=""images/pattern_3.png"" style=""width: 234px; height: 230px; margin-top: -50px;""><div style=""display: flex; justify-content: space-between; margin-top: 33px;""><img src=""images/choice_trial_16.png"" style=""width: 408px; height: 417px; margin-left:608px;""></div></div>","null","delaylearn","learning","display_response","65980b9029b10879b38af54b","TsVsfTKS0CN8X6WJsRXE6px9VXF3","","","","","","","","","","","","","","","","","chosen stimuli: images/choice_trial_16.png","","","",""
"html-keyboard-response","179","363184","0.0-74.0-2.0","","null","","null","delaylearn","learning","feedback_duration_window","65980b9029b10879b38af54b","TsVsfTKS0CN8X6WJsRXE6px9VXF3","","","","","","","","","","","","","","","","","","7000","","",""
"html-keyboard-response","180","364686","0.0-74.0-3.0","","null","<div style='margin:auto;width: auto; font-size: 150%'><span style='font-weight: bold; font-size: 100px; color: green;'>+10 points!</span><br><br></div>","null","delaylearn","learning","feedback_image_window","65980b9029b10879b38af54b","TsVsfTKS0CN8X6WJsRXE6px9VXF3","","","","","","","","","","","","","","","","","","","","",""
"html-keyboard-response","181","366620","0.0-75.0","","null","<div style=""font-size:100px;"">+</div>","null","delaylearn","learning","ITI","65980b9029b10879b38af54b","TsVsfTKS0CN8X6WJsRXE6px9VXF3","","","","","","","","","","","","","","","","","","","1926","",""
"html-keyboard-response","182","368305","0.0-76.0-0.0","","1683","<div style=""display: flex; flex-direction: column; align-items: center; margin-top: -40px;""><img src=""images/pattern_5.png"" style=""width: 234px; height: 230px; margin-top: -50px;""><div style=""display: flex; justify-content: space-between; margin-top: 33px;""><img src=""images/choice_trial_5.png"" style=""width: 408px; height: 417px; margin-right: 200px;""><img src=""images/choice_trial_15.png"" style=""width: 408px; height: 417px;""></div></div>","j","delaylearn","learning","trial","65980b9029b10879b38af54b","TsVsfTKS0CN8X6WJsRXE6px9VXF3","4","images/choice_trial_5.png","images/choice_trial_15.png","images/pattern_5.png","j","f","750","5","15","4","0","33","0","1","15","150","","","","",""
"html-keyboard-response","183","369307","0.0-76.0-1.0","","null","<div style=""display: flex; flex-direction: column; align-items: center; margin-top: -40px;""><img src=""images/pattern_5.png"" style=""width: 234px; height: 230px; margin-top: -50px;""><div style=""display: flex; justify-content: space-between; margin-top: 33px;""><img src=""images/choice_trial_15.png"" style=""width: 408px; height: 417px; margin-left:608px;""></div></div>","null","delaylearn","learning","display_response","65980b9029b10879b38af54b","TsVsfTKS0CN8X6WJsRXE6px9VXF3","","","","","","","","","","","","","","","","","chosen stimuli: images/choice_trial_15.png","","","",""
"html-keyboard-response","184","370071","0.0-76.0-2.0","","null","","null","delaylearn","learning","feedback_duration_window","65980b9029b10879b38af54b","TsVsfTKS0CN8X6WJsRXE6px9VXF3","","","","","","","","","","","","","","","","","","750","","",""
"html-keyboard-response","185","371572","0.0-76.0-3.0","","null","<div style='margin:auto;width: auto; font-size: 150%'><span style='font-weight: bold; font-size: 100px; color: green;'>+10 points!</span><br><br></div>","null","delaylearn","learning","feedback_image_window","65980b9029b10879b38af54b","TsVsfTKS0CN8X6WJsRXE6px9VXF3","","","","","","","","","","","","","","","","","","","","",""
"html-keyboard-response","186","373296","0.0-77.0","","null","<div style=""font-size:100px;"">+</div>","null","delaylearn","learning","ITI","65980b9029b10879b38af54b","TsVsfTKS0CN8X6WJsRXE6px9VXF3","","","","","","","","","","","","","","","","","","","1722","",""
"html-keyboard-response","187","375383","0.0-78.0-0.0","","2085.7000000029802","<div style=""display: flex; flex-direction: column; align-items: center; margin-top: -40px;""><img src=""images/pattern_1.png"" style=""width: 234px; height: 230px; margin-top: -50px;""><div style=""display: flex; justify-content: space-between; margin-top: 33px;""><img src=""images/choice_trial_1.png"" style=""width: 408px; height: 417px; margin-right: 200px;""><img src=""images/choice_trial_9.png"" style=""width: 408px; height: 417px;""></div></div>","f","delaylearn","learning","trial","65980b9029b10879b38af54b","TsVsfTKS0CN8X6WJsRXE6px9VXF3","4","images/choice_trial_1.png","images/choice_trial_9.png","images/pattern_1.png","f","f","7000","1","9","1","0","34","1","1","1","160","","","","",""
"html-keyboard-response","188","376398","0.0-78.0-1.0","","null","<div style=""display: flex; flex-direction: column; align-items: center; margin-top: -40px;""><img src=""images/pattern_1.png"" style=""width: 234px; height: 230px; margin-top: -50px;""><div style=""display: flex; justify-content: space-between; margin-top: 33px;""><img src=""images/choice_trial_1.png"" style=""width: 408px; height: 417px; margin-right: 608px;""></div></div>","null","delaylearn","learning","display_response","65980b9029b10879b38af54b","TsVsfTKS0CN8X6WJsRXE6px9VXF3","","","","","","","","","","","","","","","","","chosen stimuli: images/choice_trial_1.png","","","",""
"html-keyboard-response","189","383402","0.0-78.0-2.0","","null","","null","delaylearn","learning","feedback_duration_window","65980b9029b10879b38af54b","TsVsfTKS0CN8X6WJsRXE6px9VXF3","","","","","","","","","","","","","","","","","","7000","","",""
"html-keyboard-response","190","384909","0.0-78.0-3.0","","null","<div style='margin:auto;width: auto; font-size: 150%'><span style='font-weight: bold; font-size: 100px; color: green;'>+10 points!</span><br><br></div>","null","delaylearn","learning","feedback_image_window","65980b9029b10879b38af54b","TsVsfTKS0CN8X6WJsRXE6px9VXF3","","","","","","","","","","","","","","","","","","","","",""
"html-keyboard-response","191","385412","0.0-79.0-0.0","","null","","null","","","mood_trial_fixation","","","","","","","","","","","","","","","","","","","","","","",""
"lmdlab-html-vas-response","192","388555","0.0-79.0-1.0","","2125","How happy are you right now?","0.5462962962962963","delaylearn","learning","mood_trial","65980b9029b10879b38af54b","TsVsfTKS0CN8X6WJsRXE6px9VXF3","","","","","","","","","","","","","","","","","","","","[""Very unhappy"",""Very happy""]",""
"html-keyboard-response","193","390355","0.0-80.0","","null","<div style=""font-size:100px;"">+</div>","null","delaylearn","learning","ITI","65980b9029b10879b38af54b","TsVsfTKS0CN8X6WJsRXE6px9VXF3","","","","","","","","","","","","","","","","","","","1785","",""
"html-keyboard-response","194","391178","0.0-81.0-0.0","","820.9000000059605","<div style=""display: flex; flex-direction: column; align-items: center; margin-top: -40px;""><img src=""images/pattern_6.png"" style=""width: 234px; height: 230px; margin-top: -50px;""><div style=""display: flex; justify-content: space-between; margin-top: 33px;""><img src=""images/choice_trial_10.png"" style=""width: 408px; height: 417px; margin-right: 200px;""><img src=""images/choice_trial_3.png"" style=""width: 408px; height: 417px;""></div></div>","f","delaylearn","learning","trial","65980b9029b10879b38af54b","TsVsfTKS0CN8X6WJsRXE6px9VXF3","4","images/choice_trial_10.png","images/choice_trial_3.png","images/pattern_6.png","j","f","750","10","3","5","0","35","1","0","10","160","","","","",""
"html-keyboard-response","195","392194","0.0-81.0-1.0","","null","<div style=""display: flex; flex-direction: column; align-items: center; margin-top: -40px;""><img src=""images/pattern_6.png"" style=""width: 234px; height: 230px; margin-top: -50px;""><div style=""display: flex; justify-content: space-between; margin-top: 33px;""><img src=""images/choice_trial_10.png"" style=""width: 408px; height: 417px; margin-right: 608px;""></div></div>","null","delaylearn","learning","display_response","65980b9029b10879b38af54b","TsVsfTKS0CN8X6WJsRXE6px9VXF3","","","","","","","","","","","","","","","","","chosen stimuli: images/choice_trial_10.png","","","",""
"html-keyboard-response","196","392961","0.0-81.0-2.0","","null","","null","delaylearn","learning","feedback_duration_window","65980b9029b10879b38af54b","TsVsfTKS0CN8X6WJsRXE6px9VXF3","","","","","","","","","","","","","","","","","","750","","",""
"html-keyboard-response","197","394462","0.0-81.0-3.0","","null","<div style='margin:auto;width: auto; font-size: 150%'><span style='font-weight: bold; font-size: 100px; color: red;'>0 points!</span><br><br></div>","null","delaylearn","learning","feedback_image_window","65980b9029b10879b38af54b","TsVsfTKS0CN8X6WJsRXE6px9VXF3","","","","","","","","","","","","","","","","","","","","",""
"html-keyboard-response","198","396618","0.0-82.0","","null","<div style=""font-size:100px;"">+</div>","null","delaylearn","learning","ITI","65980b9029b10879b38af54b","TsVsfTKS0CN8X6WJsRXE6px9VXF3","","","","","","","","","","","","","","","","","","","2146","",""
"html-keyboard-response","199","399264","0.0-83.0-0.0","","2644.0999999940395","<div style=""display: flex; flex-direction: column; align-items: center; margin-top: -40px;""><img src=""images/pattern_3.png"" style=""width: 234px; height: 230px; margin-top: -50px;""><div style=""display: flex; justify-content: space-between; margin-top: 33px;""><img src=""images/choice_trial_6.png"" style=""width: 408px; height: 417px; margin-right: 200px;""><img src=""images/choice_trial_16.png"" style=""width: 408px; height: 417px;""></div></div>","j","delaylearn","learning","trial","65980b9029b10879b38af54b","TsVsfTKS0CN8X6WJsRXE6px9VXF3","4","images/choice_trial_6.png","images/choice_trial_16.png","images/pattern_3.png","j","j","7000","6","16","2","1","36","1","1","16","170","","","","",""
"html-keyboard-response","200","400277","0.0-83.0-1.0","","null","<div style=""display: flex; flex-direction: column; align-items: center; margin-top: -40px;""><img src=""images/pattern_3.png"" style=""width: 234px; height: 230px; margin-top: -50px;""><div style=""display: flex; justify-content: space-between; margin-top: 33px;""><img src=""images/choice_trial_16.png"" style=""width: 408px; height: 417px; margin-left:608px;""></div></div>","null","delaylearn","learning","display_response","65980b9029b10879b38af54b","TsVsfTKS0CN8X6WJsRXE6px9VXF3","","","","","","","","","","","","","","","","","chosen stimuli: images/choice_trial_16.png","","","",""
"html-keyboard-response","201","407292","0.0-83.0-2.0","","null","","null","delaylearn","learning","feedback_duration_window","65980b9029b10879b38af54b","TsVsfTKS0CN8X6WJsRXE6px9VXF3","","","","","","","","","","","","","","","","","","7000","","",""
"html-keyboard-response","202","408793","0.0-83.0-3.0","","null","<div style='margin:auto;width: auto; font-size: 150%'><span style='font-weight: bold; font-size: 100px; color: green;'>+10 points!</span><br><br></div>","null","delaylearn","learning","feedback_image_window","65980b9029b10879b38af54b","TsVsfTKS0CN8X6WJsRXE6px9VXF3","","","","","","","","","","","","","","","","","","","","",""
"html-keyboard-response","203","410628","0.0-84.0","","null","<div style=""font-size:100px;"">+</div>","null","delaylearn","learning","ITI","65980b9029b10879b38af54b","TsVsfTKS0CN8X6WJsRXE6px9VXF3","","","","","","","","","","","","","","","","","","","1823","",""
"html-keyboard-response","204","411619","0.0-85.0-0.0","","989.2000000029802","<div style=""display: flex; flex-direction: column; align-items: center; margin-top: -40px;""><img src=""images/pattern_4.png"" style=""width: 234px; height: 230px; margin-top: -50px;""><div style=""display: flex; justify-content: space-between; margin-top: 33px;""><img src=""images/choice_trial_7.png"" style=""width: 408px; height: 417px; margin-right: 200px;""><img src=""images/choice_trial_8.png"" style=""width: 408px; height: 417px;""></div></div>","f","delaylearn","learning","trial","65980b9029b10879b38af54b","TsVsfTKS0CN8X6WJsRXE6px9VXF3","4","images/choice_trial_7.png","images/choice_trial_8.png","images/pattern_4.png","f","j","7000","7","8","3","1","37","0","1","7","180","","","","",""
"html-keyboard-response","205","412627","0.0-85.0-1.0","","null","<div style=""display: flex; flex-direction: column; align-items: center; margin-top: -40px;""><img src=""images/pattern_4.png"" style=""width: 234px; height: 230px; margin-top: -50px;""><div style=""display: flex; justify-content: space-between; margin-top: 33px;""><img src=""images/choice_trial_7.png"" style=""width: 408px; height: 417px; margin-right: 608px;""></div></div>","null","delaylearn","learning","display_response","65980b9029b10879b38af54b","TsVsfTKS0CN8X6WJsRXE6px9VXF3","","","","","","","","","","","","","","","","","chosen stimuli: images/choice_trial_7.png","","","",""
"html-keyboard-response","206","419644","0.0-85.0-2.0","","null","","null","delaylearn","learning","feedback_duration_window","65980b9029b10879b38af54b","TsVsfTKS0CN8X6WJsRXE6px9VXF3","","","","","","","","","","","","","","","","","","7000","","",""
"html-keyboard-response","207","421151","0.0-85.0-3.0","","null","<div style='margin:auto;width: auto; font-size: 150%'><span style='font-weight: bold; font-size: 100px; color: green;'>+10 points!</span><br><br></div>","null","delaylearn","learning","feedback_image_window","65980b9029b10879b38af54b","TsVsfTKS0CN8X6WJsRXE6px9VXF3","","","","","","","","","","","","","","","","","","","","",""
"html-keyboard-response","208","422830","0.0-86.0","","null","<div style=""font-size:100px;"">+</div>","null","delaylearn","learning","ITI","65980b9029b10879b38af54b","TsVsfTKS0CN8X6WJsRXE6px9VXF3","","","","","","","","","","","","","","","","","","","1676","",""
"html-keyboard-response","209","425026","0.0-87.0-0.0","","2194","<div style=""display: flex; flex-direction: column; align-items: center; margin-top: -40px;""><img src=""images/pattern_7.png"" style=""width: 234px; height: 230px; margin-top: -50px;""><div style=""display: flex; justify-content: space-between; margin-top: 33px;""><img src=""images/choice_trial_13.png"" style=""width: 408px; height: 417px; margin-right: 200px;""><img src=""images/choice_trial_4.png"" style=""width: 408px; height: 417px;""></div></div>","f","delaylearn","learning","trial","65980b9029b10879b38af54b","TsVsfTKS0CN8X6WJsRXE6px9VXF3","4","images/choice_trial_13.png","images/choice_trial_4.png","images/pattern_7.png","f","f","750","13","4","6","0","38","1","1","13","190","","","","",""
"html-keyboard-response","210","426035","0.0-87.0-1.0","","null","<div style=""display: flex; flex-direction: column; align-items: center; margin-top: -40px;""><img src=""images/pattern_7.png"" style=""width: 234px; height: 230px; margin-top: -50px;""><div style=""display: flex; justify-content: space-between; margin-top: 33px;""><img src=""images/choice_trial_13.png"" style=""width: 408px; height: 417px; margin-right: 608px;""></div></div>","null","delaylearn","learning","display_response","65980b9029b10879b38af54b","TsVsfTKS0CN8X6WJsRXE6px9VXF3","","","","","","","","","","","","","","","","","chosen stimuli: images/choice_trial_13.png","","","",""
"html-keyboard-response","211","426789","0.0-87.0-2.0","","null","","null","delaylearn","learning","feedback_duration_window","65980b9029b10879b38af54b","TsVsfTKS0CN8X6WJsRXE6px9VXF3","","","","","","","","","","","","","","","","","","750","","",""
"html-keyboard-response","212","428292","0.0-87.0-3.0","","null","<div style='margin:auto;width: auto; font-size: 150%'><span style='font-weight: bold; font-size: 100px; color: green;'>+10 points!</span><br><br></div>","null","delaylearn","learning","feedback_image_window","65980b9029b10879b38af54b","TsVsfTKS0CN8X6WJsRXE6px9VXF3","","","","","","","","","","","","","","","","","","","","",""
"html-keyboard-response","213","430764","0.0-88.0","","null","<div style=""font-size:100px;"">+</div>","null","delaylearn","learning","ITI","65980b9029b10879b38af54b","TsVsfTKS0CN8X6WJsRXE6px9VXF3","","","","","","","","","","","","","","","","","","","2457","",""
"html-keyboard-response","214","433391","0.0-89.0-0.0","","2624.2999999970198","<div style=""display: flex; flex-direction: column; align-items: center; margin-top: -40px;""><img src=""images/pattern_1.png"" style=""width: 234px; height: 230px; margin-top: -50px;""><div style=""display: flex; justify-content: space-between; margin-top: 33px;""><img src=""images/choice_trial_1.png"" style=""width: 408px; height: 417px; margin-right: 200px;""><img src=""images/choice_trial_9.png"" style=""width: 408px; height: 417px;""></div></div>","f","delaylearn","learning","trial","65980b9029b10879b38af54b","TsVsfTKS0CN8X6WJsRXE6px9VXF3","4","images/choice_trial_1.png","images/choice_trial_9.png","images/pattern_1.png","f","f","7000","1","9","1","0","39","1","1","1","200","","","","",""
"html-keyboard-response","215","434403","0.0-89.0-1.0","","null","<div style=""display: flex; flex-direction: column; align-items: center; margin-top: -40px;""><img src=""images/pattern_1.png"" style=""width: 234px; height: 230px; margin-top: -50px;""><div style=""display: flex; justify-content: space-between; margin-top: 33px;""><img src=""images/choice_trial_1.png"" style=""width: 408px; height: 417px; margin-right: 608px;""></div></div>","null","delaylearn","learning","display_response","65980b9029b10879b38af54b","TsVsfTKS0CN8X6WJsRXE6px9VXF3","","","","","","","","","","","","","","","","","chosen stimuli: images/choice_trial_1.png","","","",""
"html-keyboard-response","216","441408","0.0-89.0-2.0","","null","","null","delaylearn","learning","feedback_duration_window","65980b9029b10879b38af54b","TsVsfTKS0CN8X6WJsRXE6px9VXF3","","","","","","","","","","","","","","","","","","7000","","",""
"html-keyboard-response","217","442914","0.0-89.0-3.0","","null","<div style='margin:auto;width: auto; font-size: 150%'><span style='font-weight: bold; font-size: 100px; color: green;'>+10 points!</span><br><br></div>","null","delaylearn","learning","feedback_image_window","65980b9029b10879b38af54b","TsVsfTKS0CN8X6WJsRXE6px9VXF3","","","","","","","","","","","","","","","","","","","","",""
"html-keyboard-response","218","443416","0.0-90.0-0.0","","null","","null","","","mood_trial_fixation","","","","","","","","","","","","","","","","","","","","","","",""
"lmdlab-html-vas-response","219","446901","0.0-90.0-1.0","","2466","How happy are you right now?","0.5324074074074074","delaylearn","learning","mood_trial","65980b9029b10879b38af54b","TsVsfTKS0CN8X6WJsRXE6px9VXF3","","","","","","","","","","","","","","","","","","","","[""Very unhappy"",""Very happy""]",""
"html-keyboard-response","220","449189","0.0-91.0","","null","<div style=""font-size:100px;"">+</div>","null","delaylearn","learning","ITI","65980b9029b10879b38af54b","TsVsfTKS0CN8X6WJsRXE6px9VXF3","","","","","","","","","","","","","","","","","","","2282","",""
