"trial_type","trial_index","time_elapsed","internal_node_id","participant","rt","stimulus","response","exp_name","exp_stage","test_part","subjectID","databaseID","counterbal","choice_stimuli_1","choice_stimuli_2","pattern_stimuli","rewarded_answer","correct_answer","feedback_duration_times","stim_left","stim_right","pair","leftright_counter","trial","response_correct","response_rewarded","chosen_stim","counter","displayed_choice","feedback_durations","ITI_duration","labels","rest_warning"
"pavlovia","0","533","0.0-0.0","","","","","","","","","","","","","","","","","","","","","","","","","","","","","",""
"html-keyboard-response","1","3544","0.0-1.0","","null","<div style=""font-size:100px;"">+</div>","null","delaylearn","learning","pre_fixation","5ada0b521771b700010a1777","","","","","","","","","","","","","","","","","","","","","",""
"html-keyboard-response","2","5006","0.0-2.0-0.0","","1460.7000000476837","<div style=""display: flex; flex-direction: column; align-items: center; margin-top: -40px;""><img src=""images/demo_images/pattern_1.png"" style=""width: 234px; height: 230px; margin-top: -50px;""><div style=""display: flex; justify-content: space-between; margin-top: 33px;""><img src=""images/demo_images/choice_trial_2.png"" style=""width: 408px; height: 417px; margin-right: 200px;""><img src=""images/demo_images/choice_trial_1.png"" style=""width: 408px; height: 417px;""></div></div>","f","delaylearn","learning","trial","5ada0b521771b700010a1777","h8Ym18yhTTVqpjo7FTKapTwe0RK2","1","images/demo_images/choice_trial_2.png","images/demo_images/choice_trial_1.png","images/demo_images/pattern_1.png","j","j","3000","2","1","20","1","1","0","0","2","0","","","","",""
"html-keyboard-response","3","6021","0.0-2.0-1.0","","null","<div style=""display: flex; flex-direction: column; align-items: center; margin-top: -40px;""><img src=""images/demo_images/pattern_1.png"" style=""width: 234px; height: 230px; margin-top: -50px;""><div style=""display: flex; justify-content: space-between; margin-top: 33px;""><img src=""images/demo_images/choice_trial_2.png"" style=""width: 408px; height: 417px; margin-right: 608px;""></div></div>","null","delaylearn","learning","display_response","5ada0b521771b700010a1777","h8Ym18yhTTVqpjo7FTKapTwe0RK2","","","","","","","","","","","","","","","","","chosen stimuli: images/demo_images/choice_trial_2.png","","","",""
"html-keyboard-response","4","9028","0.0-2.0-2.0","","null","","null","delaylearn","learning","feedback_duration_window","5ada0b521771b700010a1777","h8Ym18yhTTVqpjo7FTKapTwe0RK2","","","","","","","","","","","","","","","","","","3000","","",""
"html-keyboard-response","5","10545","0.0-2.0-3.0","","null","<div style='margin:auto;width: auto; font-size: 150%'><span style='font-weight: bold; font-size: 100px; color: red;'>0 points!</span><br><br></div>","null","delaylearn","learning","feedback_image_window","5ada0b521771b700010a1777","h8Ym18yhTTVqpjo7FTKapTwe0RK2","","","","","","","","","","","","","","","","","","","","",""
"html-keyboard-response","6","12352","0.0-3.0","","null","<div style=""font-size:100px;"">+</div>","null","delaylearn","learning","ITI","5ada0b521771b700010a1777","h8Ym18yhTTVqpjo7FTKapTwe0RK2","","","","","","","","","","","","","","","","","","","1793","",""
"html-keyboard-response","7","13242","0.0-4.0-0.0","","888.3999999761581","<div style=""display: flex; flex-direction: column; align-items: center; margin-top: -40px;""><img src=""images/demo_images/pattern_1.png"" style=""width: 234px; height: 230px; margin-top: -50px;""><div style=""display: flex; justify-content: space-between; margin-top: 33px;""><img src=""images/demo_images/choice_trial_2.png"" style=""width: 408px; height: 417px; margin-right: 200px;""><img src=""images/demo_images/choice_trial_1.png"" style=""width: 408px; height: 417px;""></div></div>","j","delaylearn","learning","trial","5ada0b521771b700010a1777","h8Ym18yhTTVqpjo7FTKapTwe0RK2","1","images/demo_images/choice_trial_2.png","images/demo_images/choice_trial_1.png","images/demo_images/pattern_1.png","j","j","3000","2","1","20","1","2","1","1","1","10","","","","",""
"html-keyboard-response","8","14253","0.0-4.0-1.0","","null","<div style=""display: flex; flex-direction: column; align-items: center; margin-top: -40px;""><img src=""images/demo_images/pattern_1.png"" style=""width: 234px; height: 230px; margin-top: -50px;""><div style=""display: flex; justify-content: space-between; margin-top: 33px;""><img src=""images/demo_images/choice_trial_1.png"" style=""width: 408px; height: 417px; margin-left:608px;""></div></div>","null","delaylearn","learning","display_response","5ada0b521771b700010a1777","h8Ym18yhTTVqpjo7FTKapTwe0RK2","","","","","","","","","","","","","","","","","chosen stimuli: images/demo_images/choice_trial_1.png","","","",""
"html-keyboard-response","9","17257","0.0-4.0-2.0","","null","","null","delaylearn","learning","feedback_duration_window","5ada0b521771b700010a1777","h8Ym18yhTTVqpjo7FTKapTwe0RK2","","","","","","","","","","","","","","","","","","3000","","",""
"html-keyboard-response","10","18773","0.0-4.0-3.0","","null","<div style='margin:auto;width: auto; font-size: 150%'><span style='font-weight: bold; font-size: 100px; color: green;'>+10 points!</span><br><br></div>","null","delaylearn","learning","feedback_image_window","5ada0b521771b700010a1777","h8Ym18yhTTVqpjo7FTKapTwe0RK2","","","","","","","","","","","","","","","","","","","","",""
"html-keyboard-response","11","20439","0.0-5.0","","null","<div style=""font-size:100px;"">+</div>","null","delaylearn","learning","ITI","5ada0b521771b700010a1777","h8Ym18yhTTVqpjo7FTKapTwe0RK2","","","","","","","","","","","","","","","","","","","1653","",""
"html-keyboard-response","12","21554","0.0-6.0-0.0","","1114.3999999761581","<div style=""display: flex; flex-direction: column; align-items: center; margin-top: -40px;""><img src=""images/demo_images/pattern_1.png"" style=""width: 234px; height: 230px; margin-top: -50px;""><div style=""display: flex; justify-content: space-between; margin-top: 33px;""><img src=""images/demo_images/choice_trial_1.png"" style=""width: 408px; height: 417px; margin-right: 200px;""><img src=""images/demo_images/choice_trial_2.png"" style=""width: 408px; height: 417px;""></div></div>","f","delaylearn","learning","trial","5ada0b521771b700010a1777","h8Ym18yhTTVqpjo7FTKapTwe0RK2","1","images/demo_images/choice_trial_1.png","images/demo_images/choice_trial_2.png","images/demo_images/pattern_1.png","j","f","3000","1","2","20","0","3","1","0","1","10","","","","",""
"html-keyboard-response","13","22557","0.0-6.0-1.0","","null","<div style=""display: flex; flex-direction: column; align-items: center; margin-top: -40px;""><img src=""images/demo_images/pattern_1.png"" style=""width: 234px; height: 230px; margin-top: -50px;""><div style=""display: flex; justify-content: space-between; margin-top: 33px;""><img src=""images/demo_images/choice_trial_1.png"" style=""width: 408px; height: 417px; margin-right: 608px;""></div></div>","null","delaylearn","learning","display_response","5ada0b521771b700010a1777","h8Ym18yhTTVqpjo7FTKapTwe0RK2","","","","","","","","","","","","","","","","","chosen stimuli: images/demo_images/choice_trial_1.png","","","",""
"html-keyboard-response","14","25573","0.0-6.0-2.0","","null","","null","delaylearn","learning","feedback_duration_window","5ada0b521771b700010a1777","h8Ym18yhTTVqpjo7FTKapTwe0RK2","","","","","","","","","","","","","","","","","","3000","","",""
"html-keyboard-response","15","27088","0.0-6.0-3.0","","null","<div style='margin:auto;width: auto; font-size: 150%'><span style='font-weight: bold; font-size: 100px; color: red;'>0 points!</span><br><br></div>","null","delaylearn","learning","feedback_image_window","5ada0b521771b700010a1777","h8Ym18yhTTVqpjo7FTKapTwe0RK2","","","","","","","","","","","","","","","","","","","","",""
"html-keyboard-response","16","28939","0.0-7.0","","null","<div style=""font-size:100px;"">+</div>","null","delaylearn","learning","ITI","5ada0b521771b700010a1777","h8Ym18yhTTVqpjo7FTKapTwe0RK2","","","","","","","","","","","","","","","","","","","1834","",""
"html-keyboard-response","17","30085","0.0-8.0-0.0","","1145.2000000476837","<div style=""display: flex; flex-direction: column; align-items: center; margin-top: -40px;""><img src=""images/demo_images/pattern_1.png"" style=""width: 234px; height: 230px; margin-top: -50px;""><div style=""display: flex; justify-content: space-between; margin-top: 33px;""><img src=""images/demo_images/choice_trial_1.png"" style=""width: 408px; height: 417px; margin-right: 200px;""><img src=""images/demo_images/choice_trial_2.png"" style=""width: 408px; height: 417px;""></div></div>","j","delaylearn","learning","trial","5ada0b521771b700010a1777","h8Ym18yhTTVqpjo7FTKapTwe0RK2","1","images/demo_images/choice_trial_1.png","images/demo_images/choice_trial_2.png","images/demo_images/pattern_1.png","f","f","3000","1","2","20","0","4","0","0","2","10","","","","",""
"html-keyboard-response","18","31099","0.0-8.0-1.0","","null","<div style=""display: flex; flex-direction: column; align-items: center; margin-top: -40px;""><img src=""images/demo_images/pattern_1.png"" style=""width: 234px; height: 230px; margin-top: -50px;""><div style=""display: flex; justify-content: space-between; margin-top: 33px;""><img src=""images/demo_images/choice_trial_2.png"" style=""width: 408px; height: 417px; margin-left:608px;""></div></div>","null","delaylearn","learning","display_response","5ada0b521771b700010a1777","h8Ym18yhTTVqpjo7FTKapTwe0RK2","","","","","","","","","","","","","","","","","chosen stimuli: images/demo_images/choice_trial_2.png","","","",""
"html-keyboard-response","19","34111","0.0-8.0-2.0","","null","","null","delaylearn","learning","feedback_duration_window","5ada0b521771b700010a1777","h8Ym18yhTTVqpjo7FTKapTwe0RK2","","","","","","","","","","","","","","","","","","3000","","",""
"html-keyboard-response","20","35616","0.0-8.0-3.0","","null","<div style='margin:auto;width: auto; font-size: 150%'><span style='font-weight: bold; font-size: 100px; color: red;'>0 points!</span><br><br></div>","null","delaylearn","learning","feedback_image_window","5ada0b521771b700010a1777","h8Ym18yhTTVqpjo7FTKapTwe0RK2","","","","","","","","","","","","","","","","","","","","",""
"html-keyboard-response","21","36124","0.0-9.0-0.0","","null","","null","","","mood_trial_fixation","","","","","","","","","","","","","","","","","","","","","","",""
"lmdlab-html-vas-response","22","41405","0.0-9.0-1.0","","4269","How happy are you right now?","0.2916666666666667","delaylearn","learning","mood_trial","5ada0b521771b700010a1777","h8Ym18yhTTVqpjo7FTKapTwe0RK2","","","","","","","","","","","","","","","","","","","","[""Very unhappy"",""Very happy""]",""
"html-keyboard-response","23","43907","0.0-10.0","","null","<div style=""font-size:100px;"">+</div>","null","delaylearn","learning","ITI","5ada0b521771b700010a1777","h8Ym18yhTTVqpjo7FTKapTwe0RK2","","","","","","","","","","","","","","","","","","","2498","",""
"html-keyboard-response","24","45302","0.0-11.0-0.0","","1394.1000000238419","<div style=""display: flex; flex-direction: column; align-items: center; margin-top: -40px;""><img src=""images/demo_images/pattern_1.png"" style=""width: 234px; height: 230px; margin-top: -50px;""><div style=""display: flex; justify-content: space-between; margin-top: 33px;""><img src=""images/demo_images/choice_trial_2.png"" style=""width: 408px; height: 417px; margin-right: 200px;""><img src=""images/demo_images/choice_trial_1.png"" style=""width: 408px; height: 417px;""></div></div>","f","delaylearn","learning","trial","5ada0b521771b700010a1777","h8Ym18yhTTVqpjo7FTKapTwe0RK2","1","images/demo_images/choice_trial_2.png","images/demo_images/choice_trial_1.png","images/demo_images/pattern_1.png","j","j","3000","2","1","20","1","5","0","0","2","10","","","","",""
"html-keyboard-response","25","46310","0.0-11.0-1.0","","null","<div style=""display: flex; flex-direction: column; align-items: center; margin-top: -40px;""><img src=""images/demo_images/pattern_1.png"" style=""width: 234px; height: 230px; margin-top: -50px;""><div style=""display: flex; justify-content: space-between; margin-top: 33px;""><img src=""images/demo_images/choice_trial_2.png"" style=""width: 408px; height: 417px; margin-right: 608px;""></div></div>","null","delaylearn","learning","display_response","5ada0b521771b700010a1777","h8Ym18yhTTVqpjo7FTKapTwe0RK2","","","","","","","","","","","","","","","","","chosen stimuli: images/demo_images/choice_trial_2.png","","","",""
"html-keyboard-response","26","49317","0.0-11.0-2.0","","null","","null","delaylearn","learning","feedback_duration_window","5ada0b521771b700010a1777","h8Ym18yhTTVqpjo7FTKapTwe0RK2","","","","","","","","","","","","","","","","","","3000","","",""
"html-keyboard-response","27","50822","0.0-11.0-3.0","","null","<div style='margin:auto;width: auto; font-size: 150%'><span style='font-weight: bold; font-size: 100px; color: red;'>0 points!</span><br><br></div>","null","delaylearn","learning","feedback_image_window","5ada0b521771b700010a1777","h8Ym18yhTTVqpjo7FTKapTwe0RK2","","","","","","","","","","","","","","","","","","","","",""
"html-keyboard-response","28","52793","0.0-12.0","","null","<div style=""font-size:100px;"">+</div>","null","delaylearn","learning","ITI","5ada0b521771b700010a1777","h8Ym18yhTTVqpjo7FTKapTwe0RK2","","","","","","","","","","","","","","","","","","","1966","",""
"html-keyboard-response","29","54873","0.0-13.0-0.0","","2078","<div style=""display: flex; flex-direction: column; align-items: center; margin-top: -40px;""><img src=""images/demo_images/pattern_1.png"" style=""width: 234px; height: 230px; margin-top: -50px;""><div style=""display: flex; justify-content: space-between; margin-top: 33px;""><img src=""images/demo_images/choice_trial_1.png"" style=""width: 408px; height: 417px; margin-right: 200px;""><img src=""images/demo_images/choice_trial_2.png"" style=""width: 408px; height: 417px;""></div></div>","f","delaylearn","learning","trial","5ada0b521771b700010a1777","h8Ym18yhTTVqpjo7FTKapTwe0RK2","1","images/demo_images/choice_trial_1.png","images/demo_images/choice_trial_2.png","images/demo_images/pattern_1.png","f","f","3000","1","2","20","0","6","1","1","1","20","","","","",""
"html-keyboard-response","30","55888","0.0-13.0-1.0","","null","<div style=""display: flex; flex-direction: column; align-items: center; margin-top: -40px;""><img src=""images/demo_images/pattern_1.png"" style=""width: 234px; height: 230px; margin-top: -50px;""><div style=""display: flex; justify-content: space-between; margin-top: 33px;""><img src=""images/demo_images/choice_trial_1.png"" style=""width: 408px; height: 417px; margin-right: 608px;""></div></div>","null","delaylearn","learning","display_response","5ada0b521771b700010a1777","h8Ym18yhTTVqpjo7FTKapTwe0RK2","","","","","","","","","","","","","","","","","chosen stimuli: images/demo_images/choice_trial_1.png","","","",""
"html-keyboard-response","31","58890","0.0-13.0-2.0","","null","","null","delaylearn","learning","feedback_duration_window","5ada0b521771b700010a1777","h8Ym18yhTTVqpjo7FTKapTwe0RK2","","","","","","","","","","","","","","","","","","3000","","",""
"html-keyboard-response","32","60405","0.0-13.0-3.0","","null","<div style='margin:auto;width: auto; font-size: 150%'><span style='font-weight: bold; font-size: 100px; color: green;'>+10 points!</span><br><br></div>","null","delaylearn","learning","feedback_image_window","5ada0b521771b700010a1777","h8Ym18yhTTVqpjo7FTKapTwe0RK2","","","","","","","","","","","","","","","","","","","","",""
"html-keyboard-response","33","62378","0.0-14.0","","null","<div style=""font-size:100px;"">+</div>","null","delaylearn","learning","ITI","5ada0b521771b700010a1777","h8Ym18yhTTVqpjo7FTKapTwe0RK2","","","","","","","","","","","","","","","","","","","1969","",""
"html-keyboard-response","34","63520","0.0-15.0-0.0","","1139.3999999761581","<div style=""display: flex; flex-direction: column; align-items: center; margin-top: -40px;""><img src=""images/demo_images/pattern_1.png"" style=""width: 234px; height: 230px; margin-top: -50px;""><div style=""display: flex; justify-content: space-between; margin-top: 33px;""><img src=""images/demo_images/choice_trial_2.png"" style=""width: 408px; height: 417px; margin-right: 200px;""><img src=""images/demo_images/choice_trial_1.png"" style=""width: 408px; height: 417px;""></div></div>","j","delaylearn","learning","trial","5ada0b521771b700010a1777","h8Ym18yhTTVqpjo7FTKapTwe0RK2","1","images/demo_images/choice_trial_2.png","images/demo_images/choice_trial_1.png","images/demo_images/pattern_1.png","j","j","3000","2","1","20","1","7","1","1","1","30","","","","",""
"html-keyboard-response","35","64533","0.0-15.0-1.0","","null","<div style=""display: flex; flex-direction: column; align-items: center; margin-top: -40px;""><img src=""images/demo_images/pattern_1.png"" style=""width: 234px; height: 230px; margin-top: -50px;""><div style=""display: flex; justify-content: space-between; margin-top: 33px;""><img src=""images/demo_images/choice_trial_1.png"" style=""width: 408px; height: 417px; margin-left:608px;""></div></div>","null","delaylearn","learning","display_response","5ada0b521771b700010a1777","h8Ym18yhTTVqpjo7FTKapTwe0RK2","","","","","","","","","","","","","","","","","chosen stimuli: images/demo_images/choice_trial_1.png","","","",""
"html-keyboard-response","36","67534","0.0-15.0-2.0","","null","","null","delaylearn","learning","feedback_duration_window","5ada0b521771b700010a1777","h8Ym18yhTTVqpjo7FTKapTwe0RK2","","","","","","","","","","","","","","","","","","3000","","",""
"html-keyboard-response","37","69045","0.0-15.0-3.0","","null","<div style='margin:auto;width: auto; font-size: 150%'><span style='font-weight: bold; font-size: 100px; color: green;'>+10 points!</span><br><br></div>","null","delaylearn","learning","feedback_image_window","5ada0b521771b700010a1777","h8Ym18yhTTVqpjo7FTKapTwe0RK2","","","","","","","","","","","","","","","","","","","","",""
"html-keyboard-response","38","71328","0.0-16.0","","null","<div style=""font-size:100px;"">+</div>","null","delaylearn","learning","ITI","5ada0b521771b700010a1777","h8Ym18yhTTVqpjo7FTKapTwe0RK2","","","","","","","","","","","","","","","","","","","2279","",""
"html-keyboard-response","39","72045","0.0-17.0-0.0","","715.1000000238419","<div style=""display: flex; flex-direction: column; align-items: center; margin-top: -40px;""><img src=""images/demo_images/pattern_1.png"" style=""width: 234px; height: 230px; margin-top: -50px;""><div style=""display: flex; justify-content: space-between; margin-top: 33px;""><img src=""images/demo_images/choice_trial_1.png"" style=""width: 408px; height: 417px; margin-right: 200px;""><img src=""images/demo_images/choice_trial_2.png"" style=""width: 408px; height: 417px;""></div></div>","f","delaylearn","learning","trial","5ada0b521771b700010a1777","h8Ym18yhTTVqpjo7FTKapTwe0RK2","1","images/demo_images/choice_trial_1.png","images/demo_images/choice_trial_2.png","images/demo_images/pattern_1.png","f","f","3000","1","2","20","0","8","1","1","1","40","","","","",""
"html-keyboard-response","40","73052","0.0-17.0-1.0","","null","<div style=""display: flex; flex-direction: column; align-items: center; margin-top: -40px;""><img src=""images/demo_images/pattern_1.png"" style=""width: 234px; height: 230px; margin-top: -50px;""><div style=""display: flex; justify-content: space-between; margin-top: 33px;""><img src=""images/demo_images/choice_trial_1.png"" style=""width: 408px; height: 417px; margin-right: 608px;""></div></div>","null","delaylearn","learning","display_response","5ada0b521771b700010a1777","h8Ym18yhTTVqpjo7FTKapTwe0RK2","","","","","","","","","","","","","","","","","chosen stimuli: images/demo_images/choice_trial_1.png","","","",""
"html-keyboard-response","41","76063","0.0-17.0-2.0","","null","","null","delaylearn","learning","feedback_duration_window","5ada0b521771b700010a1777","h8Ym18yhTTVqpjo7FTKapTwe0RK2","","","","","","","","","","","","","","","","","","3000","","",""
"html-keyboard-response","42","77578","0.0-17.0-3.0","","null","<div style='margin:auto;width: auto; font-size: 150%'><span style='font-weight: bold; font-size: 100px; color: green;'>+10 points!</span><br><br></div>","null","delaylearn","learning","feedback_image_window","5ada0b521771b700010a1777","h8Ym18yhTTVqpjo7FTKapTwe0RK2","","","","","","","","","","","","","","","","","","","","",""
"html-button-response","43","80618","0.0-18.0","","3038.100000023842","
  <div style=""display: flex; align-items: center; justify-content: center; height: 80vh;"">
  <div>
          <img src=""images/inst_demo_finish.png"" style=""width: 80vw; height:auto;"">
          <br><br>
      </div>
      <br><br>
  </div>","0","","","","","","","","","","","","","","","","","","","","","","","","","",""
"html-keyboard-response","44","84902","0.0-19.0","","4283","
  <div style=""display: flex; align-items: center; justify-content: center; height: 80vh;"">
  <div>
          <img src=""images/inst_6.png"" style=""width: 80vw; height:auto;"">
          <br><br>
      </div>
      <br><br>
  </div>","f","","","","","","","","","","","","","","","","","","","","","","","","","",""
"html-keyboard-response","45","87909","0.0-20.0","","null","<div style=""font-size:100px;"">+</div>","null","delaylearn","learning","pre_fixation","5ada0b521771b700010a1777","","","","","","","","","","","","","","","","","","","","","",""
"html-keyboard-response","46","90404","0.0-21.0","","null","<div style=""font-size:100px;"">+</div>","null","delaylearn","learning","ITI","5ada0b521771b700010a1777","h8Ym18yhTTVqpjo7FTKapTwe0RK2","","","","","","","","","","","","","","","","","","","2481","",""
"html-keyboard-response","47","92217","0.0-22.0-0.0","","1811.1000000238419","<div style=""display: flex; flex-direction: column; align-items: center; margin-top: -40px;""><img src=""images/pattern_3.png"" style=""width: 234px; height: 230px; margin-top: -50px;""><div style=""display: flex; justify-content: space-between; margin-top: 33px;""><img src=""images/choice_trial_5.png"" style=""width: 408px; height: 417px; margin-right: 200px;""><img src=""images/choice_trial_6.png"" style=""width: 408px; height: 417px;""></div></div>","f","delaylearn","learning","trial","5ada0b521771b700010a1777","h8Ym18yhTTVqpjo7FTKapTwe0RK2","1","images/choice_trial_5.png","images/choice_trial_6.png","images/pattern_3.png","f","f","7000","5","6","2","0","9","1","1","5","50","","","","",""
"html-keyboard-response","48","93226","0.0-22.0-1.0","","null","<div style=""display: flex; flex-direction: column; align-items: center; margin-top: -40px;""><img src=""images/pattern_3.png"" style=""width: 234px; height: 230px; margin-top: -50px;""><div style=""display: flex; justify-content: space-between; margin-top: 33px;""><img src=""images/choice_trial_5.png"" style=""width: 408px; height: 417px; margin-right: 608px;""></div></div>","null","delaylearn","learning","display_response","5ada0b521771b700010a1777","h8Ym18yhTTVqpjo7FTKapTwe0RK2","","","","","","","","","","","","","","","","","chosen stimuli: images/choice_trial_5.png","","","",""
"html-keyboard-response","49","100231","0.0-22.0-2.0","","null","","null","delaylearn","learning","feedback_duration_window","5ada0b521771b700010a1777","h8Ym18yhTTVqpjo7FTKapTwe0RK2","","","","","","","","","","","","","","","","","","7000","","",""
"html-keyboard-response","50","101746","0.0-22.0-3.0","","null","<div style='margin:auto;width: auto; font-size: 150%'><span style='font-weight: bold; font-size: 100px; color: green;'>+10 points!</span><br><br></div>","null","delaylearn","learning","feedback_image_window","5ada0b521771b700010a1777","h8Ym18yhTTVqpjo7FTKapTwe0RK2","","","","","","","","","","","","","","","","","","","","",""
"html-keyboard-response","51","103602","0.0-23.0","","null","<div style=""font-size:100px;"">+</div>","null","delaylearn","learning","ITI","5ada0b521771b700010a1777","h8Ym18yhTTVqpjo7FTKapTwe0RK2","","","","","","","","","","","","","","","","","","","1849","",""
"html-keyboard-response","52","105687","0.0-24.0-0.0","","2082.899999976158","<div style=""display: flex; flex-direction: column; align-items: center; margin-top: -40px;""><img src=""images/pattern_7.png"" style=""width: 234px; height: 230px; margin-top: -50px;""><div style=""display: flex; justify-content: space-between; margin-top: 33px;""><img src=""images/choice_trial_14.png"" style=""width: 408px; height: 417px; margin-right: 200px;""><img src=""images/choice_trial_13.png"" style=""width: 408px; height: 417px;""></div></div>","f","delaylearn","learning","trial","5ada0b521771b700010a1777","h8Ym18yhTTVqpjo7FTKapTwe0RK2","1","images/choice_trial_14.png","images/choice_trial_13.png","images/pattern_7.png","j","j","750","14","13","6","1","10","0","0","14","50","","","","",""
"html-keyboard-response","53","106701","0.0-24.0-1.0","","null","<div style=""display: flex; flex-direction: column; align-items: center; margin-top: -40px;""><img src=""images/pattern_7.png"" style=""width: 234px; height: 230px; margin-top: -50px;""><div style=""display: flex; justify-content: space-between; margin-top: 33px;""><img src=""images/choice_trial_14.png"" style=""width: 408px; height: 417px; margin-right: 608px;""></div></div>","null","delaylearn","learning","display_response","5ada0b521771b700010a1777","h8Ym18yhTTVqpjo7FTKapTwe0RK2","","","","","","","","","","","","","","","","","chosen stimuli: images/choice_trial_14.png","","","",""
"html-keyboard-response","54","107464","0.0-24.0-2.0","","null","","null","delaylearn","learning","feedback_duration_window","5ada0b521771b700010a1777","h8Ym18yhTTVqpjo7FTKapTwe0RK2","","","","","","","","","","","","","","","","","","750","","",""
"html-keyboard-response","55","108969","0.0-24.0-3.0","","null","<div style='margin:auto;width: auto; font-size: 150%'><span style='font-weight: bold; font-size: 100px; color: red;'>0 points!</span><br><br></div>","null","delaylearn","learning","feedback_image_window","5ada0b521771b700010a1777","h8Ym18yhTTVqpjo7FTKapTwe0RK2","","","","","","","","","","","","","","","","","","","","",""
"html-keyboard-response","56","110911","0.0-25.0","","null","<div style=""font-size:100px;"">+</div>","null","delaylearn","learning","ITI","5ada0b521771b700010a1777","h8Ym18yhTTVqpjo7FTKapTwe0RK2","","","","","","","","","","","","","","","","","","","1927","",""
"html-keyboard-response","57","113416","0.0-26.0-0.0","","2503.8000000715256","<div style=""display: flex; flex-direction: column; align-items: center; margin-top: -40px;""><img src=""images/pattern_4.png"" style=""width: 234px; height: 230px; margin-top: -50px;""><div style=""display: flex; justify-content: space-between; margin-top: 33px;""><img src=""images/choice_trial_7.png"" style=""width: 408px; height: 417px; margin-right: 200px;""><img src=""images/choice_trial_8.png"" style=""width: 408px; height: 417px;""></div></div>","f","delaylearn","learning","trial","5ada0b521771b700010a1777","h8Ym18yhTTVqpjo7FTKapTwe0RK2","1","images/choice_trial_7.png","images/choice_trial_8.png","images/pattern_4.png","f","f","7000","7","8","3","0","11","1","1","7","60","","","","",""
"html-keyboard-response","58","114420","0.0-26.0-1.0","","null","<div style=""display: flex; flex-direction: column; align-items: center; margin-top: -40px;""><img src=""images/pattern_4.png"" style=""width: 234px; height: 230px; margin-top: -50px;""><div style=""display: flex; justify-content: space-between; margin-top: 33px;""><img src=""images/choice_trial_7.png"" style=""width: 408px; height: 417px; margin-right: 608px;""></div></div>","null","delaylearn","learning","display_response","5ada0b521771b700010a1777","h8Ym18yhTTVqpjo7FTKapTwe0RK2","","","","","","","","","","","","","","","","","chosen stimuli: images/choice_trial_7.png","","","",""
"html-keyboard-response","59","121425","0.0-26.0-2.0","","null","","null","delaylearn","learning","feedback_duration_window","5ada0b521771b700010a1777","h8Ym18yhTTVqpjo7FTKapTwe0RK2","","","","","","","","","","","","","","","","","","7000","","",""
"html-keyboard-response","60","122928","0.0-26.0-3.0","","null","<div style='margin:auto;width: auto; font-size: 150%'><span style='font-weight: bold; font-size: 100px; color: green;'>+10 points!</span><br><br></div>","null","delaylearn","learning","feedback_image_window","5ada0b521771b700010a1777","h8Ym18yhTTVqpjo7FTKapTwe0RK2","","","","","","","","","","","","","","","","","","","","",""
"html-keyboard-response","61","124809","0.0-27.0","","null","<div style=""font-size:100px;"">+</div>","null","delaylearn","learning","ITI","5ada0b521771b700010a1777","h8Ym18yhTTVqpjo7FTKapTwe0RK2","","","","","","","","","","","","","","","","","","","1866","",""
"html-keyboard-response","62","127002","0.0-28.0-0.0","","2191.5","<div style=""display: flex; flex-direction: column; align-items: center; margin-top: -40px;""><img src=""images/pattern_5.png"" style=""width: 234px; height: 230px; margin-top: -50px;""><div style=""display: flex; justify-content: space-between; margin-top: 33px;""><img src=""images/choice_trial_10.png"" style=""width: 408px; height: 417px; margin-right: 200px;""><img src=""images/choice_trial_9.png"" style=""width: 408px; height: 417px;""></div></div>","f","delaylearn","learning","trial","5ada0b521771b700010a1777","h8Ym18yhTTVqpjo7FTKapTwe0RK2","1","images/choice_trial_10.png","images/choice_trial_9.png","images/pattern_5.png","j","j","750","10","9","4","1","12","0","0","10","60","","","","",""
"html-keyboard-response","63","128010","0.0-28.0-1.0","","null","<div style=""display: flex; flex-direction: column; align-items: center; margin-top: -40px;""><img src=""images/pattern_5.png"" style=""width: 234px; height: 230px; margin-top: -50px;""><div style=""display: flex; justify-content: space-between; margin-top: 33px;""><img src=""images/choice_trial_10.png"" style=""width: 408px; height: 417px; margin-right: 608px;""></div></div>","null","delaylearn","learning","display_response","5ada0b521771b700010a1777","h8Ym18yhTTVqpjo7FTKapTwe0RK2","","","","","","","","","","","","","","","","","chosen stimuli: images/choice_trial_10.png","","","",""
"html-keyboard-response","64","128771","0.0-28.0-2.0","","null","","null","delaylearn","learning","feedback_duration_window","5ada0b521771b700010a1777","h8Ym18yhTTVqpjo7FTKapTwe0RK2","","","","","","","","","","","","","","","","","","750","","",""
"html-keyboard-response","65","130279","0.0-28.0-3.0","","null","<div style='margin:auto;width: auto; font-size: 150%'><span style='font-weight: bold; font-size: 100px; color: red;'>0 points!</span><br><br></div>","null","delaylearn","learning","feedback_image_window","5ada0b521771b700010a1777","h8Ym18yhTTVqpjo7FTKapTwe0RK2","","","","","","","","","","","","","","","","","","","","",""
"html-keyboard-response","66","132145","0.0-29.0","","null","<div style=""font-size:100px;"">+</div>","null","delaylearn","learning","ITI","5ada0b521771b700010a1777","h8Ym18yhTTVqpjo7FTKapTwe0RK2","","","","","","","","","","","","","","","","","","","1856","",""
"html-keyboard-response","67","134477","0.0-30.0-0.0","","2331.4000000953674","<div style=""display: flex; flex-direction: column; align-items: center; margin-top: -40px;""><img src=""images/pattern_6.png"" style=""width: 234px; height: 230px; margin-top: -50px;""><div style=""display: flex; justify-content: space-between; margin-top: 33px;""><img src=""images/choice_trial_11.png"" style=""width: 408px; height: 417px; margin-right: 200px;""><img src=""images/choice_trial_12.png"" style=""width: 408px; height: 417px;""></div></div>","f","delaylearn","learning","trial","5ada0b521771b700010a1777","h8Ym18yhTTVqpjo7FTKapTwe0RK2","1","images/choice_trial_11.png","images/choice_trial_12.png","images/pattern_6.png","j","f","750","11","12","5","0","13","1","0","11","60","","","","",""
"html-keyboard-response","68","135479","0.0-30.0-1.0","","null","<div style=""display: flex; flex-direction: column; align-items: center; margin-top: -40px;""><img src=""images/pattern_6.png"" style=""width: 234px; height: 230px; margin-top: -50px;""><div style=""display: flex; justify-content: space-between; margin-top: 33px;""><img src=""images/choice_trial_11.png"" style=""width: 408px; height: 417px; margin-right: 608px;""></div></div>","null","delaylearn","learning","display_response","5ada0b521771b700010a1777","h8Ym18yhTTVqpjo7FTKapTwe0RK2","","","","","","","","","","","","","","","","","chosen stimuli: images/choice_trial_11.png","","","",""
"html-keyboard-response","69","136239","0.0-30.0-2.0","","null","","null","delaylearn","learning","feedback_duration_window","5ada0b521771b700010a1777","h8Ym18yhTTVqpjo7FTKapTwe0RK2","","","","","","","","","","","","","","","","","","750","","",""
"html-keyboard-response","70","137745","0.0-30.0-3.0","","null","<div style='margin:auto;width: auto; font-size: 150%'><span style='font-weight: bold; font-size: 100px; color: red;'>0 points!</span><br><br></div>","null","delaylearn","learning","feedback_image_window","5ada0b521771b700010a1777","h8Ym18yhTTVqpjo7FTKapTwe0RK2","","","","","","","","","","","","","","","","","","","","",""
"html-keyboard-response","71","138253","0.0-31.0-0.0","","null","","null","","","mood_trial_fixation","","","","","","","","","","","","","","","","","","","","","","",""
"lmdlab-html-vas-response","72","143043","0.0-31.0-1.0","","3782","How happy are you right now?","0.3283333333333333","delaylearn","learning","mood_trial","5ada0b521771b700010a1777","h8Ym18yhTTVqpjo7FTKapTwe0RK2","","","","","","","","","","","","","","","","","","","","[""Very unhappy"",""Very happy""]",""
"html-keyboard-response","73","145097","0.0-32.0","","null","<div style=""font-size:100px;"">+</div>","null","delaylearn","learning","ITI","5ada0b521771b700010a1777","h8Ym18yhTTVqpjo7FTKapTwe0RK2","","","","","","","","","","","","","","","","","","","2051","",""
"html-keyboard-response","74","147141","0.0-33.0-0.0","","2042.7000000476837","<div style=""display: flex; flex-direction: column; align-items: center; margin-top: -40px;""><img src=""images/pattern_1.png"" style=""width: 234px; height: 230px; margin-top: -50px;""><div style=""display: flex; justify-content: space-between; margin-top: 33px;""><img src=""images/choice_trial_2.png"" style=""width: 408px; height: 417px; margin-right: 200px;""><img src=""images/choice_trial_1.png"" style=""width: 408px; height: 417px;""></div></div>","j","delaylearn","learning","trial","5ada0b521771b700010a1777","h8Ym18yhTTVqpjo7FTKapTwe0RK2","1","images/choice_trial_2.png","images/choice_trial_1.png","images/pattern_1.png","j","j","7000","2","1","1","1","14","1","1","1","70","","","","",""
"html-keyboard-response","75","148143","0.0-33.0-1.0","","null","<div style=""display: flex; flex-direction: column; align-items: center; margin-top: -40px;""><img src=""images/pattern_1.png"" style=""width: 234px; height: 230px; margin-top: -50px;""><div style=""display: flex; justify-content: space-between; margin-top: 33px;""><img src=""images/choice_trial_1.png"" style=""width: 408px; height: 417px; margin-left:608px;""></div></div>","null","delaylearn","learning","display_response","5ada0b521771b700010a1777","h8Ym18yhTTVqpjo7FTKapTwe0RK2","","","","","","","","","","","","","","","","","chosen stimuli: images/choice_trial_1.png","","","",""
"html-keyboard-response","76","155147","0.0-33.0-2.0","","null","","null","delaylearn","learning","feedback_duration_window","5ada0b521771b700010a1777","h8Ym18yhTTVqpjo7FTKapTwe0RK2","","","","","","","","","","","","","","","","","","7000","","",""
"html-keyboard-response","77","156664","0.0-33.0-3.0","","null","<div style='margin:auto;width: auto; font-size: 150%'><span style='font-weight: bold; font-size: 100px; color: green;'>+10 points!</span><br><br></div>","null","delaylearn","learning","feedback_image_window","5ada0b521771b700010a1777","h8Ym18yhTTVqpjo7FTKapTwe0RK2","","","","","","","","","","","","","","","","","","","","",""
"html-keyboard-response","78","158177","0.0-34.0","","null","<div style=""font-size:100px;"">+</div>","null","delaylearn","learning","ITI","5ada0b521771b700010a1777","h8Ym18yhTTVqpjo7FTKapTwe0RK2","","","","","","","","","","","","","","","","","","","1501","",""
"html-keyboard-response","79","159577","0.0-35.0-0.0","","1398.7000000476837","<div style=""display: flex; flex-direction: column; align-items: center; margin-top: -40px;""><img src=""images/pattern_3.png"" style=""width: 234px; height: 230px; margin-top: -50px;""><div style=""display: flex; justify-content: space-between; margin-top: 33px;""><img src=""images/choice_trial_6.png"" style=""width: 408px; height: 417px; margin-right: 200px;""><img src=""images/choice_trial_5.png"" style=""width: 408px; height: 417px;""></div></div>","j","delaylearn","learning","trial","5ada0b521771b700010a1777","h8Ym18yhTTVqpjo7FTKapTwe0RK2","1","images/choice_trial_6.png","images/choice_trial_5.png","images/pattern_3.png","f","j","7000","6","5","2","1","15","1","0","5","70","","","","",""
"html-keyboard-response","80","160584","0.0-35.0-1.0","","null","<div style=""display: flex; flex-direction: column; align-items: center; margin-top: -40px;""><img src=""images/pattern_3.png"" style=""width: 234px; height: 230px; margin-top: -50px;""><div style=""display: flex; justify-content: space-between; margin-top: 33px;""><img src=""images/choice_trial_5.png"" style=""width: 408px; height: 417px; margin-left:608px;""></div></div>","null","delaylearn","learning","display_response","5ada0b521771b700010a1777","h8Ym18yhTTVqpjo7FTKapTwe0RK2","","","","","","","","","","","","","","","","","chosen stimuli: images/choice_trial_5.png","","","",""
"html-keyboard-response","81","167591","0.0-35.0-2.0","","null","","null","delaylearn","learning","feedback_duration_window","5ada0b521771b700010a1777","h8Ym18yhTTVqpjo7FTKapTwe0RK2","","","","","","","","","","","","","","","","","","7000","","",""
"html-keyboard-response","82","169104","0.0-35.0-3.0","","null","<div style='margin:auto;width: auto; font-size: 150%'><span style='font-weight: bold; font-size: 100px; color: red;'>0 points!</span><br><br></div>","null","delaylearn","learning","feedback_image_window","5ada0b521771b700010a1777","h8Ym18yhTTVqpjo7FTKapTwe0RK2","","","","","","","","","","","","","","","","","","","","",""
"html-keyboard-response","83","171475","0.0-36.0","","null","<div style=""font-size:100px;"">+</div>","null","delaylearn","learning","ITI","5ada0b521771b700010a1777","h8Ym18yhTTVqpjo7FTKapTwe0RK2","","","","","","","","","","","","","","","","","","","2361","",""
"html-keyboard-response","84","173882","0.0-37.0-0.0","","2405.7999999523163","<div style=""display: flex; flex-direction: column; align-items: center; margin-top: -40px;""><img src=""images/pattern_5.png"" style=""width: 234px; height: 230px; margin-top: -50px;""><div style=""display: flex; justify-content: space-between; margin-top: 33px;""><img src=""images/choice_trial_9.png"" style=""width: 408px; height: 417px; margin-right: 200px;""><img src=""images/choice_trial_10.png"" style=""width: 408px; height: 417px;""></div></div>","f","delaylearn","learning","trial","5ada0b521771b700010a1777","h8Ym18yhTTVqpjo7FTKapTwe0RK2","1","images/choice_trial_9.png","images/choice_trial_10.png","images/pattern_5.png","f","f","750","9","10","4","0","16","1","1","9","80","","","","",""
"html-keyboard-response","85","174892","0.0-37.0-1.0","","null","<div style=""display: flex; flex-direction: column; align-items: center; margin-top: -40px;""><img src=""images/pattern_5.png"" style=""width: 234px; height: 230px; margin-top: -50px;""><div style=""display: flex; justify-content: space-between; margin-top: 33px;""><img src=""images/choice_trial_9.png"" style=""width: 408px; height: 417px; margin-right: 608px;""></div></div>","null","delaylearn","learning","display_response","5ada0b521771b700010a1777","h8Ym18yhTTVqpjo7FTKapTwe0RK2","","","","","","","","","","","","","","","","","chosen stimuli: images/choice_trial_9.png","","","",""
"html-keyboard-response","86","175655","0.0-37.0-2.0","","null","","null","delaylearn","learning","feedback_duration_window","5ada0b521771b700010a1777","h8Ym18yhTTVqpjo7FTKapTwe0RK2","","","","","","","","","","","","","","","","","","750","","",""
"html-keyboard-response","87","177171","0.0-37.0-3.0","","null","<div style='margin:auto;width: auto; font-size: 150%'><span style='font-weight: bold; font-size: 100px; color: green;'>+10 points!</span><br><br></div>","null","delaylearn","learning","feedback_image_window","5ada0b521771b700010a1777","h8Ym18yhTTVqpjo7FTKapTwe0RK2","","","","","","","","","","","","","","","","","","","","",""
"html-keyboard-response","88","177684","0.0-38.0-0.0","","null","","null","","","mood_trial_fixation","","","","","","","","","","","","","","","","","","","","","","",""
"lmdlab-html-vas-response","89","181788","0.0-38.0-1.0","","3099","How happy are you right now?","0.3416666666666667","delaylearn","learning","mood_trial","5ada0b521771b700010a1777","h8Ym18yhTTVqpjo7FTKapTwe0RK2","","","","","","","","","","","","","","","","","","","","[""Very unhappy"",""Very happy""]",""
"html-keyboard-response","90","184265","0.0-39.0","","null","<div style=""font-size:100px;"">+</div>","null","delaylearn","learning","ITI","5ada0b521771b700010a1777","h8Ym18yhTTVqpjo7FTKapTwe0RK2","","","","","","","","","","","","","","","","","","","2475","",""
"html-keyboard-response","91","185845","0.0-40.0-0.0","","1578.7999999523163","<div style=""display: flex; flex-direction: column; align-items: center; margin-top: -40px;""><img src=""images/pattern_6.png"" style=""width: 234px; height: 230px; margin-top: -50px;""><div style=""display: flex; justify-content: space-between; margin-top: 33px;""><img src=""images/choice_trial_11.png"" style=""width: 408px; height: 417px; margin-right: 200px;""><img src=""images/choice_trial_12.png"" style=""width: 408px; height: 417px;""></div></div>","j","delaylearn","learning","trial","5ada0b521771b700010a1777","h8Ym18yhTTVqpjo7FTKapTwe0RK2","1","images/choice_trial_11.png","images/choice_trial_12.png","images/pattern_6.png","f","f","750","11","12","5","0","17","0","0","12","80","","","","",""
"html-keyboard-response","92","186854","0.0-40.0-1.0","","null","<div style=""display: flex; flex-direction: column; align-items: center; margin-top: -40px;""><img src=""images/pattern_6.png"" style=""width: 234px; height: 230px; margin-top: -50px;""><div style=""display: flex; justify-content: space-between; margin-top: 33px;""><img src=""images/choice_trial_12.png"" style=""width: 408px; height: 417px; margin-left:608px;""></div></div>","null","delaylearn","learning","display_response","5ada0b521771b700010a1777","h8Ym18yhTTVqpjo7FTKapTwe0RK2","","","","","","","","","","","","","","","","","chosen stimuli: images/choice_trial_12.png","","","",""
"html-keyboard-response","93","187606","0.0-40.0-2.0","","null","","null","delaylearn","learning","feedback_duration_window","5ada0b521771b700010a1777","h8Ym18yhTTVqpjo7FTKapTwe0RK2","","","","","","","","","","","","","","","","","","750","","",""
"html-keyboard-response","94","189114","0.0-40.0-3.0","","null","<div style='margin:auto;width: auto; font-size: 150%'><span style='font-weight: bold; font-size: 100px; color: red;'>0 points!</span><br><br></div>","null","delaylearn","learning","feedback_image_window","5ada0b521771b700010a1777","h8Ym18yhTTVqpjo7FTKapTwe0RK2","","","","","","","","","","","","","","","","","","","","",""
"html-keyboard-response","95","191101","0.0-41.0","","null","<div style=""font-size:100px;"">+</div>","null","delaylearn","learning","ITI","5ada0b521771b700010a1777","h8Ym18yhTTVqpjo7FTKapTwe0RK2","","","","","","","","","","","","","","","","","","","1985","",""
"html-keyboard-response","96","193085","0.0-42.0-0.0","","1982.1000000238419","<div style=""display: flex; flex-direction: column; align-items: center; margin-top: -40px;""><img src=""images/pattern_4.png"" style=""width: 234px; height: 230px; margin-top: -50px;""><div style=""display: flex; justify-content: space-between; margin-top: 33px;""><img src=""images/choice_trial_8.png"" style=""width: 408px; height: 417px; margin-right: 200px;""><img src=""images/choice_trial_7.png"" style=""width: 408px; height: 417px;""></div></div>","j","delaylearn","learning","trial","5ada0b521771b700010a1777","h8Ym18yhTTVqpjo7FTKapTwe0RK2","1","images/choice_trial_8.png","images/choice_trial_7.png","images/pattern_4.png","j","j","7000","8","7","3","1","18","1","1","7","90","","","","",""
"html-keyboard-response","97","194101","0.0-42.0-1.0","","null","<div style=""display: flex; flex-direction: column; align-items: center; margin-top: -40px;""><img src=""images/pattern_4.png"" style=""width: 234px; height: 230px; margin-top: -50px;""><div style=""display: flex; justify-content: space-between; margin-top: 33px;""><img src=""images/choice_trial_7.png"" style=""width: 408px; height: 417px; margin-left:608px;""></div></div>","null","delaylearn","learning","display_response","5ada0b521771b700010a1777","h8Ym18yhTTVqpjo7FTKapTwe0RK2","","","","","","","","","","","","","","","","","chosen stimuli: images/choice_trial_7.png","","","",""
"html-keyboard-response","98","201108","0.0-42.0-2.0","","null","","null","delaylearn","learning","feedback_duration_window","5ada0b521771b700010a1777","h8Ym18yhTTVqpjo7FTKapTwe0RK2","","","","","","","","","","","","","","","","","","7000","","",""
"html-keyboard-response","99","202623","0.0-42.0-3.0","","null","<div style='margin:auto;width: auto; font-size: 150%'><span style='font-weight: bold; font-size: 100px; color: green;'>+10 points!</span><br><br></div>","null","delaylearn","learning","feedback_image_window","5ada0b521771b700010a1777","h8Ym18yhTTVqpjo7FTKapTwe0RK2","","","","","","","","","","","","","","","","","","","","",""
"html-keyboard-response","100","204552","0.0-43.0","","null","<div style=""font-size:100px;"">+</div>","null","delaylearn","learning","ITI","5ada0b521771b700010a1777","h8Ym18yhTTVqpjo7FTKapTwe0RK2","","","","","","","","","","","","","","","","","","","1925","",""
"html-keyboard-response","101","206267","0.0-44.0-0.0","","1713.6000000238419","<div style=""display: flex; flex-direction: column; align-items: center; margin-top: -40px;""><img src=""images/pattern_7.png"" style=""width: 234px; height: 230px; margin-top: -50px;""><div style=""display: flex; justify-content: space-between; margin-top: 33px;""><img src=""images/choice_trial_13.png"" style=""width: 408px; height: 417px; margin-right: 200px;""><img src=""images/choice_trial_14.png"" style=""width: 408px; height: 417px;""></div></div>","j","delaylearn","learning","trial","5ada0b521771b700010a1777","h8Ym18yhTTVqpjo7FTKapTwe0RK2","1","images/choice_trial_13.png","images/choice_trial_14.png","images/pattern_7.png","j","f","750","13","14","6","0","19","0","1","14","100","","","","",""
"html-keyboard-response","102","207269","0.0-44.0-1.0","","null","<div style=""display: flex; flex-direction: column; align-items: center; margin-top: -40px;""><img src=""images/pattern_7.png"" style=""width: 234px; height: 230px; margin-top: -50px;""><div style=""display: flex; justify-content: space-between; margin-top: 33px;""><img src=""images/choice_trial_14.png"" style=""width: 408px; height: 417px; margin-left:608px;""></div></div>","null","delaylearn","learning","display_response","5ada0b521771b700010a1777","h8Ym18yhTTVqpjo7FTKapTwe0RK2","","","","","","","","","","","","","","","","","chosen stimuli: images/choice_trial_14.png","","","",""
"html-keyboard-response","103","208025","0.0-44.0-2.0","","null","","null","delaylearn","learning","feedback_duration_window","5ada0b521771b700010a1777","h8Ym18yhTTVqpjo7FTKapTwe0RK2","","","","","","","","","","","","","","","","","","750","","",""
"html-keyboard-response","104","209541","0.0-44.0-3.0","","null","<div style='margin:auto;width: auto; font-size: 150%'><span style='font-weight: bold; font-size: 100px; color: green;'>+10 points!</span><br><br></div>","null","delaylearn","learning","feedback_image_window","5ada0b521771b700010a1777","h8Ym18yhTTVqpjo7FTKapTwe0RK2","","","","","","","","","","","","","","","","","","","","",""
"html-keyboard-response","105","211916","0.0-45.0","","null","<div style=""font-size:100px;"">+</div>","null","delaylearn","learning","ITI","5ada0b521771b700010a1777","h8Ym18yhTTVqpjo7FTKapTwe0RK2","","","","","","","","","","","","","","","","","","","2361","",""
"html-keyboard-response","106","213988","0.0-46.0-0.0","","2071","<div style=""display: flex; flex-direction: column; align-items: center; margin-top: -40px;""><img src=""images/pattern_1.png"" style=""width: 234px; height: 230px; margin-top: -50px;""><div style=""display: flex; justify-content: space-between; margin-top: 33px;""><img src=""images/choice_trial_1.png"" style=""width: 408px; height: 417px; margin-right: 200px;""><img src=""images/choice_trial_2.png"" style=""width: 408px; height: 417px;""></div></div>","j","delaylearn","learning","trial","5ada0b521771b700010a1777","h8Ym18yhTTVqpjo7FTKapTwe0RK2","1","images/choice_trial_1.png","images/choice_trial_2.png","images/pattern_1.png","f","f","7000","1","2","1","0","20","0","0","2","100","","","","",""
"html-keyboard-response","107","214992","0.0-46.0-1.0","","null","<div style=""display: flex; flex-direction: column; align-items: center; margin-top: -40px;""><img src=""images/pattern_1.png"" style=""width: 234px; height: 230px; margin-top: -50px;""><div style=""display: flex; justify-content: space-between; margin-top: 33px;""><img src=""images/choice_trial_2.png"" style=""width: 408px; height: 417px; margin-left:608px;""></div></div>","null","delaylearn","learning","display_response","5ada0b521771b700010a1777","h8Ym18yhTTVqpjo7FTKapTwe0RK2","","","","","","","","","","","","","","","","","chosen stimuli: images/choice_trial_2.png","","","",""
"html-keyboard-response","108","222003","0.0-46.0-2.0","","null","","null","delaylearn","learning","feedback_duration_window","5ada0b521771b700010a1777","h8Ym18yhTTVqpjo7FTKapTwe0RK2","","","","","","","","","","","","","","","","","","7000","","",""
"html-keyboard-response","109","223504","0.0-46.0-3.0","","null","<div style='margin:auto;width: auto; font-size: 150%'><span style='font-weight: bold; font-size: 100px; color: red;'>0 points!</span><br><br></div>","null","delaylearn","learning","feedback_image_window","5ada0b521771b700010a1777","h8Ym18yhTTVqpjo7FTKapTwe0RK2","","","","","","","","","","","","","","","","","","","","",""
"html-keyboard-response","110","225410","0.0-47.0","","null","<div style=""font-size:100px;"">+</div>","null","delaylearn","learning","ITI","5ada0b521771b700010a1777","h8Ym18yhTTVqpjo7FTKapTwe0RK2","","","","","","","","","","","","","","","","","","","1901","",""
"html-keyboard-response","111","227132","0.0-48.0-0.0","","1721.2999999523163","<div style=""display: flex; flex-direction: column; align-items: center; margin-top: -40px;""><img src=""images/pattern_6.png"" style=""width: 234px; height: 230px; margin-top: -50px;""><div style=""display: flex; justify-content: space-between; margin-top: 33px;""><img src=""images/choice_trial_12.png"" style=""width: 408px; height: 417px; margin-right: 200px;""><img src=""images/choice_trial_11.png"" style=""width: 408px; height: 417px;""></div></div>","f","delaylearn","learning","trial","5ada0b521771b700010a1777","h8Ym18yhTTVqpjo7FTKapTwe0RK2","1","images/choice_trial_12.png","images/choice_trial_11.png","images/pattern_6.png","j","j","750","12","11","5","1","21","0","0","12","100","","","","",""
"html-keyboard-response","112","228141","0.0-48.0-1.0","","null","<div style=""display: flex; flex-direction: column; align-items: center; margin-top: -40px;""><img src=""images/pattern_6.png"" style=""width: 234px; height: 230px; margin-top: -50px;""><div style=""display: flex; justify-content: space-between; margin-top: 33px;""><img src=""images/choice_trial_12.png"" style=""width: 408px; height: 417px; margin-right: 608px;""></div></div>","null","delaylearn","learning","display_response","5ada0b521771b700010a1777","h8Ym18yhTTVqpjo7FTKapTwe0RK2","","","","","","","","","","","","","","","","","chosen stimuli: images/choice_trial_12.png","","","",""
"html-keyboard-response","113","228901","0.0-48.0-2.0","","null","","null","delaylearn","learning","feedback_duration_window","5ada0b521771b700010a1777","h8Ym18yhTTVqpjo7FTKapTwe0RK2","","","","","","","","","","","","","","","","","","750","","",""
"html-keyboard-response","114","230404","0.0-48.0-3.0","","null","<div style='margin:auto;width: auto; font-size: 150%'><span style='font-weight: bold; font-size: 100px; color: red;'>0 points!</span><br><br></div>","null","delaylearn","learning","feedback_image_window","5ada0b521771b700010a1777","h8Ym18yhTTVqpjo7FTKapTwe0RK2","","","","","","","","","","","","","","","","","","","","",""
"html-keyboard-response","115","232437","0.0-49.0","","null","<div style=""font-size:100px;"">+</div>","null","delaylearn","learning","ITI","5ada0b521771b700010a1777","h8Ym18yhTTVqpjo7FTKapTwe0RK2","","","","","","","","","","","","","","","","","","","2021","",""
"html-keyboard-response","116","235181","0.0-50.0-0.0","","2743.2000000476837","<div style=""display: flex; flex-direction: column; align-items: center; margin-top: -40px;""><img src=""images/pattern_4.png"" style=""width: 234px; height: 230px; margin-top: -50px;""><div style=""display: flex; justify-content: space-between; margin-top: 33px;""><img src=""images/choice_trial_7.png"" style=""width: 408px; height: 417px; margin-right: 200px;""><img src=""images/choice_trial_8.png"" style=""width: 408px; height: 417px;""></div></div>","f","delaylearn","learning","trial","5ada0b521771b700010a1777","h8Ym18yhTTVqpjo7FTKapTwe0RK2","1","images/choice_trial_7.png","images/choice_trial_8.png","images/pattern_4.png","f","f","7000","7","8","3","0","22","1","1","7","110","","","","",""
"html-keyboard-response","117","236198","0.0-50.0-1.0","","null","<div style=""display: flex; flex-direction: column; align-items: center; margin-top: -40px;""><img src=""images/pattern_4.png"" style=""width: 234px; height: 230px; margin-top: -50px;""><div style=""display: flex; justify-content: space-between; margin-top: 33px;""><img src=""images/choice_trial_7.png"" style=""width: 408px; height: 417px; margin-right: 608px;""></div></div>","null","delaylearn","learning","display_response","5ada0b521771b700010a1777","h8Ym18yhTTVqpjo7FTKapTwe0RK2","","","","","","","","","","","","","","","","","chosen stimuli: images/choice_trial_7.png","","","",""
"html-keyboard-response","118","243211","0.0-50.0-2.0","","null","","null","delaylearn","learning","feedback_duration_window","5ada0b521771b700010a1777","h8Ym18yhTTVqpjo7FTKapTwe0RK2","","","","","","","","","","","","","","","","","","7000","","",""
"html-keyboard-response","119","244726","0.0-50.0-3.0","","null","<div style='margin:auto;width: auto; font-size: 150%'><span style='font-weight: bold; font-size: 100px; color: green;'>+10 points!</span><br><br></div>","null","delaylearn","learning","feedback_image_window","5ada0b521771b700010a1777","h8Ym18yhTTVqpjo7FTKapTwe0RK2","","","","","","","","","","","","","","","","","","","","",""
"html-keyboard-response","120","245232","0.0-51.0-0.0","","null","","null","","","mood_trial_fixation","","","","","","","","","","","","","","","","","","","","","","",""
"lmdlab-html-vas-response","121","251225","0.0-51.0-1.0","","4985","How happy are you right now?","0.395","delaylearn","learning","mood_trial","5ada0b521771b700010a1777","h8Ym18yhTTVqpjo7FTKapTwe0RK2","","","","","","","","","","","","","","","","","","","","[""Very unhappy"",""Very happy""]",""
"html-keyboard-response","122","253277","0.0-52.0","","null","<div style=""font-size:100px;"">+</div>","null","delaylearn","learning","ITI","5ada0b521771b700010a1777","h8Ym18yhTTVqpjo7FTKapTwe0RK2","","","","","","","","","","","","","","","","","","","2036","",""
"html-keyboard-response","123","254874","0.0-53.0-0.0","","1594.8999999761581","<div style=""display: flex; flex-direction: column; align-items: center; margin-top: -40px;""><img src=""images/pattern_7.png"" style=""width: 234px; height: 230px; margin-top: -50px;""><div style=""display: flex; justify-content: space-between; margin-top: 33px;""><img src=""images/choice_trial_14.png"" style=""width: 408px; height: 417px; margin-right: 200px;""><img src=""images/choice_trial_13.png"" style=""width: 408px; height: 417px;""></div></div>","f","delaylearn","learning","trial","5ada0b521771b700010a1777","h8Ym18yhTTVqpjo7FTKapTwe0RK2","1","images/choice_trial_14.png","images/choice_trial_13.png","images/pattern_7.png","j","j","750","14","13","6","1","23","0","0","14","110","","","","",""
"html-keyboard-response","124","255882","0.0-53.0-1.0","","null","<div style=""display: flex; flex-direction: column; align-items: center; margin-top: -40px;""><img src=""images/pattern_7.png"" style=""width: 234px; height: 230px; margin-top: -50px;""><div style=""display: flex; justify-content: space-between; margin-top: 33px;""><img src=""images/choice_trial_14.png"" style=""width: 408px; height: 417px; margin-right: 608px;""></div></div>","null","delaylearn","learning","display_response","5ada0b521771b700010a1777","h8Ym18yhTTVqpjo7FTKapTwe0RK2","","","","","","","","","","","","","","","","","chosen stimuli: images/choice_trial_14.png","","","",""
"html-keyboard-response","125","256642","0.0-53.0-2.0","","null","","null","delaylearn","learning","feedback_duration_window","5ada0b521771b700010a1777","h8Ym18yhTTVqpjo7FTKapTwe0RK2","","","","","","","","","","","","","","","","","","750","","",""
"html-keyboard-response","126","258155","0.0-53.0-3.0","","null","<div style='margin:auto;width: auto; font-size: 150%'><span style='font-weight: bold; font-size: 100px; color: red;'>0 points!</span><br><br></div>","null","delaylearn","learning","feedback_image_window","5ada0b521771b700010a1777","h8Ym18yhTTVqpjo7FTKapTwe0RK2","","","","","","","","","","","","","","","","","","","","",""
"html-keyboard-response","127","260540","0.0-54.0","","null","<div style=""font-size:100px;"">+</div>","null","delaylearn","learning","ITI","5ada0b521771b700010a1777","h8Ym18yhTTVqpjo7FTKapTwe0RK2","","","","","","","","","","","","","","","","","","","2383","",""
"html-keyboard-response","128","261800","0.0-55.0-0.0","","1258.7999999523163","<div style=""display: flex; flex-direction: column; align-items: center; margin-top: -40px;""><img src=""images/pattern_1.png"" style=""width: 234px; height: 230px; margin-top: -50px;""><div style=""display: flex; justify-content: space-between; margin-top: 33px;""><img src=""images/choice_trial_2.png"" style=""width: 408px; height: 417px; margin-right: 200px;""><img src=""images/choice_trial_1.png"" style=""width: 408px; height: 417px;""></div></div>","j","delaylearn","learning","trial","5ada0b521771b700010a1777","h8Ym18yhTTVqpjo7FTKapTwe0RK2","1","images/choice_trial_2.png","images/choice_trial_1.png","images/pattern_1.png","f","j","7000","2","1","1","1","24","1","0","1","110","","","","",""
"html-keyboard-response","129","262804","0.0-55.0-1.0","","null","<div style=""display: flex; flex-direction: column; align-items: center; margin-top: -40px;""><img src=""images/pattern_1.png"" style=""width: 234px; height: 230px; margin-top: -50px;""><div style=""display: flex; justify-content: space-between; margin-top: 33px;""><img src=""images/choice_trial_1.png"" style=""width: 408px; height: 417px; margin-left:608px;""></div></div>","null","delaylearn","learning","display_response","5ada0b521771b700010a1777","h8Ym18yhTTVqpjo7FTKapTwe0RK2","","","","","","","","","","","","","","","","","chosen stimuli: images/choice_trial_1.png","","","",""
"html-keyboard-response","130","269811","0.0-55.0-2.0","","null","","null","delaylearn","learning","feedback_duration_window","5ada0b521771b700010a1777","h8Ym18yhTTVqpjo7FTKapTwe0RK2","","","","","","","","","","","","","","","","","","7000","","",""
"html-keyboard-response","131","271324","0.0-55.0-3.0","","null","<div style='margin:auto;width: auto; font-size: 150%'><span style='font-weight: bold; font-size: 100px; color: red;'>0 points!</span><br><br></div>","null","delaylearn","learning","feedback_image_window","5ada0b521771b700010a1777","h8Ym18yhTTVqpjo7FTKapTwe0RK2","","","","","","","","","","","","","","","","","","","","",""
"html-keyboard-response","132","273052","0.0-56.0","","null","<div style=""font-size:100px;"">+</div>","null","delaylearn","learning","ITI","5ada0b521771b700010a1777","h8Ym18yhTTVqpjo7FTKapTwe0RK2","","","","","","","","","","","","","","","","","","","1710","",""
"html-keyboard-response","133","275331","0.0-57.0-0.0","","2278.1999999284744","<div style=""display: flex; flex-direction: column; align-items: center; margin-top: -40px;""><img src=""images/pattern_5.png"" style=""width: 234px; height: 230px; margin-top: -50px;""><div style=""display: flex; justify-content: space-between; margin-top: 33px;""><img src=""images/choice_trial_10.png"" style=""width: 408px; height: 417px; margin-right: 200px;""><img src=""images/choice_trial_9.png"" style=""width: 408px; height: 417px;""></div></div>","j","delaylearn","learning","trial","5ada0b521771b700010a1777","h8Ym18yhTTVqpjo7FTKapTwe0RK2","1","images/choice_trial_10.png","images/choice_trial_9.png","images/pattern_5.png","j","j","750","10","9","4","1","25","1","1","9","120","","","","",""
"html-keyboard-response","134","276343","0.0-57.0-1.0","","null","<div style=""display: flex; flex-direction: column; align-items: center; margin-top: -40px;""><img src=""images/pattern_5.png"" style=""width: 234px; height: 230px; margin-top: -50px;""><div style=""display: flex; justify-content: space-between; margin-top: 33px;""><img src=""images/choice_trial_9.png"" style=""width: 408px; height: 417px; margin-left:608px;""></div></div>","null","delaylearn","learning","display_response","5ada0b521771b700010a1777","h8Ym18yhTTVqpjo7FTKapTwe0RK2","","","","","","","","","","","","","","","","","chosen stimuli: images/choice_trial_9.png","","","",""
"html-keyboard-response","135","277099","0.0-57.0-2.0","","null","","null","delaylearn","learning","feedback_duration_window","5ada0b521771b700010a1777","h8Ym18yhTTVqpjo7FTKapTwe0RK2","","","","","","","","","","","","","","","","","","750","","",""
"html-keyboard-response","136","278605","0.0-57.0-3.0","","null","<div style='margin:auto;width: auto; font-size: 150%'><span style='font-weight: bold; font-size: 100px; color: green;'>+10 points!</span><br><br></div>","null","delaylearn","learning","feedback_image_window","5ada0b521771b700010a1777","h8Ym18yhTTVqpjo7FTKapTwe0RK2","","","","","","","","","","","","","","","","","","","","",""
"html-keyboard-response","137","280390","0.0-58.0","","null","<div style=""font-size:100px;"">+</div>","null","delaylearn","learning","ITI","5ada0b521771b700010a1777","h8Ym18yhTTVqpjo7FTKapTwe0RK2","","","","","","","","","","","","","","","","","","","1772","",""
"html-keyboard-response","138","283398","0.0-59.0-0.0","","null","<div style=""display: flex; flex-direction: column; align-items: center; margin-top: -40px;""><img src=""images/pattern_3.png"" style=""width: 234px; height: 230px; margin-top: -50px;""><div style=""display: flex; justify-content: space-between; margin-top: 33px;""><img src=""images/choice_trial_6.png"" style=""width: 408px; height: 417px; margin-right: 200px;""><img src=""images/choice_trial_5.png"" style=""width: 408px; height: 417px;""></div></div>","null","delaylearn","learning","trial","5ada0b521771b700010a1777","h8Ym18yhTTVqpjo7FTKapTwe0RK2","1","images/choice_trial_6.png","images/choice_trial_5.png","images/pattern_3.png","j","j","7000","6","5","2","1","26","0","0","0","120","","","","",""
"html-keyboard-response","139","284407","0.0-59.0-1.0","","null","<div style='font-weight: bold; font-size: 75px; color: red;'>Missed Trial <br><br><br><br> Please respond faster</div>","null","delaylearn","learning","display_response","5ada0b521771b700010a1777","h8Ym18yhTTVqpjo7FTKapTwe0RK2","","","","","","","","","","","","","","","","","Missed trial","","","",""
"html-keyboard-response","140","284413","0.0-59.0-2.0","","null","","null","delaylearn","learning","feedback_duration_window","5ada0b521771b700010a1777","h8Ym18yhTTVqpjo7FTKapTwe0RK2","","","","","","","","","","","","","","","","","","0","","",""
"html-keyboard-response","141","284417","0.0-59.0-3.0","","null","","null","delaylearn","learning","feedback_image_window","5ada0b521771b700010a1777","h8Ym18yhTTVqpjo7FTKapTwe0RK2","","","","","","","","","","","","","","","","","","","","",""
"lmdlab-html-vas-response","142","292277","0.0-60.0-0.0","","6345","*How <b><u>confident</u></b> are you feeling about your answers at this moment?*","0.27666666666666667","rewlearn","rate_confidence","","5ada0b521771b700010a1777","h8Ym18yhTTVqpjo7FTKapTwe0RK2","","","","","","","","","","","","","","","","","","","","[""No confidence"",""Complete confidence""]",""
"lmdlab-rest-trial-limit","143","302987","0.0-60.0-1.0","","9203.699999928474","<div style=""font-size:40px;""><b>Please take a break!</b><br><br><br><br><p>Great work: you earned 120 points.<br><br><br><p>You have completed part(s) 1 of 5.<br><br><br><br>When you are ready to continue<br><br><br>please click the button.</p><br><br>","0","delaylearn","learning","break","5ada0b521771b700010a1777","h8Ym18yhTTVqpjo7FTKapTwe0RK2","","","","","","","","","","","","","","","","","","","","","0"
"html-keyboard-response","144","305992","0.0-60.0-2.0","","null","<div style=""font-size:100px;"">+</div>","null","delaylearn","learning","pre_fixation","5ada0b521771b700010a1777","","","","","","","","","","","","","","","","","","","","","",""
"lmdlab-html-vas-response","145","310589","0.0-60.0-3.0-0.0","","3586","How happy are you right now?","0.325","delaylearn","learning","mood_baseline","5ada0b521771b700010a1777","h8Ym18yhTTVqpjo7FTKapTwe0RK2","","","","","","","","","","","","","","","","","","","","[""Very unhappy"",""Very happy""]",""
"html-keyboard-response","146","312096","0.0-60.0-3.0-1.0","","null","","null","","","mood_baseline_fixation","","","","","","","","","","","","","","","","","","","","","","",""
"html-keyboard-response","147","314402","0.0-61.0","","null","<div style=""font-size:100px;"">+</div>","null","delaylearn","learning","ITI","5ada0b521771b700010a1777","h8Ym18yhTTVqpjo7FTKapTwe0RK2","","","","","","","","","","","","","","","","","","","2304","",""
"html-keyboard-response","148","315860","0.0-62.0-0.0","","1456.8999999761581","<div style=""display: flex; flex-direction: column; align-items: center; margin-top: -40px;""><img src=""images/pattern_7.png"" style=""width: 234px; height: 230px; margin-top: -50px;""><div style=""display: flex; justify-content: space-between; margin-top: 33px;""><img src=""images/choice_trial_14.png"" style=""width: 408px; height: 417px; margin-right: 200px;""><img src=""images/choice_trial_13.png"" style=""width: 408px; height: 417px;""></div></div>","j","delaylearn","learning","trial","5ada0b521771b700010a1777","h8Ym18yhTTVqpjo7FTKapTwe0RK2","1","images/choice_trial_14.png","images/choice_trial_13.png","images/pattern_7.png","j","j","750","14","13","6","1","27","1","1","13","130","","","","",""
"html-keyboard-response","149","316875","0.0-62.0-1.0","","null","<div style=""display: flex; flex-direction: column; align-items: center; margin-top: -40px;""><img src=""images/pattern_7.png"" style=""width: 234px; height: 230px; margin-top: -50px;""><div style=""display: flex; justify-content: space-between; margin-top: 33px;""><img src=""images/choice_trial_13.png"" style=""width: 408px; height: 417px; margin-left:608px;""></div></div>","null","delaylearn","learning","display_response","5ada0b521771b700010a1777","h8Ym18yhTTVqpjo7FTKapTwe0RK2","","","","","","","","","","","","","","","","","chosen stimuli: images/choice_trial_13.png","","","",""
"html-keyboard-response","150","317637","0.0-62.0-2.0","","null","","null","delaylearn","learning","feedback_duration_window","5ada0b521771b700010a1777","h8Ym18yhTTVqpjo7FTKapTwe0RK2","","","","","","","","","","","","","","","","","","750","","",""
"html-keyboard-response","151","319150","0.0-62.0-3.0","","null","<div style='margin:auto;width: auto; font-size: 150%'><span style='font-weight: bold; font-size: 100px; color: green;'>+10 points!</span><br><br></div>","null","delaylearn","learning","feedback_image_window","5ada0b521771b700010a1777","h8Ym18yhTTVqpjo7FTKapTwe0RK2","","","","","","","","","","","","","","","","","","","","",""
"html-keyboard-response","152","319664","0.0-63.0-0.0","","null","","null","","","mood_trial_fixation","","","","","","","","","","","","","","","","","","","","","","",""
"lmdlab-html-vas-response","153","324743","0.0-63.0-1.0","","4070","How happy are you right now?","0.3283333333333333","delaylearn","learning","mood_trial","5ada0b521771b700010a1777","h8Ym18yhTTVqpjo7FTKapTwe0RK2","","","","","","","","","","","","","","","","","","","","[""Very unhappy"",""Very happy""]",""
"html-keyboard-response","154","327040","0.0-64.0","","null","<div style=""font-size:100px;"">+</div>","null","delaylearn","learning","ITI","5ada0b521771b700010a1777","h8Ym18yhTTVqpjo7FTKapTwe0RK2","","","","","","","","","","","","","","","","","","","2280","",""
"html-keyboard-response","155","328832","0.0-65.0-0.0","","1790.2000000476837","<div style=""display: flex; flex-direction: column; align-items: center; margin-top: -40px;""><img src=""images/pattern_1.png"" style=""width: 234px; height: 230px; margin-top: -50px;""><div style=""display: flex; justify-content: space-between; margin-top: 33px;""><img src=""images/choice_trial_1.png"" style=""width: 408px; height: 417px; margin-right: 200px;""><img src=""images/choice_trial_2.png"" style=""width: 408px; height: 417px;""></div></div>","j","delaylearn","learning","trial","5ada0b521771b700010a1777","h8Ym18yhTTVqpjo7FTKapTwe0RK2","1","images/choice_trial_1.png","images/choice_trial_2.png","images/pattern_1.png","f","f","7000","1","2","1","0","28","0","0","2","130","","","","",""
"html-keyboard-response","156","329844","0.0-65.0-1.0","","null","<div style=""display: flex; flex-direction: column; align-items: center; margin-top: -40px;""><img src=""images/pattern_1.png"" style=""width: 234px; height: 230px; margin-top: -50px;""><div style=""display: flex; justify-content: space-between; margin-top: 33px;""><img src=""images/choice_trial_2.png"" style=""width: 408px; height: 417px; margin-left:608px;""></div></div>","null","delaylearn","learning","display_response","5ada0b521771b700010a1777","h8Ym18yhTTVqpjo7FTKapTwe0RK2","","","","","","","","","","","","","","","","","chosen stimuli: images/choice_trial_2.png","","","",""
"html-keyboard-response","157","336852","0.0-65.0-2.0","","null","","null","delaylearn","learning","feedback_duration_window","5ada0b521771b700010a1777","h8Ym18yhTTVqpjo7FTKapTwe0RK2","","","","","","","","","","","","","","","","","","7000","","",""
"html-keyboard-response","158","338363","0.0-65.0-3.0","","null","<div style='margin:auto;width: auto; font-size: 150%'><span style='font-weight: bold; font-size: 100px; color: red;'>0 points!</span><br><br></div>","null","delaylearn","learning","feedback_image_window","5ada0b521771b700010a1777","h8Ym18yhTTVqpjo7FTKapTwe0RK2","","","","","","","","","","","","","","","","","","","","",""
"html-keyboard-response","159","340525","0.0-66.0","","null","<div style=""font-size:100px;"">+</div>","null","delaylearn","learning","ITI","5ada0b521771b700010a1777","h8Ym18yhTTVqpjo7FTKapTwe0RK2","","","","","","","","","","","","","","","","","","","2150","",""
"html-keyboard-response","160","342477","0.0-67.0-0.0","","1950.3000000715256","<div style=""display: flex; flex-direction: column; align-items: center; margin-top: -40px;""><img src=""images/pattern_5.png"" style=""width: 234px; height: 230px; margin-top: -50px;""><div style=""display: flex; justify-content: space-between; margin-top: 33px;""><img src=""images/choice_trial_9.png"" style=""width: 408px; height: 417px; margin-right: 200px;""><img src=""images/choice_trial_10.png"" style=""width: 408px; height: 417px;""></div></div>","f","delaylearn","learning","trial","5ada0b521771b700010a1777","h8Ym18yhTTVqpjo7FTKapTwe0RK2","1","images/choice_trial_9.png","images/choice_trial_10.png","images/pattern_5.png","f","f","750","9","10","4","0","29","1","1","9","140","","","","",""
"html-keyboard-response","161","343489","0.0-67.0-1.0","","null","<div style=""display: flex; flex-direction: column; align-items: center; margin-top: -40px;""><img src=""images/pattern_5.png"" style=""width: 234px; height: 230px; margin-top: -50px;""><div style=""display: flex; justify-content: space-between; margin-top: 33px;""><img src=""images/choice_trial_9.png"" style=""width: 408px; height: 417px; margin-right: 608px;""></div></div>","null","delaylearn","learning","display_response","5ada0b521771b700010a1777","h8Ym18yhTTVqpjo7FTKapTwe0RK2","","","","","","","","","","","","","","","","","chosen stimuli: images/choice_trial_9.png","","","",""
"html-keyboard-response","162","344253","0.0-67.0-2.0","","null","","null","delaylearn","learning","feedback_duration_window","5ada0b521771b700010a1777","h8Ym18yhTTVqpjo7FTKapTwe0RK2","","","","","","","","","","","","","","","","","","750","","",""
"html-keyboard-response","163","345763","0.0-67.0-3.0","","null","<div style='margin:auto;width: auto; font-size: 150%'><span style='font-weight: bold; font-size: 100px; color: green;'>+10 points!</span><br><br></div>","null","delaylearn","learning","feedback_image_window","5ada0b521771b700010a1777","h8Ym18yhTTVqpjo7FTKapTwe0RK2","","","","","","","","","","","","","","","","","","","","",""
"html-keyboard-response","164","348177","0.0-68.0","","null","<div style=""font-size:100px;"">+</div>","null","delaylearn","learning","ITI","5ada0b521771b700010a1777","h8Ym18yhTTVqpjo7FTKapTwe0RK2","","","","","","","","","","","","","","","","","","","2407","",""
"html-keyboard-response","165","350497","0.0-69.0-0.0","","2318.600000023842","<div style=""display: flex; flex-direction: column; align-items: center; margin-top: -40px;""><img src=""images/pattern_6.png"" style=""width: 234px; height: 230px; margin-top: -50px;""><div style=""display: flex; justify-content: space-between; margin-top: 33px;""><img src=""images/choice_trial_12.png"" style=""width: 408px; height: 417px; margin-right: 200px;""><img src=""images/choice_trial_11.png"" style=""width: 408px; height: 417px;""></div></div>","f","delaylearn","learning","trial","5ada0b521771b700010a1777","h8Ym18yhTTVqpjo7FTKapTwe0RK2","1","images/choice_trial_12.png","images/choice_trial_11.png","images/pattern_6.png","j","j","750","12","11","5","1","30","0","0","12","140","","","","",""
"html-keyboard-response","166","351511","0.0-69.0-1.0","","null","<div style=""display: flex; flex-direction: column; align-items: center; margin-top: -40px;""><img src=""images/pattern_6.png"" style=""width: 234px; height: 230px; margin-top: -50px;""><div style=""display: flex; justify-content: space-between; margin-top: 33px;""><img src=""images/choice_trial_12.png"" style=""width: 408px; height: 417px; margin-right: 608px;""></div></div>","null","delaylearn","learning","display_response","5ada0b521771b700010a1777","h8Ym18yhTTVqpjo7FTKapTwe0RK2","","","","","","","","","","","","","","","","","chosen stimuli: images/choice_trial_12.png","","","",""
"html-keyboard-response","167","352263","0.0-69.0-2.0","","null","","null","delaylearn","learning","feedback_duration_window","5ada0b521771b700010a1777","h8Ym18yhTTVqpjo7FTKapTwe0RK2","","","","","","","","","","","","","","","","","","750","","",""
"html-keyboard-response","168","353766","0.0-69.0-3.0","","null","<div style='margin:auto;width: auto; font-size: 150%'><span style='font-weight: bold; font-size: 100px; color: red;'>0 points!</span><br><br></div>","null","delaylearn","learning","feedback_image_window","5ada0b521771b700010a1777","h8Ym18yhTTVqpjo7FTKapTwe0RK2","","","","","","","","","","","","","","","","","","","","",""
"html-keyboard-response","169","354277","0.0-70.0-0.0","","null","","null","","","mood_trial_fixation","","","","","","","","","","","","","","","","","","","","","","",""
"lmdlab-html-vas-response","170","358689","0.0-70.0-1.0","","3406","How happy are you right now?","0.32166666666666666","delaylearn","learning","mood_trial","5ada0b521771b700010a1777","h8Ym18yhTTVqpjo7FTKapTwe0RK2","","","","","","","","","","","","","","","","","","","","[""Very unhappy"",""Very happy""]",""
"html-keyboard-response","171","360932","0.0-71.0","","null","<div style=""font-size:100px;"">+</div>","null","delaylearn","learning","ITI","5ada0b521771b700010a1777","h8Ym18yhTTVqpjo7FTKapTwe0RK2","","","","","","","","","","","","","","","","","","","2235","",""
"html-keyboard-response","172","362333","0.0-72.0-0.0","","1399.7999999523163","<div style=""display: flex; flex-direction: column; align-items: center; margin-top: -40px;""><img src=""images/pattern_4.png"" style=""width: 234px; height: 230px; margin-top: -50px;""><div style=""display: flex; justify-content: space-between; margin-top: 33px;""><img src=""images/choice_trial_8.png"" style=""width: 408px; height: 417px; margin-right: 200px;""><img src=""images/choice_trial_7.png"" style=""width: 408px; height: 417px;""></div></div>","j","delaylearn","learning","trial","5ada0b521771b700010a1777","h8Ym18yhTTVqpjo7FTKapTwe0RK2","1","images/choice_trial_8.png","images/choice_trial_7.png","images/pattern_4.png","j","j","7000","8","7","3","1","31","1","1","7","150","","","","",""
"html-keyboard-response","173","363345","0.0-72.0-1.0","","null","<div style=""display: flex; flex-direction: column; align-items: center; margin-top: -40px;""><img src=""images/pattern_4.png"" style=""width: 234px; height: 230px; margin-top: -50px;""><div style=""display: flex; justify-content: space-between; margin-top: 33px;""><img src=""images/choice_trial_7.png"" style=""width: 408px; height: 417px; margin-left:608px;""></div></div>","null","delaylearn","learning","display_response","5ada0b521771b700010a1777","h8Ym18yhTTVqpjo7FTKapTwe0RK2","","","","","","","","","","","","","","","","","chosen stimuli: images/choice_trial_7.png","","","",""
"html-keyboard-response","174","370349","0.0-72.0-2.0","","null","","null","delaylearn","learning","feedback_duration_window","5ada0b521771b700010a1777","h8Ym18yhTTVqpjo7FTKapTwe0RK2","","","","","","","","","","","","","","","","","","7000","","",""
"html-keyboard-response","175","371855","0.0-72.0-3.0","","null","<div style='margin:auto;width: auto; font-size: 150%'><span style='font-weight: bold; font-size: 100px; color: green;'>+10 points!</span><br><br></div>","null","delaylearn","learning","feedback_image_window","5ada0b521771b700010a1777","h8Ym18yhTTVqpjo7FTKapTwe0RK2","","","","","","","","","","","","","","","","","","","","",""
"html-keyboard-response","176","373568","0.0-73.0","","null","<div style=""font-size:100px;"">+</div>","null","delaylearn","learning","ITI","5ada0b521771b700010a1777","h8Ym18yhTTVqpjo7FTKapTwe0RK2","","","","","","","","","","","","","","","","","","","1700","",""
"html-keyboard-response","177","375721","0.0-74.0-0.0","","2150.7999999523163","<div style=""display: flex; flex-direction: column; align-items: center; margin-top: -40px;""><img src=""images/pattern_3.png"" style=""width: 234px; height: 230px; margin-top: -50px;""><div style=""display: flex; justify-content: space-between; margin-top: 33px;""><img src=""images/choice_trial_6.png"" style=""width: 408px; height: 417px; margin-right: 200px;""><img src=""images/choice_trial_5.png"" style=""width: 408px; height: 417px;""></div></div>","j","delaylearn","learning","trial","5ada0b521771b700010a1777","h8Ym18yhTTVqpjo7FTKapTwe0RK2","1","images/choice_trial_6.png","images/choice_trial_5.png","images/pattern_3.png","j","j","7000","6","5","2","1","32","1","1","5","160","","","","",""
"html-keyboard-response","178","376736","0.0-74.0-1.0","","null","<div style=""display: flex; flex-direction: column; align-items: center; margin-top: -40px;""><img src=""images/pattern_3.png"" style=""width: 234px; height: 230px; margin-top: -50px;""><div style=""display: flex; justify-content: space-between; margin-top: 33px;""><img src=""images/choice_trial_5.png"" style=""width: 408px; height: 417px; margin-left:608px;""></div></div>","null","delaylearn","learning","display_response","5ada0b521771b700010a1777","h8Ym18yhTTVqpjo7FTKapTwe0RK2","","","","","","","","","","","","","","","","","chosen stimuli: images/choice_trial_5.png","","","",""
"html-keyboard-response","179","383745","0.0-74.0-2.0","","null","","null","delaylearn","learning","feedback_duration_window","5ada0b521771b700010a1777","h8Ym18yhTTVqpjo7FTKapTwe0RK2","","","","","","","","","","","","","","","","","","7000","","",""
"html-keyboard-response","180","385249","0.0-74.0-3.0","","null","<div style='margin:auto;width: auto; font-size: 150%'><span style='font-weight: bold; font-size: 100px; color: green;'>+10 points!</span><br><br></div>","null","delaylearn","learning","feedback_image_window","5ada0b521771b700010a1777","h8Ym18yhTTVqpjo7FTKapTwe0RK2","","","","","","","","","","","","","","","","","","","","",""
"html-keyboard-response","181","387460","0.0-75.0","","null","<div style=""font-size:100px;"">+</div>","null","delaylearn","learning","ITI","5ada0b521771b700010a1777","h8Ym18yhTTVqpjo7FTKapTwe0RK2","","","","","","","","","","","","","","","","","","","2201","",""
"html-keyboard-response","182","388823","0.0-76.0-0.0","","1361.3999999761581","<div style=""display: flex; flex-direction: column; align-items: center; margin-top: -40px;""><img src=""images/pattern_5.png"" style=""width: 234px; height: 230px; margin-top: -50px;""><div style=""display: flex; justify-content: space-between; margin-top: 33px;""><img src=""images/choice_trial_9.png"" style=""width: 408px; height: 417px; margin-right: 200px;""><img src=""images/choice_trial_10.png"" style=""width: 408px; height: 417px;""></div></div>","f","delaylearn","learning","trial","5ada0b521771b700010a1777","h8Ym18yhTTVqpjo7FTKapTwe0RK2","1","images/choice_trial_9.png","images/choice_trial_10.png","images/pattern_5.png","j","f","750","9","10","4","0","33","1","0","9","160","","","","",""
"html-keyboard-response","183","389831","0.0-76.0-1.0","","null","<div style=""display: flex; flex-direction: column; align-items: center; margin-top: -40px;""><img src=""images/pattern_5.png"" style=""width: 234px; height: 230px; margin-top: -50px;""><div style=""display: flex; justify-content: space-between; margin-top: 33px;""><img src=""images/choice_trial_9.png"" style=""width: 408px; height: 417px; margin-right: 608px;""></div></div>","null","delaylearn","learning","display_response","5ada0b521771b700010a1777","h8Ym18yhTTVqpjo7FTKapTwe0RK2","","","","","","","","","","","","","","","","","chosen stimuli: images/choice_trial_9.png","","","",""
"html-keyboard-response","184","390588","0.0-76.0-2.0","","null","","null","delaylearn","learning","feedback_duration_window","5ada0b521771b700010a1777","h8Ym18yhTTVqpjo7FTKapTwe0RK2","","","","","","","","","","","","","","","","","","750","","",""
"html-keyboard-response","185","392090","0.0-76.0-3.0","","null","<div style='margin:auto;width: auto; font-size: 150%'><span style='font-weight: bold; font-size: 100px; color: red;'>0 points!</span><br><br></div>","null","delaylearn","learning","feedback_image_window","5ada0b521771b700010a1777","h8Ym18yhTTVqpjo7FTKapTwe0RK2","","","","","","","","","","","","","","","","","","","","",""
"html-keyboard-response","186","394260","0.0-77.0","","null","<div style=""font-size:100px;"">+</div>","null","delaylearn","learning","ITI","5ada0b521771b700010a1777","h8Ym18yhTTVqpjo7FTKapTwe0RK2","","","","","","","","","","","","","","","","","","","2164","",""
"html-keyboard-response","187","396399","0.0-78.0-0.0","","2137.5","<div style=""display: flex; flex-direction: column; align-items: center; margin-top: -40px;""><img src=""images/pattern_1.png"" style=""width: 234px; height: 230px; margin-top: -50px;""><div style=""display: flex; justify-content: space-between; margin-top: 33px;""><img src=""images/choice_trial_1.png"" style=""width: 408px; height: 417px; margin-right: 200px;""><img src=""images/choice_trial_2.png"" style=""width: 408px; height: 417px;""></div></div>","f","delaylearn","learning","trial","5ada0b521771b700010a1777","h8Ym18yhTTVqpjo7FTKapTwe0RK2","1","images/choice_trial_1.png","images/choice_trial_2.png","images/pattern_1.png","f","f","7000","1","2","1","0","34","1","1","1","170","","","","",""
"html-keyboard-response","188","397415","0.0-78.0-1.0","","null","<div style=""display: flex; flex-direction: column; align-items: center; margin-top: -40px;""><img src=""images/pattern_1.png"" style=""width: 234px; height: 230px; margin-top: -50px;""><div style=""display: flex; justify-content: space-between; margin-top: 33px;""><img src=""images/choice_trial_1.png"" style=""width: 408px; height: 417px; margin-right: 608px;""></div></div>","null","delaylearn","learning","display_response","5ada0b521771b700010a1777","h8Ym18yhTTVqpjo7FTKapTwe0RK2","","","","","","","","","","","","","","","","","chosen stimuli: images/choice_trial_1.png","","","",""
"html-keyboard-response","189","404427","0.0-78.0-2.0","","null","","null","delaylearn","learning","feedback_duration_window","5ada0b521771b700010a1777","h8Ym18yhTTVqpjo7FTKapTwe0RK2","","","","","","","","","","","","","","","","","","7000","","",""
"html-keyboard-response","190","405937","0.0-78.0-3.0","","null","<div style='margin:auto;width: auto; font-size: 150%'><span style='font-weight: bold; font-size: 100px; color: green;'>+10 points!</span><br><br></div>","null","delaylearn","learning","feedback_image_window","5ada0b521771b700010a1777","h8Ym18yhTTVqpjo7FTKapTwe0RK2","","","","","","","","","","","","","","","","","","","","",""
"html-keyboard-response","191","406445","0.0-79.0-0.0","","null","","null","","","mood_trial_fixation","","","","","","","","","","","","","","","","","","","","","","",""
"lmdlab-html-vas-response","192","410802","0.0-79.0-1.0","","3351","How happy are you right now?","0.31833333333333336","delaylearn","learning","mood_trial","5ada0b521771b700010a1777","h8Ym18yhTTVqpjo7FTKapTwe0RK2","","","","","","","","","","","","","","","","","","","","[""Very unhappy"",""Very happy""]",""
"html-keyboard-response","193","413085","0.0-80.0","","null","<div style=""font-size:100px;"">+</div>","null","delaylearn","learning","ITI","5ada0b521771b700010a1777","h8Ym18yhTTVqpjo7FTKapTwe0RK2","","","","","","","","","","","","","","","","","","","2269","",""
"html-keyboard-response","194","414261","0.0-81.0-0.0","","1174.6000000238419","<div style=""display: flex; flex-direction: column; align-items: center; margin-top: -40px;""><img src=""images/pattern_6.png"" style=""width: 234px; height: 230px; margin-top: -50px;""><div style=""display: flex; justify-content: space-between; margin-top: 33px;""><img src=""images/choice_trial_11.png"" style=""width: 408px; height: 417px; margin-right: 200px;""><img src=""images/choice_trial_12.png"" style=""width: 408px; height: 417px;""></div></div>","j","delaylearn","learning","trial","5ada0b521771b700010a1777","h8Ym18yhTTVqpjo7FTKapTwe0RK2","1","images/choice_trial_11.png","images/choice_trial_12.png","images/pattern_6.png","j","f","750","11","12","5","0","35","0","1","12","180","","","","",""
"html-keyboard-response","195","415264","0.0-81.0-1.0","","null","<div style=""display: flex; flex-direction: column; align-items: center; margin-top: -40px;""><img src=""images/pattern_6.png"" style=""width: 234px; height: 230px; margin-top: -50px;""><div style=""display: flex; justify-content: space-between; margin-top: 33px;""><img src=""images/choice_trial_12.png"" style=""width: 408px; height: 417px; margin-left:608px;""></div></div>","null","delaylearn","learning","display_response","5ada0b521771b700010a1777","h8Ym18yhTTVqpjo7FTKapTwe0RK2","","","","","","","","","","","","","","","","","chosen stimuli: images/choice_trial_12.png","","","",""
"html-keyboard-response","196","416028","0.0-81.0-2.0","","null","","null","delaylearn","learning","feedback_duration_window","5ada0b521771b700010a1777","h8Ym18yhTTVqpjo7FTKapTwe0RK2","","","","","","","","","","","","","","","","","","750","","",""
"html-keyboard-response","197","417541","0.0-81.0-3.0","","null","<div style='margin:auto;width: auto; font-size: 150%'><span style='font-weight: bold; font-size: 100px; color: green;'>+10 points!</span><br><br></div>","null","delaylearn","learning","feedback_image_window","5ada0b521771b700010a1777","h8Ym18yhTTVqpjo7FTKapTwe0RK2","","","","","","","","","","","","","","","","","","","","",""
"html-keyboard-response","198","419897","0.0-82.0","","null","<div style=""font-size:100px;"">+</div>","null","delaylearn","learning","ITI","5ada0b521771b700010a1777","h8Ym18yhTTVqpjo7FTKapTwe0RK2","","","","","","","","","","","","","","","","","","","2346","",""
"html-keyboard-response","199","421184","0.0-83.0-0.0","","1285.8999999761581","<div style=""display: flex; flex-direction: column; align-items: center; margin-top: -40px;""><img src=""images/pattern_3.png"" style=""width: 234px; height: 230px; margin-top: -50px;""><div style=""display: flex; justify-content: space-between; margin-top: 33px;""><img src=""images/choice_trial_6.png"" style=""width: 408px; height: 417px; margin-right: 200px;""><img src=""images/choice_trial_5.png"" style=""width: 408px; height: 417px;""></div></div>","j","delaylearn","learning","trial","5ada0b521771b700010a1777","h8Ym18yhTTVqpjo7FTKapTwe0RK2","1","images/choice_trial_6.png","images/choice_trial_5.png","images/pattern_3.png","j","j","7000","6","5","2","1","36","1","1","5","190","","","","",""
"html-keyboard-response","200","422197","0.0-83.0-1.0","","null","<div style=""display: flex; flex-direction: column; align-items: center; margin-top: -40px;""><img src=""images/pattern_3.png"" style=""width: 234px; height: 230px; margin-top: -50px;""><div style=""display: flex; justify-content: space-between; margin-top: 33px;""><img src=""images/choice_trial_5.png"" style=""width: 408px; height: 417px; margin-left:608px;""></div></div>","null","delaylearn","learning","display_response","5ada0b521771b700010a1777","h8Ym18yhTTVqpjo7FTKapTwe0RK2","","","","","","","","","","","","","","","","","chosen stimuli: images/choice_trial_5.png","","","",""
"html-keyboard-response","201","429202","0.0-83.0-2.0","","null","","null","delaylearn","learning","feedback_duration_window","5ada0b521771b700010a1777","h8Ym18yhTTVqpjo7FTKapTwe0RK2","","","","","","","","","","","","","","","","","","7000","","",""
"html-keyboard-response","202","430705","0.0-83.0-3.0","","null","<div style='margin:auto;width: auto; font-size: 150%'><span style='font-weight: bold; font-size: 100px; color: green;'>+10 points!</span><br><br></div>","null","delaylearn","learning","feedback_image_window","5ada0b521771b700010a1777","h8Ym18yhTTVqpjo7FTKapTwe0RK2","","","","","","","","","","","","","","","","","","","","",""
"html-keyboard-response","203","432224","0.0-84.0","","null","<div style=""font-size:100px;"">+</div>","null","delaylearn","learning","ITI","5ada0b521771b700010a1777","h8Ym18yhTTVqpjo7FTKapTwe0RK2","","","","","","","","","","","","","","","","","","","1511","",""
"html-keyboard-response","204","434513","0.0-85.0-0.0","","2287.5999999046326","<div style=""display: flex; flex-direction: column; align-items: center; margin-top: -40px;""><img src=""images/pattern_4.png"" style=""width: 234px; height: 230px; margin-top: -50px;""><div style=""display: flex; justify-content: space-between; margin-top: 33px;""><img src=""images/choice_trial_8.png"" style=""width: 408px; height: 417px; margin-right: 200px;""><img src=""images/choice_trial_7.png"" style=""width: 408px; height: 417px;""></div></div>","j","delaylearn","learning","trial","5ada0b521771b700010a1777","h8Ym18yhTTVqpjo7FTKapTwe0RK2","1","images/choice_trial_8.png","images/choice_trial_7.png","images/pattern_4.png","f","j","7000","8","7","3","1","37","1","0","7","190","","","","",""
"html-keyboard-response","205","435519","0.0-85.0-1.0","","null","<div style=""display: flex; flex-direction: column; align-items: center; margin-top: -40px;""><img src=""images/pattern_4.png"" style=""width: 234px; height: 230px; margin-top: -50px;""><div style=""display: flex; justify-content: space-between; margin-top: 33px;""><img src=""images/choice_trial_7.png"" style=""width: 408px; height: 417px; margin-left:608px;""></div></div>","null","delaylearn","learning","display_response","5ada0b521771b700010a1777","h8Ym18yhTTVqpjo7FTKapTwe0RK2","","","","","","","","","","","","","","","","","chosen stimuli: images/choice_trial_7.png","","","",""
"html-keyboard-response","206","442528","0.0-85.0-2.0","","null","","null","delaylearn","learning","feedback_duration_window","5ada0b521771b700010a1777","h8Ym18yhTTVqpjo7FTKapTwe0RK2","","","","","","","","","","","","","","","","","","7000","","",""
"html-keyboard-response","207","444031","0.0-85.0-3.0","","null","<div style='margin:auto;width: auto; font-size: 150%'><span style='font-weight: bold; font-size: 100px; color: red;'>0 points!</span><br><br></div>","null","delaylearn","learning","feedback_image_window","5ada0b521771b700010a1777","h8Ym18yhTTVqpjo7FTKapTwe0RK2","","","","","","","","","","","","","","","","","","","","",""
"html-keyboard-response","208","445851","0.0-86.0","","null","<div style=""font-size:100px;"">+</div>","null","delaylearn","learning","ITI","5ada0b521771b700010a1777","h8Ym18yhTTVqpjo7FTKapTwe0RK2","","","","","","","","","","","","","","","","","","","1817","",""
"html-keyboard-response","209","447075","0.0-87.0-0.0","","1222.6999999284744","<div style=""display: flex; flex-direction: column; align-items: center; margin-top: -40px;""><img src=""images/pattern_7.png"" style=""width: 234px; height: 230px; margin-top: -50px;""><div style=""display: flex; justify-content: space-between; margin-top: 33px;""><img src=""images/choice_trial_13.png"" style=""width: 408px; height: 417px; margin-right: 200px;""><img src=""images/choice_trial_14.png"" style=""width: 408px; height: 417px;""></div></div>","f","delaylearn","learning","trial","5ada0b521771b700010a1777","h8Ym18yhTTVqpjo7FTKapTwe0RK2","1","images/choice_trial_13.png","images/choice_trial_14.png","images/pattern_7.png","f","f","750","13","14","6","0","38","1","1","13","200","","","","",""
"html-keyboard-response","210","448091","0.0-87.0-1.0","","null","<div style=""display: flex; flex-direction: column; align-items: center; margin-top: -40px;""><img src=""images/pattern_7.png"" style=""width: 234px; height: 230px; margin-top: -50px;""><div style=""display: flex; justify-content: space-between; margin-top: 33px;""><img src=""images/choice_trial_13.png"" style=""width: 408px; height: 417px; margin-right: 608px;""></div></div>","null","delaylearn","learning","display_response","5ada0b521771b700010a1777","h8Ym18yhTTVqpjo7FTKapTwe0RK2","","","","","","","","","","","","","","","","","chosen stimuli: images/choice_trial_13.png","","","",""
"html-keyboard-response","211","448854","0.0-87.0-2.0","","null","","null","delaylearn","learning","feedback_duration_window","5ada0b521771b700010a1777","h8Ym18yhTTVqpjo7FTKapTwe0RK2","","","","","","","","","","","","","","","","","","750","","",""
"html-keyboard-response","212","450370","0.0-87.0-3.0","","null","<div style='margin:auto;width: auto; font-size: 150%'><span style='font-weight: bold; font-size: 100px; color: green;'>+10 points!</span><br><br></div>","null","delaylearn","learning","feedback_image_window","5ada0b521771b700010a1777","h8Ym18yhTTVqpjo7FTKapTwe0RK2","","","","","","","","","","","","","","","","","","","","",""
"html-keyboard-response","213","452331","0.0-88.0","","null","<div style=""font-size:100px;"">+</div>","null","delaylearn","learning","ITI","5ada0b521771b700010a1777","h8Ym18yhTTVqpjo7FTKapTwe0RK2","","","","","","","","","","","","","","","","","","","1959","",""
"html-keyboard-response","214","454148","0.0-89.0-0.0","","1814.1000000238419","<div style=""display: flex; flex-direction: column; align-items: center; margin-top: -40px;""><img src=""images/pattern_1.png"" style=""width: 234px; height: 230px; margin-top: -50px;""><div style=""display: flex; justify-content: space-between; margin-top: 33px;""><img src=""images/choice_trial_1.png"" style=""width: 408px; height: 417px; margin-right: 200px;""><img src=""images/choice_trial_2.png"" style=""width: 408px; height: 417px;""></div></div>","f","delaylearn","learning","trial","5ada0b521771b700010a1777","h8Ym18yhTTVqpjo7FTKapTwe0RK2","1","images/choice_trial_1.png","images/choice_trial_2.png","images/pattern_1.png","f","f","7000","1","2","1","0","39","1","1","1","210","","","","",""
"html-keyboard-response","215","455164","0.0-89.0-1.0","","null","<div style=""display: flex; flex-direction: column; align-items: center; margin-top: -40px;""><img src=""images/pattern_1.png"" style=""width: 234px; height: 230px; margin-top: -50px;""><div style=""display: flex; justify-content: space-between; margin-top: 33px;""><img src=""images/choice_trial_1.png"" style=""width: 408px; height: 417px; margin-right: 608px;""></div></div>","null","delaylearn","learning","display_response","5ada0b521771b700010a1777","h8Ym18yhTTVqpjo7FTKapTwe0RK2","","","","","","","","","","","","","","","","","chosen stimuli: images/choice_trial_1.png","","","",""
"html-keyboard-response","216","462165","0.0-89.0-2.0","","null","","null","delaylearn","learning","feedback_duration_window","5ada0b521771b700010a1777","h8Ym18yhTTVqpjo7FTKapTwe0RK2","","","","","","","","","","","","","","","","","","7000","","",""
"html-keyboard-response","217","463674","0.0-89.0-3.0","","null","<div style='margin:auto;width: auto; font-size: 150%'><span style='font-weight: bold; font-size: 100px; color: green;'>+10 points!</span><br><br></div>","null","delaylearn","learning","feedback_image_window","5ada0b521771b700010a1777","h8Ym18yhTTVqpjo7FTKapTwe0RK2","","","","","","","","","","","","","","","","","","","","",""
"html-keyboard-response","218","464180","0.0-90.0-0.0","","null","","null","","","mood_trial_fixation","","","","","","","","","","","","","","","","","","","","","","",""
"lmdlab-html-vas-response","219","468362","0.0-90.0-1.0","","3176","How happy are you right now?","0.32","delaylearn","learning","mood_trial","5ada0b521771b700010a1777","h8Ym18yhTTVqpjo7FTKapTwe0RK2","","","","","","","","","","","","","","","","","","","","[""Very unhappy"",""Very happy""]",""
"html-keyboard-response","220","470043","0.0-91.0","","null","<div style=""font-size:100px;"">+</div>","null","delaylearn","learning","ITI","5ada0b521771b700010a1777","h8Ym18yhTTVqpjo7FTKapTwe0RK2","","","","","","","","","","","","","","","","","","","1668","",""
