"trial_type","trial_index","time_elapsed","internal_node_id","participant","rt","stimulus","response","exp_name","exp_stage","test_part","subjectID","databaseID","counterbal","choice_stimuli_1","choice_stimuli_2","pattern_stimuli","rewarded_answer","correct_answer","feedback_duration_times","stim_left","stim_right","pair","leftright_counter","trial","response_correct","response_rewarded","chosen_stim","counter","displayed_choice","feedback_durations","ITI_duration","labels","rest_warning"
"pavlovia","0","453","0.0-0.0","","","","","","","","","","","","","","","","","","","","","","","","","","","","","",""
"html-keyboard-response","1","3457","0.0-1.0","","null","<div style=""font-size:100px;"">+</div>","null","delaylearn","learning","pre_fixation","563e35190980220011572d9a","","","","","","","","","","","","","","","","","","","","","",""
"html-keyboard-response","2","4403","0.0-2.0-0.0","","943","<div style=""display: flex; flex-direction: column; align-items: center; margin-top: -40px;""><img src=""images/demo_images/pattern_1.png"" style=""width: 234px; height: 230px; margin-top: -50px;""><div style=""display: flex; justify-content: space-between; margin-top: 33px;""><img src=""images/demo_images/choice_trial_2.png"" style=""width: 408px; height: 417px; margin-right: 200px;""><img src=""images/demo_images/choice_trial_1.png"" style=""width: 408px; height: 417px;""></div></div>","j","delaylearn","learning","trial","563e35190980220011572d9a","v4Hs0NVhXSWdWr8aLsyxpNHa9n13","3","images/demo_images/choice_trial_2.png","images/demo_images/choice_trial_1.png","images/demo_images/pattern_1.png","j","j","3000","2","1","20","1","1","1","1","1","10","","","","",""
"html-keyboard-response","3","5408","0.0-2.0-1.0","","null","<div style=""display: flex; flex-direction: column; align-items: center; margin-top: -40px;""><img src=""images/demo_images/pattern_1.png"" style=""width: 234px; height: 230px; margin-top: -50px;""><div style=""display: flex; justify-content: space-between; margin-top: 33px;""><img src=""images/demo_images/choice_trial_1.png"" style=""width: 408px; height: 417px; margin-left:608px;""></div></div>","null","delaylearn","learning","display_response","563e35190980220011572d9a","v4Hs0NVhXSWdWr8aLsyxpNHa9n13","","","","","","","","","","","","","","","","","chosen stimuli: images/demo_images/choice_trial_1.png","","","",""
"html-keyboard-response","4","8412","0.0-2.0-2.0","","null","","null","delaylearn","learning","feedback_duration_window","563e35190980220011572d9a","v4Hs0NVhXSWdWr8aLsyxpNHa9n13","","","","","","","","","","","","","","","","","","3000","","",""
"html-keyboard-response","5","9916","0.0-2.0-3.0","","null","<div style='margin:auto;width: auto; font-size: 150%'><span style='font-weight: bold; font-size: 100px; color: green;'>+10 points!</span><br><br></div>","null","delaylearn","learning","feedback_image_window","563e35190980220011572d9a","v4Hs0NVhXSWdWr8aLsyxpNHa9n13","","","","","","","","","","","","","","","","","","","","",""
"html-keyboard-response","6","11994","0.0-3.0","","null","<div style=""font-size:100px;"">+</div>","null","delaylearn","learning","ITI","563e35190980220011572d9a","v4Hs0NVhXSWdWr8aLsyxpNHa9n13","","","","","","","","","","","","","","","","","","","2074","",""
"html-keyboard-response","7","12810","0.0-4.0-0.0","","811","<div style=""display: flex; flex-direction: column; align-items: center; margin-top: -40px;""><img src=""images/demo_images/pattern_1.png"" style=""width: 234px; height: 230px; margin-top: -50px;""><div style=""display: flex; justify-content: space-between; margin-top: 33px;""><img src=""images/demo_images/choice_trial_2.png"" style=""width: 408px; height: 417px; margin-right: 200px;""><img src=""images/demo_images/choice_trial_1.png"" style=""width: 408px; height: 417px;""></div></div>","j","delaylearn","learning","trial","563e35190980220011572d9a","v4Hs0NVhXSWdWr8aLsyxpNHa9n13","3","images/demo_images/choice_trial_2.png","images/demo_images/choice_trial_1.png","images/demo_images/pattern_1.png","j","j","3000","2","1","20","1","2","1","1","1","20","","","","",""
"html-keyboard-response","8","13814","0.0-4.0-1.0","","null","<div style=""display: flex; flex-direction: column; align-items: center; margin-top: -40px;""><img src=""images/demo_images/pattern_1.png"" style=""width: 234px; height: 230px; margin-top: -50px;""><div style=""display: flex; justify-content: space-between; margin-top: 33px;""><img src=""images/demo_images/choice_trial_1.png"" style=""width: 408px; height: 417px; margin-left:608px;""></div></div>","null","delaylearn","learning","display_response","563e35190980220011572d9a","v4Hs0NVhXSWdWr8aLsyxpNHa9n13","","","","","","","","","","","","","","","","","chosen stimuli: images/demo_images/choice_trial_1.png","","","",""
"html-keyboard-response","9","16817","0.0-4.0-2.0","","null","","null","delaylearn","learning","feedback_duration_window","563e35190980220011572d9a","v4Hs0NVhXSWdWr8aLsyxpNHa9n13","","","","","","","","","","","","","","","","","","3000","","",""
"html-keyboard-response","10","18320","0.0-4.0-3.0","","null","<div style='margin:auto;width: auto; font-size: 150%'><span style='font-weight: bold; font-size: 100px; color: green;'>+10 points!</span><br><br></div>","null","delaylearn","learning","feedback_image_window","563e35190980220011572d9a","v4Hs0NVhXSWdWr8aLsyxpNHa9n13","","","","","","","","","","","","","","","","","","","","",""
"html-keyboard-response","11","20541","0.0-5.0","","null","<div style=""font-size:100px;"">+</div>","null","delaylearn","learning","ITI","563e35190980220011572d9a","v4Hs0NVhXSWdWr8aLsyxpNHa9n13","","","","","","","","","","","","","","","","","","","2218","",""
"html-keyboard-response","12","21278","0.0-6.0-0.0","","734","<div style=""display: flex; flex-direction: column; align-items: center; margin-top: -40px;""><img src=""images/demo_images/pattern_1.png"" style=""width: 234px; height: 230px; margin-top: -50px;""><div style=""display: flex; justify-content: space-between; margin-top: 33px;""><img src=""images/demo_images/choice_trial_1.png"" style=""width: 408px; height: 417px; margin-right: 200px;""><img src=""images/demo_images/choice_trial_2.png"" style=""width: 408px; height: 417px;""></div></div>","f","delaylearn","learning","trial","563e35190980220011572d9a","v4Hs0NVhXSWdWr8aLsyxpNHa9n13","3","images/demo_images/choice_trial_1.png","images/demo_images/choice_trial_2.png","images/demo_images/pattern_1.png","j","f","3000","1","2","20","0","3","1","0","1","20","","","","",""
"html-keyboard-response","13","22282","0.0-6.0-1.0","","null","<div style=""display: flex; flex-direction: column; align-items: center; margin-top: -40px;""><img src=""images/demo_images/pattern_1.png"" style=""width: 234px; height: 230px; margin-top: -50px;""><div style=""display: flex; justify-content: space-between; margin-top: 33px;""><img src=""images/demo_images/choice_trial_1.png"" style=""width: 408px; height: 417px; margin-right: 608px;""></div></div>","null","delaylearn","learning","display_response","563e35190980220011572d9a","v4Hs0NVhXSWdWr8aLsyxpNHa9n13","","","","","","","","","","","","","","","","","chosen stimuli: images/demo_images/choice_trial_1.png","","","",""
"html-keyboard-response","14","25285","0.0-6.0-2.0","","null","","null","delaylearn","learning","feedback_duration_window","563e35190980220011572d9a","v4Hs0NVhXSWdWr8aLsyxpNHa9n13","","","","","","","","","","","","","","","","","","3000","","",""
"html-keyboard-response","15","26788","0.0-6.0-3.0","","null","<div style='margin:auto;width: auto; font-size: 150%'><span style='font-weight: bold; font-size: 100px; color: red;'>0 points!</span><br><br></div>","null","delaylearn","learning","feedback_image_window","563e35190980220011572d9a","v4Hs0NVhXSWdWr8aLsyxpNHa9n13","","","","","","","","","","","","","","","","","","","","",""
"html-keyboard-response","16","28839","0.0-7.0","","null","<div style=""font-size:100px;"">+</div>","null","delaylearn","learning","ITI","563e35190980220011572d9a","v4Hs0NVhXSWdWr8aLsyxpNHa9n13","","","","","","","","","","","","","","","","","","","2048","",""
"html-keyboard-response","17","29462","0.0-8.0-0.0","","619","<div style=""display: flex; flex-direction: column; align-items: center; margin-top: -40px;""><img src=""images/demo_images/pattern_1.png"" style=""width: 234px; height: 230px; margin-top: -50px;""><div style=""display: flex; justify-content: space-between; margin-top: 33px;""><img src=""images/demo_images/choice_trial_1.png"" style=""width: 408px; height: 417px; margin-right: 200px;""><img src=""images/demo_images/choice_trial_2.png"" style=""width: 408px; height: 417px;""></div></div>","f","delaylearn","learning","trial","563e35190980220011572d9a","v4Hs0NVhXSWdWr8aLsyxpNHa9n13","3","images/demo_images/choice_trial_1.png","images/demo_images/choice_trial_2.png","images/demo_images/pattern_1.png","f","f","3000","1","2","20","0","4","1","1","1","30","","","","",""
"html-keyboard-response","18","30465","0.0-8.0-1.0","","null","<div style=""display: flex; flex-direction: column; align-items: center; margin-top: -40px;""><img src=""images/demo_images/pattern_1.png"" style=""width: 234px; height: 230px; margin-top: -50px;""><div style=""display: flex; justify-content: space-between; margin-top: 33px;""><img src=""images/demo_images/choice_trial_1.png"" style=""width: 408px; height: 417px; margin-right: 608px;""></div></div>","null","delaylearn","learning","display_response","563e35190980220011572d9a","v4Hs0NVhXSWdWr8aLsyxpNHa9n13","","","","","","","","","","","","","","","","","chosen stimuli: images/demo_images/choice_trial_1.png","","","",""
"html-keyboard-response","19","33468","0.0-8.0-2.0","","null","","null","delaylearn","learning","feedback_duration_window","563e35190980220011572d9a","v4Hs0NVhXSWdWr8aLsyxpNHa9n13","","","","","","","","","","","","","","","","","","3000","","",""
"html-keyboard-response","20","34971","0.0-8.0-3.0","","null","<div style='margin:auto;width: auto; font-size: 150%'><span style='font-weight: bold; font-size: 100px; color: green;'>+10 points!</span><br><br></div>","null","delaylearn","learning","feedback_image_window","563e35190980220011572d9a","v4Hs0NVhXSWdWr8aLsyxpNHa9n13","","","","","","","","","","","","","","","","","","","","",""
"html-keyboard-response","21","35474","0.0-9.0-0.0","","null","","null","","","mood_trial_fixation","","","","","","","","","","","","","","","","","","","","","","",""
"lmdlab-html-vas-response","22","39140","0.0-9.0-1.0","","2655","How happy are you right now?","0.81484375","delaylearn","learning","mood_trial","563e35190980220011572d9a","v4Hs0NVhXSWdWr8aLsyxpNHa9n13","","","","","","","","","","","","","","","","","","","","[""Very unhappy"",""Very happy""]",""
"html-keyboard-response","23","41564","0.0-10.0","","null","<div style=""font-size:100px;"">+</div>","null","delaylearn","learning","ITI","563e35190980220011572d9a","v4Hs0NVhXSWdWr8aLsyxpNHa9n13","","","","","","","","","","","","","","","","","","","2422","",""
"html-keyboard-response","24","42124","0.0-11.0-0.0","","557","<div style=""display: flex; flex-direction: column; align-items: center; margin-top: -40px;""><img src=""images/demo_images/pattern_1.png"" style=""width: 234px; height: 230px; margin-top: -50px;""><div style=""display: flex; justify-content: space-between; margin-top: 33px;""><img src=""images/demo_images/choice_trial_2.png"" style=""width: 408px; height: 417px; margin-right: 200px;""><img src=""images/demo_images/choice_trial_1.png"" style=""width: 408px; height: 417px;""></div></div>","j","delaylearn","learning","trial","563e35190980220011572d9a","v4Hs0NVhXSWdWr8aLsyxpNHa9n13","3","images/demo_images/choice_trial_2.png","images/demo_images/choice_trial_1.png","images/demo_images/pattern_1.png","j","j","3000","2","1","20","1","5","1","1","1","40","","","","",""
"html-keyboard-response","25","43127","0.0-11.0-1.0","","null","<div style=""display: flex; flex-direction: column; align-items: center; margin-top: -40px;""><img src=""images/demo_images/pattern_1.png"" style=""width: 234px; height: 230px; margin-top: -50px;""><div style=""display: flex; justify-content: space-between; margin-top: 33px;""><img src=""images/demo_images/choice_trial_1.png"" style=""width: 408px; height: 417px; margin-left:608px;""></div></div>","null","delaylearn","learning","display_response","563e35190980220011572d9a","v4Hs0NVhXSWdWr8aLsyxpNHa9n13","","","","","","","","","","","","","","","","","chosen stimuli: images/demo_images/choice_trial_1.png","","","",""
"html-keyboard-response","26","46129","0.0-11.0-2.0","","null","","null","delaylearn","learning","feedback_duration_window","563e35190980220011572d9a","v4Hs0NVhXSWdWr8aLsyxpNHa9n13","","","","","","","","","","","","","","","","","","3000","","",""
"html-keyboard-response","27","47633","0.0-11.0-3.0","","null","<div style='margin:auto;width: auto; font-size: 150%'><span style='font-weight: bold; font-size: 100px; color: green;'>+10 points!</span><br><br></div>","null","delaylearn","learning","feedback_image_window","563e35190980220011572d9a","v4Hs0NVhXSWdWr8aLsyxpNHa9n13","","","","","","","","","","","","","","","","","","","","",""
"html-keyboard-response","28","49454","0.0-12.0","","null","<div style=""font-size:100px;"">+</div>","null","delaylearn","learning","ITI","563e35190980220011572d9a","v4Hs0NVhXSWdWr8aLsyxpNHa9n13","","","","","","","","","","","","","","","","","","","1818","",""
"html-keyboard-response","29","50179","0.0-13.0-0.0","","721","<div style=""display: flex; flex-direction: column; align-items: center; margin-top: -40px;""><img src=""images/demo_images/pattern_1.png"" style=""width: 234px; height: 230px; margin-top: -50px;""><div style=""display: flex; justify-content: space-between; margin-top: 33px;""><img src=""images/demo_images/choice_trial_1.png"" style=""width: 408px; height: 417px; margin-right: 200px;""><img src=""images/demo_images/choice_trial_2.png"" style=""width: 408px; height: 417px;""></div></div>","f","delaylearn","learning","trial","563e35190980220011572d9a","v4Hs0NVhXSWdWr8aLsyxpNHa9n13","3","images/demo_images/choice_trial_1.png","images/demo_images/choice_trial_2.png","images/demo_images/pattern_1.png","f","f","3000","1","2","20","0","6","1","1","1","50","","","","",""
"html-keyboard-response","30","51183","0.0-13.0-1.0","","null","<div style=""display: flex; flex-direction: column; align-items: center; margin-top: -40px;""><img src=""images/demo_images/pattern_1.png"" style=""width: 234px; height: 230px; margin-top: -50px;""><div style=""display: flex; justify-content: space-between; margin-top: 33px;""><img src=""images/demo_images/choice_trial_1.png"" style=""width: 408px; height: 417px; margin-right: 608px;""></div></div>","null","delaylearn","learning","display_response","563e35190980220011572d9a","v4Hs0NVhXSWdWr8aLsyxpNHa9n13","","","","","","","","","","","","","","","","","chosen stimuli: images/demo_images/choice_trial_1.png","","","",""
"html-keyboard-response","31","54186","0.0-13.0-2.0","","null","","null","delaylearn","learning","feedback_duration_window","563e35190980220011572d9a","v4Hs0NVhXSWdWr8aLsyxpNHa9n13","","","","","","","","","","","","","","","","","","3000","","",""
"html-keyboard-response","32","55690","0.0-13.0-3.0","","null","<div style='margin:auto;width: auto; font-size: 150%'><span style='font-weight: bold; font-size: 100px; color: green;'>+10 points!</span><br><br></div>","null","delaylearn","learning","feedback_image_window","563e35190980220011572d9a","v4Hs0NVhXSWdWr8aLsyxpNHa9n13","","","","","","","","","","","","","","","","","","","","",""
"html-keyboard-response","33","57797","0.0-14.0","","null","<div style=""font-size:100px;"">+</div>","null","delaylearn","learning","ITI","563e35190980220011572d9a","v4Hs0NVhXSWdWr8aLsyxpNHa9n13","","","","","","","","","","","","","","","","","","","2103","",""
"html-keyboard-response","34","58380","0.0-15.0-0.0","","578","<div style=""display: flex; flex-direction: column; align-items: center; margin-top: -40px;""><img src=""images/demo_images/pattern_1.png"" style=""width: 234px; height: 230px; margin-top: -50px;""><div style=""display: flex; justify-content: space-between; margin-top: 33px;""><img src=""images/demo_images/choice_trial_2.png"" style=""width: 408px; height: 417px; margin-right: 200px;""><img src=""images/demo_images/choice_trial_1.png"" style=""width: 408px; height: 417px;""></div></div>","j","delaylearn","learning","trial","563e35190980220011572d9a","v4Hs0NVhXSWdWr8aLsyxpNHa9n13","3","images/demo_images/choice_trial_2.png","images/demo_images/choice_trial_1.png","images/demo_images/pattern_1.png","j","j","3000","2","1","20","1","7","1","1","1","60","","","","",""
"html-keyboard-response","35","59384","0.0-15.0-1.0","","null","<div style=""display: flex; flex-direction: column; align-items: center; margin-top: -40px;""><img src=""images/demo_images/pattern_1.png"" style=""width: 234px; height: 230px; margin-top: -50px;""><div style=""display: flex; justify-content: space-between; margin-top: 33px;""><img src=""images/demo_images/choice_trial_1.png"" style=""width: 408px; height: 417px; margin-left:608px;""></div></div>","null","delaylearn","learning","display_response","563e35190980220011572d9a","v4Hs0NVhXSWdWr8aLsyxpNHa9n13","","","","","","","","","","","","","","","","","chosen stimuli: images/demo_images/choice_trial_1.png","","","",""
"html-keyboard-response","36","62387","0.0-15.0-2.0","","null","","null","delaylearn","learning","feedback_duration_window","563e35190980220011572d9a","v4Hs0NVhXSWdWr8aLsyxpNHa9n13","","","","","","","","","","","","","","","","","","3000","","",""
"html-keyboard-response","37","63890","0.0-15.0-3.0","","null","<div style='margin:auto;width: auto; font-size: 150%'><span style='font-weight: bold; font-size: 100px; color: green;'>+10 points!</span><br><br></div>","null","delaylearn","learning","feedback_image_window","563e35190980220011572d9a","v4Hs0NVhXSWdWr8aLsyxpNHa9n13","","","","","","","","","","","","","","","","","","","","",""
"html-keyboard-response","38","65718","0.0-16.0","","null","<div style=""font-size:100px;"">+</div>","null","delaylearn","learning","ITI","563e35190980220011572d9a","v4Hs0NVhXSWdWr8aLsyxpNHa9n13","","","","","","","","","","","","","","","","","","","1825","",""
"html-keyboard-response","39","67575","0.0-17.0-0.0","","1853","<div style=""display: flex; flex-direction: column; align-items: center; margin-top: -40px;""><img src=""images/demo_images/pattern_1.png"" style=""width: 234px; height: 230px; margin-top: -50px;""><div style=""display: flex; justify-content: space-between; margin-top: 33px;""><img src=""images/demo_images/choice_trial_1.png"" style=""width: 408px; height: 417px; margin-right: 200px;""><img src=""images/demo_images/choice_trial_2.png"" style=""width: 408px; height: 417px;""></div></div>","f","delaylearn","learning","trial","563e35190980220011572d9a","v4Hs0NVhXSWdWr8aLsyxpNHa9n13","3","images/demo_images/choice_trial_1.png","images/demo_images/choice_trial_2.png","images/demo_images/pattern_1.png","f","f","3000","1","2","20","0","8","1","1","1","70","","","","",""
"html-keyboard-response","40","68579","0.0-17.0-1.0","","null","<div style=""display: flex; flex-direction: column; align-items: center; margin-top: -40px;""><img src=""images/demo_images/pattern_1.png"" style=""width: 234px; height: 230px; margin-top: -50px;""><div style=""display: flex; justify-content: space-between; margin-top: 33px;""><img src=""images/demo_images/choice_trial_1.png"" style=""width: 408px; height: 417px; margin-right: 608px;""></div></div>","null","delaylearn","learning","display_response","563e35190980220011572d9a","v4Hs0NVhXSWdWr8aLsyxpNHa9n13","","","","","","","","","","","","","","","","","chosen stimuli: images/demo_images/choice_trial_1.png","","","",""
"html-keyboard-response","41","71582","0.0-17.0-2.0","","null","","null","delaylearn","learning","feedback_duration_window","563e35190980220011572d9a","v4Hs0NVhXSWdWr8aLsyxpNHa9n13","","","","","","","","","","","","","","","","","","3000","","",""
"html-keyboard-response","42","73085","0.0-17.0-3.0","","null","<div style='margin:auto;width: auto; font-size: 150%'><span style='font-weight: bold; font-size: 100px; color: green;'>+10 points!</span><br><br></div>","null","delaylearn","learning","feedback_image_window","563e35190980220011572d9a","v4Hs0NVhXSWdWr8aLsyxpNHa9n13","","","","","","","","","","","","","","","","","","","","",""
"html-button-response","43","76974","0.0-18.0","","3886","
  <div style=""display: flex; align-items: center; justify-content: center; height: 80vh;"">
  <div>
          <img src=""images/inst_demo_finish.png"" style=""width: 80vw; height:auto;"">
          <br><br>
      </div>
      <br><br>
  </div>","0","","","","","","","","","","","","","","","","","","","","","","","","","",""
"html-keyboard-response","44","90740","0.0-19.0","","13764","
  <div style=""display: flex; align-items: center; justify-content: center; height: 80vh;"">
  <div>
          <img src=""images/inst_6.png"" style=""width: 80vw; height:auto;"">
          <br><br>
      </div>
      <br><br>
  </div>","j","","","","","","","","","","","","","","","","","","","","","","","","","",""
"html-keyboard-response","45","93744","0.0-20.0","","null","<div style=""font-size:100px;"">+</div>","null","delaylearn","learning","pre_fixation","563e35190980220011572d9a","","","","","","","","","","","","","","","","","","","","","",""
"html-keyboard-response","46","95892","0.0-21.0","","null","<div style=""font-size:100px;"">+</div>","null","delaylearn","learning","ITI","563e35190980220011572d9a","v4Hs0NVhXSWdWr8aLsyxpNHa9n13","","","","","","","","","","","","","","","","","","","2143","",""
"html-keyboard-response","47","96992","0.0-22.0-0.0","","1095","<div style=""display: flex; flex-direction: column; align-items: center; margin-top: -40px;""><img src=""images/pattern_3.png"" style=""width: 234px; height: 230px; margin-top: -50px;""><div style=""display: flex; justify-content: space-between; margin-top: 33px;""><img src=""images/choice_trial_13.png"" style=""width: 408px; height: 417px; margin-right: 200px;""><img src=""images/choice_trial_10.png"" style=""width: 408px; height: 417px;""></div></div>","f","delaylearn","learning","trial","563e35190980220011572d9a","v4Hs0NVhXSWdWr8aLsyxpNHa9n13","3","images/choice_trial_13.png","images/choice_trial_10.png","images/pattern_3.png","f","f","7000","13","10","2","0","9","1","1","13","80","","","","",""
"html-keyboard-response","48","97995","0.0-22.0-1.0","","null","<div style=""display: flex; flex-direction: column; align-items: center; margin-top: -40px;""><img src=""images/pattern_3.png"" style=""width: 234px; height: 230px; margin-top: -50px;""><div style=""display: flex; justify-content: space-between; margin-top: 33px;""><img src=""images/choice_trial_13.png"" style=""width: 408px; height: 417px; margin-right: 608px;""></div></div>","null","delaylearn","learning","display_response","563e35190980220011572d9a","v4Hs0NVhXSWdWr8aLsyxpNHa9n13","","","","","","","","","","","","","","","","","chosen stimuli: images/choice_trial_13.png","","","",""
"html-keyboard-response","49","104998","0.0-22.0-2.0","","null","","null","delaylearn","learning","feedback_duration_window","563e35190980220011572d9a","v4Hs0NVhXSWdWr8aLsyxpNHa9n13","","","","","","","","","","","","","","","","","","7000","","",""
"html-keyboard-response","50","106502","0.0-22.0-3.0","","null","<div style='margin:auto;width: auto; font-size: 150%'><span style='font-weight: bold; font-size: 100px; color: green;'>+10 points!</span><br><br></div>","null","delaylearn","learning","feedback_image_window","563e35190980220011572d9a","v4Hs0NVhXSWdWr8aLsyxpNHa9n13","","","","","","","","","","","","","","","","","","","","",""
"html-keyboard-response","51","108855","0.0-23.0","","null","<div style=""font-size:100px;"">+</div>","null","delaylearn","learning","ITI","563e35190980220011572d9a","v4Hs0NVhXSWdWr8aLsyxpNHa9n13","","","","","","","","","","","","","","","","","","","2350","",""
"html-keyboard-response","52","110730","0.0-24.0-0.0","","1869","<div style=""display: flex; flex-direction: column; align-items: center; margin-top: -40px;""><img src=""images/pattern_7.png"" style=""width: 234px; height: 230px; margin-top: -50px;""><div style=""display: flex; justify-content: space-between; margin-top: 33px;""><img src=""images/choice_trial_12.png"" style=""width: 408px; height: 417px; margin-right: 200px;""><img src=""images/choice_trial_6.png"" style=""width: 408px; height: 417px;""></div></div>","f","delaylearn","learning","trial","563e35190980220011572d9a","v4Hs0NVhXSWdWr8aLsyxpNHa9n13","3","images/choice_trial_12.png","images/choice_trial_6.png","images/pattern_7.png","j","j","750","12","6","6","1","10","0","0","12","80","","","","",""
"html-keyboard-response","53","111734","0.0-24.0-1.0","","null","<div style=""display: flex; flex-direction: column; align-items: center; margin-top: -40px;""><img src=""images/pattern_7.png"" style=""width: 234px; height: 230px; margin-top: -50px;""><div style=""display: flex; justify-content: space-between; margin-top: 33px;""><img src=""images/choice_trial_12.png"" style=""width: 408px; height: 417px; margin-right: 608px;""></div></div>","null","delaylearn","learning","display_response","563e35190980220011572d9a","v4Hs0NVhXSWdWr8aLsyxpNHa9n13","","","","","","","","","","","","","","","","","chosen stimuli: images/choice_trial_12.png","","","",""
"html-keyboard-response","54","112487","0.0-24.0-2.0","","null","","null","delaylearn","learning","feedback_duration_window","563e35190980220011572d9a","v4Hs0NVhXSWdWr8aLsyxpNHa9n13","","","","","","","","","","","","","","","","","","750","","",""
"html-keyboard-response","55","113991","0.0-24.0-3.0","","null","<div style='margin:auto;width: auto; font-size: 150%'><span style='font-weight: bold; font-size: 100px; color: red;'>0 points!</span><br><br></div>","null","delaylearn","learning","feedback_image_window","563e35190980220011572d9a","v4Hs0NVhXSWdWr8aLsyxpNHa9n13","","","","","","","","","","","","","","","","","","","","",""
"html-keyboard-response","56","115823","0.0-25.0","","null","<div style=""font-size:100px;"">+</div>","null","delaylearn","learning","ITI","563e35190980220011572d9a","v4Hs0NVhXSWdWr8aLsyxpNHa9n13","","","","","","","","","","","","","","","","","","","1829","",""
"html-keyboard-response","57","117835","0.0-26.0-0.0","","2007.000000000029","<div style=""display: flex; flex-direction: column; align-items: center; margin-top: -40px;""><img src=""images/pattern_4.png"" style=""width: 234px; height: 230px; margin-top: -50px;""><div style=""display: flex; justify-content: space-between; margin-top: 33px;""><img src=""images/choice_trial_15.png"" style=""width: 408px; height: 417px; margin-right: 200px;""><img src=""images/choice_trial_9.png"" style=""width: 408px; height: 417px;""></div></div>","j","delaylearn","learning","trial","563e35190980220011572d9a","v4Hs0NVhXSWdWr8aLsyxpNHa9n13","3","images/choice_trial_15.png","images/choice_trial_9.png","images/pattern_4.png","f","f","7000","15","9","3","0","11","0","0","9","80","","","","",""
"html-keyboard-response","58","118839","0.0-26.0-1.0","","null","<div style=""display: flex; flex-direction: column; align-items: center; margin-top: -40px;""><img src=""images/pattern_4.png"" style=""width: 234px; height: 230px; margin-top: -50px;""><div style=""display: flex; justify-content: space-between; margin-top: 33px;""><img src=""images/choice_trial_9.png"" style=""width: 408px; height: 417px; margin-left:608px;""></div></div>","null","delaylearn","learning","display_response","563e35190980220011572d9a","v4Hs0NVhXSWdWr8aLsyxpNHa9n13","","","","","","","","","","","","","","","","","chosen stimuli: images/choice_trial_9.png","","","",""
"html-keyboard-response","59","125842","0.0-26.0-2.0","","null","","null","delaylearn","learning","feedback_duration_window","563e35190980220011572d9a","v4Hs0NVhXSWdWr8aLsyxpNHa9n13","","","","","","","","","","","","","","","","","","7000","","",""
"html-keyboard-response","60","127346","0.0-26.0-3.0","","null","<div style='margin:auto;width: auto; font-size: 150%'><span style='font-weight: bold; font-size: 100px; color: red;'>0 points!</span><br><br></div>","null","delaylearn","learning","feedback_image_window","563e35190980220011572d9a","v4Hs0NVhXSWdWr8aLsyxpNHa9n13","","","","","","","","","","","","","","","","","","","","",""
"html-keyboard-response","61","129202","0.0-27.0","","null","<div style=""font-size:100px;"">+</div>","null","delaylearn","learning","ITI","563e35190980220011572d9a","v4Hs0NVhXSWdWr8aLsyxpNHa9n13","","","","","","","","","","","","","","","","","","","1852","",""
"html-keyboard-response","62","130370","0.0-28.0-0.0","","1163","<div style=""display: flex; flex-direction: column; align-items: center; margin-top: -40px;""><img src=""images/pattern_5.png"" style=""width: 234px; height: 230px; margin-top: -50px;""><div style=""display: flex; justify-content: space-between; margin-top: 33px;""><img src=""images/choice_trial_2.png"" style=""width: 408px; height: 417px; margin-right: 200px;""><img src=""images/choice_trial_11.png"" style=""width: 408px; height: 417px;""></div></div>","j","delaylearn","learning","trial","563e35190980220011572d9a","v4Hs0NVhXSWdWr8aLsyxpNHa9n13","3","images/choice_trial_2.png","images/choice_trial_11.png","images/pattern_5.png","j","j","750","2","11","4","1","12","1","1","11","90","","","","",""
"html-keyboard-response","63","131373","0.0-28.0-1.0","","null","<div style=""display: flex; flex-direction: column; align-items: center; margin-top: -40px;""><img src=""images/pattern_5.png"" style=""width: 234px; height: 230px; margin-top: -50px;""><div style=""display: flex; justify-content: space-between; margin-top: 33px;""><img src=""images/choice_trial_11.png"" style=""width: 408px; height: 417px; margin-left:608px;""></div></div>","null","delaylearn","learning","display_response","563e35190980220011572d9a","v4Hs0NVhXSWdWr8aLsyxpNHa9n13","","","","","","","","","","","","","","","","","chosen stimuli: images/choice_trial_11.png","","","",""
"html-keyboard-response","64","132127","0.0-28.0-2.0","","null","","null","delaylearn","learning","feedback_duration_window","563e35190980220011572d9a","v4Hs0NVhXSWdWr8aLsyxpNHa9n13","","","","","","","","","","","","","","","","","","750","","",""
"html-keyboard-response","65","133630","0.0-28.0-3.0","","null","<div style='margin:auto;width: auto; font-size: 150%'><span style='font-weight: bold; font-size: 100px; color: green;'>+10 points!</span><br><br></div>","null","delaylearn","learning","feedback_image_window","563e35190980220011572d9a","v4Hs0NVhXSWdWr8aLsyxpNHa9n13","","","","","","","","","","","","","","","","","","","","",""
"html-keyboard-response","66","135461","0.0-29.0","","null","<div style=""font-size:100px;"">+</div>","null","delaylearn","learning","ITI","563e35190980220011572d9a","v4Hs0NVhXSWdWr8aLsyxpNHa9n13","","","","","","","","","","","","","","","","","","","1828","",""
"html-keyboard-response","67","137023","0.0-30.0-0.0","","1557.999999999971","<div style=""display: flex; flex-direction: column; align-items: center; margin-top: -40px;""><img src=""images/pattern_6.png"" style=""width: 234px; height: 230px; margin-top: -50px;""><div style=""display: flex; justify-content: space-between; margin-top: 33px;""><img src=""images/choice_trial_16.png"" style=""width: 408px; height: 417px; margin-right: 200px;""><img src=""images/choice_trial_3.png"" style=""width: 408px; height: 417px;""></div></div>","j","delaylearn","learning","trial","563e35190980220011572d9a","v4Hs0NVhXSWdWr8aLsyxpNHa9n13","3","images/choice_trial_16.png","images/choice_trial_3.png","images/pattern_6.png","j","f","750","16","3","5","0","13","0","1","3","100","","","","",""
"html-keyboard-response","68","138027","0.0-30.0-1.0","","null","<div style=""display: flex; flex-direction: column; align-items: center; margin-top: -40px;""><img src=""images/pattern_6.png"" style=""width: 234px; height: 230px; margin-top: -50px;""><div style=""display: flex; justify-content: space-between; margin-top: 33px;""><img src=""images/choice_trial_3.png"" style=""width: 408px; height: 417px; margin-left:608px;""></div></div>","null","delaylearn","learning","display_response","563e35190980220011572d9a","v4Hs0NVhXSWdWr8aLsyxpNHa9n13","","","","","","","","","","","","","","","","","chosen stimuli: images/choice_trial_3.png","","","",""
"html-keyboard-response","69","138780","0.0-30.0-2.0","","null","","null","delaylearn","learning","feedback_duration_window","563e35190980220011572d9a","v4Hs0NVhXSWdWr8aLsyxpNHa9n13","","","","","","","","","","","","","","","","","","750","","",""
"html-keyboard-response","70","140284","0.0-30.0-3.0","","null","<div style='margin:auto;width: auto; font-size: 150%'><span style='font-weight: bold; font-size: 100px; color: green;'>+10 points!</span><br><br></div>","null","delaylearn","learning","feedback_image_window","563e35190980220011572d9a","v4Hs0NVhXSWdWr8aLsyxpNHa9n13","","","","","","","","","","","","","","","","","","","","",""
"html-keyboard-response","71","140786","0.0-31.0-0.0","","null","","null","","","mood_trial_fixation","","","","","","","","","","","","","","","","","","","","","","",""
"lmdlab-html-vas-response","72","145808","0.0-31.0-1.0","","4014","How happy are you right now?","0.6778067129629629","delaylearn","learning","mood_trial","563e35190980220011572d9a","v4Hs0NVhXSWdWr8aLsyxpNHa9n13","","","","","","","","","","","","","","","","","","","","[""Very unhappy"",""Very happy""]",""
"html-keyboard-response","73","147932","0.0-32.0","","null","<div style=""font-size:100px;"">+</div>","null","delaylearn","learning","ITI","563e35190980220011572d9a","v4Hs0NVhXSWdWr8aLsyxpNHa9n13","","","","","","","","","","","","","","","","","","","2122","",""
"html-keyboard-response","74","149375","0.0-33.0-0.0","","1439","<div style=""display: flex; flex-direction: column; align-items: center; margin-top: -40px;""><img src=""images/pattern_1.png"" style=""width: 234px; height: 230px; margin-top: -50px;""><div style=""display: flex; justify-content: space-between; margin-top: 33px;""><img src=""images/choice_trial_8.png"" style=""width: 408px; height: 417px; margin-right: 200px;""><img src=""images/choice_trial_14.png"" style=""width: 408px; height: 417px;""></div></div>","j","delaylearn","learning","trial","563e35190980220011572d9a","v4Hs0NVhXSWdWr8aLsyxpNHa9n13","3","images/choice_trial_8.png","images/choice_trial_14.png","images/pattern_1.png","j","j","7000","8","14","1","1","14","1","1","14","110","","","","",""
"html-keyboard-response","75","150379","0.0-33.0-1.0","","null","<div style=""display: flex; flex-direction: column; align-items: center; margin-top: -40px;""><img src=""images/pattern_1.png"" style=""width: 234px; height: 230px; margin-top: -50px;""><div style=""display: flex; justify-content: space-between; margin-top: 33px;""><img src=""images/choice_trial_14.png"" style=""width: 408px; height: 417px; margin-left:608px;""></div></div>","null","delaylearn","learning","display_response","563e35190980220011572d9a","v4Hs0NVhXSWdWr8aLsyxpNHa9n13","","","","","","","","","","","","","","","","","chosen stimuli: images/choice_trial_14.png","","","",""
"html-keyboard-response","76","157381","0.0-33.0-2.0","","null","","null","delaylearn","learning","feedback_duration_window","563e35190980220011572d9a","v4Hs0NVhXSWdWr8aLsyxpNHa9n13","","","","","","","","","","","","","","","","","","7000","","",""
"html-keyboard-response","77","158885","0.0-33.0-3.0","","null","<div style='margin:auto;width: auto; font-size: 150%'><span style='font-weight: bold; font-size: 100px; color: green;'>+10 points!</span><br><br></div>","null","delaylearn","learning","feedback_image_window","563e35190980220011572d9a","v4Hs0NVhXSWdWr8aLsyxpNHa9n13","","","","","","","","","","","","","","","","","","","","",""
"html-keyboard-response","78","160389","0.0-34.0","","null","<div style=""font-size:100px;"">+</div>","null","delaylearn","learning","ITI","563e35190980220011572d9a","v4Hs0NVhXSWdWr8aLsyxpNHa9n13","","","","","","","","","","","","","","","","","","","1500","",""
"html-keyboard-response","79","161598","0.0-35.0-0.0","","1204","<div style=""display: flex; flex-direction: column; align-items: center; margin-top: -40px;""><img src=""images/pattern_3.png"" style=""width: 234px; height: 230px; margin-top: -50px;""><div style=""display: flex; justify-content: space-between; margin-top: 33px;""><img src=""images/choice_trial_10.png"" style=""width: 408px; height: 417px; margin-right: 200px;""><img src=""images/choice_trial_13.png"" style=""width: 408px; height: 417px;""></div></div>","j","delaylearn","learning","trial","563e35190980220011572d9a","v4Hs0NVhXSWdWr8aLsyxpNHa9n13","3","images/choice_trial_10.png","images/choice_trial_13.png","images/pattern_3.png","f","j","7000","10","13","2","1","15","1","0","13","110","","","","",""
"html-keyboard-response","80","162601","0.0-35.0-1.0","","null","<div style=""display: flex; flex-direction: column; align-items: center; margin-top: -40px;""><img src=""images/pattern_3.png"" style=""width: 234px; height: 230px; margin-top: -50px;""><div style=""display: flex; justify-content: space-between; margin-top: 33px;""><img src=""images/choice_trial_13.png"" style=""width: 408px; height: 417px; margin-left:608px;""></div></div>","null","delaylearn","learning","display_response","563e35190980220011572d9a","v4Hs0NVhXSWdWr8aLsyxpNHa9n13","","","","","","","","","","","","","","","","","chosen stimuli: images/choice_trial_13.png","","","",""
"html-keyboard-response","81","169605","0.0-35.0-2.0","","null","","null","delaylearn","learning","feedback_duration_window","563e35190980220011572d9a","v4Hs0NVhXSWdWr8aLsyxpNHa9n13","","","","","","","","","","","","","","","","","","7000","","",""
"html-keyboard-response","82","171107","0.0-35.0-3.0","","null","<div style='margin:auto;width: auto; font-size: 150%'><span style='font-weight: bold; font-size: 100px; color: red;'>0 points!</span><br><br></div>","null","delaylearn","learning","feedback_image_window","563e35190980220011572d9a","v4Hs0NVhXSWdWr8aLsyxpNHa9n13","","","","","","","","","","","","","","","","","","","","",""
"html-keyboard-response","83","173256","0.0-36.0","","null","<div style=""font-size:100px;"">+</div>","null","delaylearn","learning","ITI","563e35190980220011572d9a","v4Hs0NVhXSWdWr8aLsyxpNHa9n13","","","","","","","","","","","","","","","","","","","2146","",""
"html-keyboard-response","84","174278","0.0-37.0-0.0","","1017","<div style=""display: flex; flex-direction: column; align-items: center; margin-top: -40px;""><img src=""images/pattern_5.png"" style=""width: 234px; height: 230px; margin-top: -50px;""><div style=""display: flex; justify-content: space-between; margin-top: 33px;""><img src=""images/choice_trial_11.png"" style=""width: 408px; height: 417px; margin-right: 200px;""><img src=""images/choice_trial_2.png"" style=""width: 408px; height: 417px;""></div></div>","f","delaylearn","learning","trial","563e35190980220011572d9a","v4Hs0NVhXSWdWr8aLsyxpNHa9n13","3","images/choice_trial_11.png","images/choice_trial_2.png","images/pattern_5.png","f","f","750","11","2","4","0","16","1","1","11","120","","","","",""
"html-keyboard-response","85","175282","0.0-37.0-1.0","","null","<div style=""display: flex; flex-direction: column; align-items: center; margin-top: -40px;""><img src=""images/pattern_5.png"" style=""width: 234px; height: 230px; margin-top: -50px;""><div style=""display: flex; justify-content: space-between; margin-top: 33px;""><img src=""images/choice_trial_11.png"" style=""width: 408px; height: 417px; margin-right: 608px;""></div></div>","null","delaylearn","learning","display_response","563e35190980220011572d9a","v4Hs0NVhXSWdWr8aLsyxpNHa9n13","","","","","","","","","","","","","","","","","chosen stimuli: images/choice_trial_11.png","","","",""
"html-keyboard-response","86","176035","0.0-37.0-2.0","","null","","null","delaylearn","learning","feedback_duration_window","563e35190980220011572d9a","v4Hs0NVhXSWdWr8aLsyxpNHa9n13","","","","","","","","","","","","","","","","","","750","","",""
"html-keyboard-response","87","177538","0.0-37.0-3.0","","null","<div style='margin:auto;width: auto; font-size: 150%'><span style='font-weight: bold; font-size: 100px; color: green;'>+10 points!</span><br><br></div>","null","delaylearn","learning","feedback_image_window","563e35190980220011572d9a","v4Hs0NVhXSWdWr8aLsyxpNHa9n13","","","","","","","","","","","","","","","","","","","","",""
"html-keyboard-response","88","178041","0.0-38.0-0.0","","null","","null","","","mood_trial_fixation","","","","","","","","","","","","","","","","","","","","","","",""
"lmdlab-html-vas-response","89","183177","0.0-38.0-1.0","","4122","How happy are you right now?","0.8870659722222223","delaylearn","learning","mood_trial","563e35190980220011572d9a","v4Hs0NVhXSWdWr8aLsyxpNHa9n13","","","","","","","","","","","","","","","","","","","","[""Very unhappy"",""Very happy""]",""
"html-keyboard-response","90","185534","0.0-39.0","","null","<div style=""font-size:100px;"">+</div>","null","delaylearn","learning","ITI","563e35190980220011572d9a","v4Hs0NVhXSWdWr8aLsyxpNHa9n13","","","","","","","","","","","","","","","","","","","2355","",""
"html-keyboard-response","91","187304","0.0-40.0-0.0","","1766","<div style=""display: flex; flex-direction: column; align-items: center; margin-top: -40px;""><img src=""images/pattern_6.png"" style=""width: 234px; height: 230px; margin-top: -50px;""><div style=""display: flex; justify-content: space-between; margin-top: 33px;""><img src=""images/choice_trial_16.png"" style=""width: 408px; height: 417px; margin-right: 200px;""><img src=""images/choice_trial_3.png"" style=""width: 408px; height: 417px;""></div></div>","j","delaylearn","learning","trial","563e35190980220011572d9a","v4Hs0NVhXSWdWr8aLsyxpNHa9n13","3","images/choice_trial_16.png","images/choice_trial_3.png","images/pattern_6.png","f","f","750","16","3","5","0","17","0","0","3","120","","","","",""
"html-keyboard-response","92","188308","0.0-40.0-1.0","","null","<div style=""display: flex; flex-direction: column; align-items: center; margin-top: -40px;""><img src=""images/pattern_6.png"" style=""width: 234px; height: 230px; margin-top: -50px;""><div style=""display: flex; justify-content: space-between; margin-top: 33px;""><img src=""images/choice_trial_3.png"" style=""width: 408px; height: 417px; margin-left:608px;""></div></div>","null","delaylearn","learning","display_response","563e35190980220011572d9a","v4Hs0NVhXSWdWr8aLsyxpNHa9n13","","","","","","","","","","","","","","","","","chosen stimuli: images/choice_trial_3.png","","","",""
"html-keyboard-response","93","189061","0.0-40.0-2.0","","null","","null","delaylearn","learning","feedback_duration_window","563e35190980220011572d9a","v4Hs0NVhXSWdWr8aLsyxpNHa9n13","","","","","","","","","","","","","","","","","","750","","",""
"html-keyboard-response","94","190563","0.0-40.0-3.0","","null","<div style='margin:auto;width: auto; font-size: 150%'><span style='font-weight: bold; font-size: 100px; color: red;'>0 points!</span><br><br></div>","null","delaylearn","learning","feedback_image_window","563e35190980220011572d9a","v4Hs0NVhXSWdWr8aLsyxpNHa9n13","","","","","","","","","","","","","","","","","","","","",""
"html-keyboard-response","95","192426","0.0-41.0","","null","<div style=""font-size:100px;"">+</div>","null","delaylearn","learning","ITI","563e35190980220011572d9a","v4Hs0NVhXSWdWr8aLsyxpNHa9n13","","","","","","","","","","","","","","","","","","","1860","",""
"html-keyboard-response","96","194005","0.0-42.0-0.0","","1576","<div style=""display: flex; flex-direction: column; align-items: center; margin-top: -40px;""><img src=""images/pattern_4.png"" style=""width: 234px; height: 230px; margin-top: -50px;""><div style=""display: flex; justify-content: space-between; margin-top: 33px;""><img src=""images/choice_trial_9.png"" style=""width: 408px; height: 417px; margin-right: 200px;""><img src=""images/choice_trial_15.png"" style=""width: 408px; height: 417px;""></div></div>","f","delaylearn","learning","trial","563e35190980220011572d9a","v4Hs0NVhXSWdWr8aLsyxpNHa9n13","3","images/choice_trial_9.png","images/choice_trial_15.png","images/pattern_4.png","j","j","7000","9","15","3","1","18","0","0","9","120","","","","",""
"html-keyboard-response","97","195008","0.0-42.0-1.0","","null","<div style=""display: flex; flex-direction: column; align-items: center; margin-top: -40px;""><img src=""images/pattern_4.png"" style=""width: 234px; height: 230px; margin-top: -50px;""><div style=""display: flex; justify-content: space-between; margin-top: 33px;""><img src=""images/choice_trial_9.png"" style=""width: 408px; height: 417px; margin-right: 608px;""></div></div>","null","delaylearn","learning","display_response","563e35190980220011572d9a","v4Hs0NVhXSWdWr8aLsyxpNHa9n13","","","","","","","","","","","","","","","","","chosen stimuli: images/choice_trial_9.png","","","",""
"html-keyboard-response","98","202011","0.0-42.0-2.0","","null","","null","delaylearn","learning","feedback_duration_window","563e35190980220011572d9a","v4Hs0NVhXSWdWr8aLsyxpNHa9n13","","","","","","","","","","","","","","","","","","7000","","",""
"html-keyboard-response","99","203515","0.0-42.0-3.0","","null","<div style='margin:auto;width: auto; font-size: 150%'><span style='font-weight: bold; font-size: 100px; color: red;'>0 points!</span><br><br></div>","null","delaylearn","learning","feedback_image_window","563e35190980220011572d9a","v4Hs0NVhXSWdWr8aLsyxpNHa9n13","","","","","","","","","","","","","","","","","","","","",""
"html-keyboard-response","100","205872","0.0-43.0","","null","<div style=""font-size:100px;"">+</div>","null","delaylearn","learning","ITI","563e35190980220011572d9a","v4Hs0NVhXSWdWr8aLsyxpNHa9n13","","","","","","","","","","","","","","","","","","","2353","",""
"html-keyboard-response","101","207361","0.0-44.0-0.0","","1484","<div style=""display: flex; flex-direction: column; align-items: center; margin-top: -40px;""><img src=""images/pattern_7.png"" style=""width: 234px; height: 230px; margin-top: -50px;""><div style=""display: flex; justify-content: space-between; margin-top: 33px;""><img src=""images/choice_trial_6.png"" style=""width: 408px; height: 417px; margin-right: 200px;""><img src=""images/choice_trial_12.png"" style=""width: 408px; height: 417px;""></div></div>","f","delaylearn","learning","trial","563e35190980220011572d9a","v4Hs0NVhXSWdWr8aLsyxpNHa9n13","3","images/choice_trial_6.png","images/choice_trial_12.png","images/pattern_7.png","j","f","750","6","12","6","0","19","1","0","6","120","","","","",""
"html-keyboard-response","102","208365","0.0-44.0-1.0","","null","<div style=""display: flex; flex-direction: column; align-items: center; margin-top: -40px;""><img src=""images/pattern_7.png"" style=""width: 234px; height: 230px; margin-top: -50px;""><div style=""display: flex; justify-content: space-between; margin-top: 33px;""><img src=""images/choice_trial_6.png"" style=""width: 408px; height: 417px; margin-right: 608px;""></div></div>","null","delaylearn","learning","display_response","563e35190980220011572d9a","v4Hs0NVhXSWdWr8aLsyxpNHa9n13","","","","","","","","","","","","","","","","","chosen stimuli: images/choice_trial_6.png","","","",""
"html-keyboard-response","103","209118","0.0-44.0-2.0","","null","","null","delaylearn","learning","feedback_duration_window","563e35190980220011572d9a","v4Hs0NVhXSWdWr8aLsyxpNHa9n13","","","","","","","","","","","","","","","","","","750","","",""
"html-keyboard-response","104","210622","0.0-44.0-3.0","","null","<div style='margin:auto;width: auto; font-size: 150%'><span style='font-weight: bold; font-size: 100px; color: red;'>0 points!</span><br><br></div>","null","delaylearn","learning","feedback_image_window","563e35190980220011572d9a","v4Hs0NVhXSWdWr8aLsyxpNHa9n13","","","","","","","","","","","","","","","","","","","","",""
"html-keyboard-response","105","212440","0.0-45.0","","null","<div style=""font-size:100px;"">+</div>","null","delaylearn","learning","ITI","563e35190980220011572d9a","v4Hs0NVhXSWdWr8aLsyxpNHa9n13","","","","","","","","","","","","","","","","","","","1815","",""
"html-keyboard-response","106","214564","0.0-46.0-0.0","","2121","<div style=""display: flex; flex-direction: column; align-items: center; margin-top: -40px;""><img src=""images/pattern_1.png"" style=""width: 234px; height: 230px; margin-top: -50px;""><div style=""display: flex; justify-content: space-between; margin-top: 33px;""><img src=""images/choice_trial_14.png"" style=""width: 408px; height: 417px; margin-right: 200px;""><img src=""images/choice_trial_8.png"" style=""width: 408px; height: 417px;""></div></div>","j","delaylearn","learning","trial","563e35190980220011572d9a","v4Hs0NVhXSWdWr8aLsyxpNHa9n13","3","images/choice_trial_14.png","images/choice_trial_8.png","images/pattern_1.png","f","f","7000","14","8","1","0","20","0","0","8","120","","","","",""
"html-keyboard-response","107","215568","0.0-46.0-1.0","","null","<div style=""display: flex; flex-direction: column; align-items: center; margin-top: -40px;""><img src=""images/pattern_1.png"" style=""width: 234px; height: 230px; margin-top: -50px;""><div style=""display: flex; justify-content: space-between; margin-top: 33px;""><img src=""images/choice_trial_8.png"" style=""width: 408px; height: 417px; margin-left:608px;""></div></div>","null","delaylearn","learning","display_response","563e35190980220011572d9a","v4Hs0NVhXSWdWr8aLsyxpNHa9n13","","","","","","","","","","","","","","","","","chosen stimuli: images/choice_trial_8.png","","","",""
"html-keyboard-response","108","222572","0.0-46.0-2.0","","null","","null","delaylearn","learning","feedback_duration_window","563e35190980220011572d9a","v4Hs0NVhXSWdWr8aLsyxpNHa9n13","","","","","","","","","","","","","","","","","","7000","","",""
"html-keyboard-response","109","224076","0.0-46.0-3.0","","null","<div style='margin:auto;width: auto; font-size: 150%'><span style='font-weight: bold; font-size: 100px; color: red;'>0 points!</span><br><br></div>","null","delaylearn","learning","feedback_image_window","563e35190980220011572d9a","v4Hs0NVhXSWdWr8aLsyxpNHa9n13","","","","","","","","","","","","","","","","","","","","",""
"html-keyboard-response","110","225722","0.0-47.0","","null","<div style=""font-size:100px;"">+</div>","null","delaylearn","learning","ITI","563e35190980220011572d9a","v4Hs0NVhXSWdWr8aLsyxpNHa9n13","","","","","","","","","","","","","","","","","","","1643","",""
"html-keyboard-response","111","227058","0.0-48.0-0.0","","1330","<div style=""display: flex; flex-direction: column; align-items: center; margin-top: -40px;""><img src=""images/pattern_6.png"" style=""width: 234px; height: 230px; margin-top: -50px;""><div style=""display: flex; justify-content: space-between; margin-top: 33px;""><img src=""images/choice_trial_3.png"" style=""width: 408px; height: 417px; margin-right: 200px;""><img src=""images/choice_trial_16.png"" style=""width: 408px; height: 417px;""></div></div>","j","delaylearn","learning","trial","563e35190980220011572d9a","v4Hs0NVhXSWdWr8aLsyxpNHa9n13","3","images/choice_trial_3.png","images/choice_trial_16.png","images/pattern_6.png","j","j","750","3","16","5","1","21","1","1","16","130","","","","",""
"html-keyboard-response","112","228062","0.0-48.0-1.0","","null","<div style=""display: flex; flex-direction: column; align-items: center; margin-top: -40px;""><img src=""images/pattern_6.png"" style=""width: 234px; height: 230px; margin-top: -50px;""><div style=""display: flex; justify-content: space-between; margin-top: 33px;""><img src=""images/choice_trial_16.png"" style=""width: 408px; height: 417px; margin-left:608px;""></div></div>","null","delaylearn","learning","display_response","563e35190980220011572d9a","v4Hs0NVhXSWdWr8aLsyxpNHa9n13","","","","","","","","","","","","","","","","","chosen stimuli: images/choice_trial_16.png","","","",""
"html-keyboard-response","113","228815","0.0-48.0-2.0","","null","","null","delaylearn","learning","feedback_duration_window","563e35190980220011572d9a","v4Hs0NVhXSWdWr8aLsyxpNHa9n13","","","","","","","","","","","","","","","","","","750","","",""
"html-keyboard-response","114","230318","0.0-48.0-3.0","","null","<div style='margin:auto;width: auto; font-size: 150%'><span style='font-weight: bold; font-size: 100px; color: green;'>+10 points!</span><br><br></div>","null","delaylearn","learning","feedback_image_window","563e35190980220011572d9a","v4Hs0NVhXSWdWr8aLsyxpNHa9n13","","","","","","","","","","","","","","","","","","","","",""
"html-keyboard-response","115","232303","0.0-49.0","","null","<div style=""font-size:100px;"">+</div>","null","delaylearn","learning","ITI","563e35190980220011572d9a","v4Hs0NVhXSWdWr8aLsyxpNHa9n13","","","","","","","","","","","","","","","","","","","1982","",""
"html-keyboard-response","116","233952","0.0-50.0-0.0","","1644","<div style=""display: flex; flex-direction: column; align-items: center; margin-top: -40px;""><img src=""images/pattern_4.png"" style=""width: 234px; height: 230px; margin-top: -50px;""><div style=""display: flex; justify-content: space-between; margin-top: 33px;""><img src=""images/choice_trial_15.png"" style=""width: 408px; height: 417px; margin-right: 200px;""><img src=""images/choice_trial_9.png"" style=""width: 408px; height: 417px;""></div></div>","j","delaylearn","learning","trial","563e35190980220011572d9a","v4Hs0NVhXSWdWr8aLsyxpNHa9n13","3","images/choice_trial_15.png","images/choice_trial_9.png","images/pattern_4.png","f","f","7000","15","9","3","0","22","0","0","9","130","","","","",""
"html-keyboard-response","117","234955","0.0-50.0-1.0","","null","<div style=""display: flex; flex-direction: column; align-items: center; margin-top: -40px;""><img src=""images/pattern_4.png"" style=""width: 234px; height: 230px; margin-top: -50px;""><div style=""display: flex; justify-content: space-between; margin-top: 33px;""><img src=""images/choice_trial_9.png"" style=""width: 408px; height: 417px; margin-left:608px;""></div></div>","null","delaylearn","learning","display_response","563e35190980220011572d9a","v4Hs0NVhXSWdWr8aLsyxpNHa9n13","","","","","","","","","","","","","","","","","chosen stimuli: images/choice_trial_9.png","","","",""
"html-keyboard-response","118","241960","0.0-50.0-2.0","","null","","null","delaylearn","learning","feedback_duration_window","563e35190980220011572d9a","v4Hs0NVhXSWdWr8aLsyxpNHa9n13","","","","","","","","","","","","","","","","","","7000","","",""
"html-keyboard-response","119","243463","0.0-50.0-3.0","","null","<div style='margin:auto;width: auto; font-size: 150%'><span style='font-weight: bold; font-size: 100px; color: red;'>0 points!</span><br><br></div>","null","delaylearn","learning","feedback_image_window","563e35190980220011572d9a","v4Hs0NVhXSWdWr8aLsyxpNHa9n13","","","","","","","","","","","","","","","","","","","","",""
"html-keyboard-response","120","243966","0.0-51.0-0.0","","null","","null","","","mood_trial_fixation","","","","","","","","","","","","","","","","","","","","","","",""
"lmdlab-html-vas-response","121","248762","0.0-51.0-1.0","","3788","How happy are you right now?","0.7055844907407407","delaylearn","learning","mood_trial","563e35190980220011572d9a","v4Hs0NVhXSWdWr8aLsyxpNHa9n13","","","","","","","","","","","","","","","","","","","","[""Very unhappy"",""Very happy""]",""
"html-keyboard-response","122","250959","0.0-52.0","","null","<div style=""font-size:100px;"">+</div>","null","delaylearn","learning","ITI","563e35190980220011572d9a","v4Hs0NVhXSWdWr8aLsyxpNHa9n13","","","","","","","","","","","","","","","","","","","2195","",""
"html-keyboard-response","123","252374","0.0-53.0-0.0","","1410","<div style=""display: flex; flex-direction: column; align-items: center; margin-top: -40px;""><img src=""images/pattern_7.png"" style=""width: 234px; height: 230px; margin-top: -50px;""><div style=""display: flex; justify-content: space-between; margin-top: 33px;""><img src=""images/choice_trial_12.png"" style=""width: 408px; height: 417px; margin-right: 200px;""><img src=""images/choice_trial_6.png"" style=""width: 408px; height: 417px;""></div></div>","f","delaylearn","learning","trial","563e35190980220011572d9a","v4Hs0NVhXSWdWr8aLsyxpNHa9n13","3","images/choice_trial_12.png","images/choice_trial_6.png","images/pattern_7.png","j","j","750","12","6","6","1","23","0","0","12","130","","","","",""
"html-keyboard-response","124","253378","0.0-53.0-1.0","","null","<div style=""display: flex; flex-direction: column; align-items: center; margin-top: -40px;""><img src=""images/pattern_7.png"" style=""width: 234px; height: 230px; margin-top: -50px;""><div style=""display: flex; justify-content: space-between; margin-top: 33px;""><img src=""images/choice_trial_12.png"" style=""width: 408px; height: 417px; margin-right: 608px;""></div></div>","null","delaylearn","learning","display_response","563e35190980220011572d9a","v4Hs0NVhXSWdWr8aLsyxpNHa9n13","","","","","","","","","","","","","","","","","chosen stimuli: images/choice_trial_12.png","","","",""
"html-keyboard-response","125","254130","0.0-53.0-2.0","","null","","null","delaylearn","learning","feedback_duration_window","563e35190980220011572d9a","v4Hs0NVhXSWdWr8aLsyxpNHa9n13","","","","","","","","","","","","","","","","","","750","","",""
"html-keyboard-response","126","255634","0.0-53.0-3.0","","null","<div style='margin:auto;width: auto; font-size: 150%'><span style='font-weight: bold; font-size: 100px; color: red;'>0 points!</span><br><br></div>","null","delaylearn","learning","feedback_image_window","563e35190980220011572d9a","v4Hs0NVhXSWdWr8aLsyxpNHa9n13","","","","","","","","","","","","","","","","","","","","",""
"html-keyboard-response","127","258115","0.0-54.0","","null","<div style=""font-size:100px;"">+</div>","null","delaylearn","learning","ITI","563e35190980220011572d9a","v4Hs0NVhXSWdWr8aLsyxpNHa9n13","","","","","","","","","","","","","","","","","","","2478","",""
"html-keyboard-response","128","259385","0.0-55.0-0.0","","1265","<div style=""display: flex; flex-direction: column; align-items: center; margin-top: -40px;""><img src=""images/pattern_1.png"" style=""width: 234px; height: 230px; margin-top: -50px;""><div style=""display: flex; justify-content: space-between; margin-top: 33px;""><img src=""images/choice_trial_8.png"" style=""width: 408px; height: 417px; margin-right: 200px;""><img src=""images/choice_trial_14.png"" style=""width: 408px; height: 417px;""></div></div>","f","delaylearn","learning","trial","563e35190980220011572d9a","v4Hs0NVhXSWdWr8aLsyxpNHa9n13","3","images/choice_trial_8.png","images/choice_trial_14.png","images/pattern_1.png","f","j","7000","8","14","1","1","24","0","1","8","140","","","","",""
"html-keyboard-response","129","260388","0.0-55.0-1.0","","null","<div style=""display: flex; flex-direction: column; align-items: center; margin-top: -40px;""><img src=""images/pattern_1.png"" style=""width: 234px; height: 230px; margin-top: -50px;""><div style=""display: flex; justify-content: space-between; margin-top: 33px;""><img src=""images/choice_trial_8.png"" style=""width: 408px; height: 417px; margin-right: 608px;""></div></div>","null","delaylearn","learning","display_response","563e35190980220011572d9a","v4Hs0NVhXSWdWr8aLsyxpNHa9n13","","","","","","","","","","","","","","","","","chosen stimuli: images/choice_trial_8.png","","","",""
"html-keyboard-response","130","267391","0.0-55.0-2.0","","null","","null","delaylearn","learning","feedback_duration_window","563e35190980220011572d9a","v4Hs0NVhXSWdWr8aLsyxpNHa9n13","","","","","","","","","","","","","","","","","","7000","","",""
"html-keyboard-response","131","268895","0.0-55.0-3.0","","null","<div style='margin:auto;width: auto; font-size: 150%'><span style='font-weight: bold; font-size: 100px; color: green;'>+10 points!</span><br><br></div>","null","delaylearn","learning","feedback_image_window","563e35190980220011572d9a","v4Hs0NVhXSWdWr8aLsyxpNHa9n13","","","","","","","","","","","","","","","","","","","","",""
"html-keyboard-response","132","271107","0.0-56.0","","null","<div style=""font-size:100px;"">+</div>","null","delaylearn","learning","ITI","563e35190980220011572d9a","v4Hs0NVhXSWdWr8aLsyxpNHa9n13","","","","","","","","","","","","","","","","","","","2209","",""
"html-keyboard-response","133","272519","0.0-57.0-0.0","","1405","<div style=""display: flex; flex-direction: column; align-items: center; margin-top: -40px;""><img src=""images/pattern_5.png"" style=""width: 234px; height: 230px; margin-top: -50px;""><div style=""display: flex; justify-content: space-between; margin-top: 33px;""><img src=""images/choice_trial_2.png"" style=""width: 408px; height: 417px; margin-right: 200px;""><img src=""images/choice_trial_11.png"" style=""width: 408px; height: 417px;""></div></div>","j","delaylearn","learning","trial","563e35190980220011572d9a","v4Hs0NVhXSWdWr8aLsyxpNHa9n13","3","images/choice_trial_2.png","images/choice_trial_11.png","images/pattern_5.png","j","j","750","2","11","4","1","25","1","1","11","150","","","","",""
"html-keyboard-response","134","273522","0.0-57.0-1.0","","null","<div style=""display: flex; flex-direction: column; align-items: center; margin-top: -40px;""><img src=""images/pattern_5.png"" style=""width: 234px; height: 230px; margin-top: -50px;""><div style=""display: flex; justify-content: space-between; margin-top: 33px;""><img src=""images/choice_trial_11.png"" style=""width: 408px; height: 417px; margin-left:608px;""></div></div>","null","delaylearn","learning","display_response","563e35190980220011572d9a","v4Hs0NVhXSWdWr8aLsyxpNHa9n13","","","","","","","","","","","","","","","","","chosen stimuli: images/choice_trial_11.png","","","",""
"html-keyboard-response","135","274275","0.0-57.0-2.0","","null","","null","delaylearn","learning","feedback_duration_window","563e35190980220011572d9a","v4Hs0NVhXSWdWr8aLsyxpNHa9n13","","","","","","","","","","","","","","","","","","750","","",""
"html-keyboard-response","136","275779","0.0-57.0-3.0","","null","<div style='margin:auto;width: auto; font-size: 150%'><span style='font-weight: bold; font-size: 100px; color: green;'>+10 points!</span><br><br></div>","null","delaylearn","learning","feedback_image_window","563e35190980220011572d9a","v4Hs0NVhXSWdWr8aLsyxpNHa9n13","","","","","","","","","","","","","","","","","","","","",""
"html-keyboard-response","137","277808","0.0-58.0","","null","<div style=""font-size:100px;"">+</div>","null","delaylearn","learning","ITI","563e35190980220011572d9a","v4Hs0NVhXSWdWr8aLsyxpNHa9n13","","","","","","","","","","","","","","","","","","","2026","",""
"html-keyboard-response","138","278907","0.0-59.0-0.0","","1094.9999999999418","<div style=""display: flex; flex-direction: column; align-items: center; margin-top: -40px;""><img src=""images/pattern_3.png"" style=""width: 234px; height: 230px; margin-top: -50px;""><div style=""display: flex; justify-content: space-between; margin-top: 33px;""><img src=""images/choice_trial_10.png"" style=""width: 408px; height: 417px; margin-right: 200px;""><img src=""images/choice_trial_13.png"" style=""width: 408px; height: 417px;""></div></div>","j","delaylearn","learning","trial","563e35190980220011572d9a","v4Hs0NVhXSWdWr8aLsyxpNHa9n13","3","images/choice_trial_10.png","images/choice_trial_13.png","images/pattern_3.png","j","j","7000","10","13","2","1","26","1","1","13","160","","","","",""
"html-keyboard-response","139","279911","0.0-59.0-1.0","","null","<div style=""display: flex; flex-direction: column; align-items: center; margin-top: -40px;""><img src=""images/pattern_3.png"" style=""width: 234px; height: 230px; margin-top: -50px;""><div style=""display: flex; justify-content: space-between; margin-top: 33px;""><img src=""images/choice_trial_13.png"" style=""width: 408px; height: 417px; margin-left:608px;""></div></div>","null","delaylearn","learning","display_response","563e35190980220011572d9a","v4Hs0NVhXSWdWr8aLsyxpNHa9n13","","","","","","","","","","","","","","","","","chosen stimuli: images/choice_trial_13.png","","","",""
"html-keyboard-response","140","286915","0.0-59.0-2.0","","null","","null","delaylearn","learning","feedback_duration_window","563e35190980220011572d9a","v4Hs0NVhXSWdWr8aLsyxpNHa9n13","","","","","","","","","","","","","","","","","","7000","","",""
"html-keyboard-response","141","288418","0.0-59.0-3.0","","null","<div style='margin:auto;width: auto; font-size: 150%'><span style='font-weight: bold; font-size: 100px; color: green;'>+10 points!</span><br><br></div>","null","delaylearn","learning","feedback_image_window","563e35190980220011572d9a","v4Hs0NVhXSWdWr8aLsyxpNHa9n13","","","","","","","","","","","","","","","","","","","","",""
"lmdlab-html-vas-response","142","296498","0.0-60.0-0.0","","6572","*How <b><u>confident</u></b> are you feeling about your answers at this moment?*","0.5685185185185185","rewlearn","rate_confidence","","563e35190980220011572d9a","v4Hs0NVhXSWdWr8aLsyxpNHa9n13","","","","","","","","","","","","","","","","","","","","[""No confidence"",""Complete confidence""]",""
"lmdlab-rest-trial-limit","143","301643","0.0-60.0-1.0","","3641","<div style=""font-size:40px;""><b>Please take a break!</b><br><br><br><br><p>Great work: you earned 160 points.<br><br><br><p>You have completed part(s) 1 of 5.<br><br><br><br>When you are ready to continue<br><br><br>please click the button.</p><br><br>","0","delaylearn","learning","break","563e35190980220011572d9a","v4Hs0NVhXSWdWr8aLsyxpNHa9n13","","","","","","","","","","","","","","","","","","","","","0"
"html-keyboard-response","144","304645","0.0-60.0-2.0","","null","<div style=""font-size:100px;"">+</div>","null","delaylearn","learning","pre_fixation","563e35190980220011572d9a","","","","","","","","","","","","","","","","","","","","","",""
"lmdlab-html-vas-response","145","309278","0.0-60.0-3.0-0.0","","3623","How happy are you right now?","0.6463252314814815","delaylearn","learning","mood_baseline","563e35190980220011572d9a","v4Hs0NVhXSWdWr8aLsyxpNHa9n13","","","","","","","","","","","","","","","","","","","","[""Very unhappy"",""Very happy""]",""
"html-keyboard-response","146","310780","0.0-60.0-3.0-1.0","","null","","null","","","mood_baseline_fixation","","","","","","","","","","","","","","","","","","","","","","",""
"html-keyboard-response","147","312346","0.0-61.0","","null","<div style=""font-size:100px;"">+</div>","null","delaylearn","learning","ITI","563e35190980220011572d9a","v4Hs0NVhXSWdWr8aLsyxpNHa9n13","","","","","","","","","","","","","","","","","","","1563","",""
"html-keyboard-response","148","313853","0.0-62.0-0.0","","1502.0000000000582","<div style=""display: flex; flex-direction: column; align-items: center; margin-top: -40px;""><img src=""images/pattern_7.png"" style=""width: 234px; height: 230px; margin-top: -50px;""><div style=""display: flex; justify-content: space-between; margin-top: 33px;""><img src=""images/choice_trial_12.png"" style=""width: 408px; height: 417px; margin-right: 200px;""><img src=""images/choice_trial_6.png"" style=""width: 408px; height: 417px;""></div></div>","j","delaylearn","learning","trial","563e35190980220011572d9a","v4Hs0NVhXSWdWr8aLsyxpNHa9n13","3","images/choice_trial_12.png","images/choice_trial_6.png","images/pattern_7.png","j","j","750","12","6","6","1","27","1","1","6","170","","","","",""
"html-keyboard-response","149","314857","0.0-62.0-1.0","","null","<div style=""display: flex; flex-direction: column; align-items: center; margin-top: -40px;""><img src=""images/pattern_7.png"" style=""width: 234px; height: 230px; margin-top: -50px;""><div style=""display: flex; justify-content: space-between; margin-top: 33px;""><img src=""images/choice_trial_6.png"" style=""width: 408px; height: 417px; margin-left:608px;""></div></div>","null","delaylearn","learning","display_response","563e35190980220011572d9a","v4Hs0NVhXSWdWr8aLsyxpNHa9n13","","","","","","","","","","","","","","","","","chosen stimuli: images/choice_trial_6.png","","","",""
"html-keyboard-response","150","315611","0.0-62.0-2.0","","null","","null","delaylearn","learning","feedback_duration_window","563e35190980220011572d9a","v4Hs0NVhXSWdWr8aLsyxpNHa9n13","","","","","","","","","","","","","","","","","","750","","",""
"html-keyboard-response","151","317114","0.0-62.0-3.0","","null","<div style='margin:auto;width: auto; font-size: 150%'><span style='font-weight: bold; font-size: 100px; color: green;'>+10 points!</span><br><br></div>","null","delaylearn","learning","feedback_image_window","563e35190980220011572d9a","v4Hs0NVhXSWdWr8aLsyxpNHa9n13","","","","","","","","","","","","","","","","","","","","",""
"html-keyboard-response","152","317617","0.0-63.0-0.0","","null","","null","","","mood_trial_fixation","","","","","","","","","","","","","","","","","","","","","","",""
"lmdlab-html-vas-response","153","322296","0.0-63.0-1.0","","3671","How happy are you right now?","0.7407696759259259","delaylearn","learning","mood_trial","563e35190980220011572d9a","v4Hs0NVhXSWdWr8aLsyxpNHa9n13","","","","","","","","","","","","","","","","","","","","[""Very unhappy"",""Very happy""]",""
"html-keyboard-response","154","324444","0.0-64.0","","null","<div style=""font-size:100px;"">+</div>","null","delaylearn","learning","ITI","563e35190980220011572d9a","v4Hs0NVhXSWdWr8aLsyxpNHa9n13","","","","","","","","","","","","","","","","","","","2146","",""
"html-keyboard-response","155","325983","0.0-65.0-0.0","","1533","<div style=""display: flex; flex-direction: column; align-items: center; margin-top: -40px;""><img src=""images/pattern_1.png"" style=""width: 234px; height: 230px; margin-top: -50px;""><div style=""display: flex; justify-content: space-between; margin-top: 33px;""><img src=""images/choice_trial_14.png"" style=""width: 408px; height: 417px; margin-right: 200px;""><img src=""images/choice_trial_8.png"" style=""width: 408px; height: 417px;""></div></div>","j","delaylearn","learning","trial","563e35190980220011572d9a","v4Hs0NVhXSWdWr8aLsyxpNHa9n13","3","images/choice_trial_14.png","images/choice_trial_8.png","images/pattern_1.png","f","f","7000","14","8","1","0","28","0","0","8","170","","","","",""
"html-keyboard-response","156","326987","0.0-65.0-1.0","","null","<div style=""display: flex; flex-direction: column; align-items: center; margin-top: -40px;""><img src=""images/pattern_1.png"" style=""width: 234px; height: 230px; margin-top: -50px;""><div style=""display: flex; justify-content: space-between; margin-top: 33px;""><img src=""images/choice_trial_8.png"" style=""width: 408px; height: 417px; margin-left:608px;""></div></div>","null","delaylearn","learning","display_response","563e35190980220011572d9a","v4Hs0NVhXSWdWr8aLsyxpNHa9n13","","","","","","","","","","","","","","","","","chosen stimuli: images/choice_trial_8.png","","","",""
"html-keyboard-response","157","333990","0.0-65.0-2.0","","null","","null","delaylearn","learning","feedback_duration_window","563e35190980220011572d9a","v4Hs0NVhXSWdWr8aLsyxpNHa9n13","","","","","","","","","","","","","","","","","","7000","","",""
"html-keyboard-response","158","335494","0.0-65.0-3.0","","null","<div style='margin:auto;width: auto; font-size: 150%'><span style='font-weight: bold; font-size: 100px; color: red;'>0 points!</span><br><br></div>","null","delaylearn","learning","feedback_image_window","563e35190980220011572d9a","v4Hs0NVhXSWdWr8aLsyxpNHa9n13","","","","","","","","","","","","","","","","","","","","",""
"html-keyboard-response","159","337645","0.0-66.0","","null","<div style=""font-size:100px;"">+</div>","null","delaylearn","learning","ITI","563e35190980220011572d9a","v4Hs0NVhXSWdWr8aLsyxpNHa9n13","","","","","","","","","","","","","","","","","","","2148","",""
"html-keyboard-response","160","338837","0.0-67.0-0.0","","1186.9999999999418","<div style=""display: flex; flex-direction: column; align-items: center; margin-top: -40px;""><img src=""images/pattern_5.png"" style=""width: 234px; height: 230px; margin-top: -50px;""><div style=""display: flex; justify-content: space-between; margin-top: 33px;""><img src=""images/choice_trial_11.png"" style=""width: 408px; height: 417px; margin-right: 200px;""><img src=""images/choice_trial_2.png"" style=""width: 408px; height: 417px;""></div></div>","f","delaylearn","learning","trial","563e35190980220011572d9a","v4Hs0NVhXSWdWr8aLsyxpNHa9n13","3","images/choice_trial_11.png","images/choice_trial_2.png","images/pattern_5.png","f","f","750","11","2","4","0","29","1","1","11","180","","","","",""
"html-keyboard-response","161","339841","0.0-67.0-1.0","","null","<div style=""display: flex; flex-direction: column; align-items: center; margin-top: -40px;""><img src=""images/pattern_5.png"" style=""width: 234px; height: 230px; margin-top: -50px;""><div style=""display: flex; justify-content: space-between; margin-top: 33px;""><img src=""images/choice_trial_11.png"" style=""width: 408px; height: 417px; margin-right: 608px;""></div></div>","null","delaylearn","learning","display_response","563e35190980220011572d9a","v4Hs0NVhXSWdWr8aLsyxpNHa9n13","","","","","","","","","","","","","","","","","chosen stimuli: images/choice_trial_11.png","","","",""
"html-keyboard-response","162","340594","0.0-67.0-2.0","","null","","null","delaylearn","learning","feedback_duration_window","563e35190980220011572d9a","v4Hs0NVhXSWdWr8aLsyxpNHa9n13","","","","","","","","","","","","","","","","","","750","","",""
"html-keyboard-response","163","342097","0.0-67.0-3.0","","null","<div style='margin:auto;width: auto; font-size: 150%'><span style='font-weight: bold; font-size: 100px; color: green;'>+10 points!</span><br><br></div>","null","delaylearn","learning","feedback_image_window","563e35190980220011572d9a","v4Hs0NVhXSWdWr8aLsyxpNHa9n13","","","","","","","","","","","","","","","","","","","","",""
"html-keyboard-response","164","344539","0.0-68.0","","null","<div style=""font-size:100px;"">+</div>","null","delaylearn","learning","ITI","563e35190980220011572d9a","v4Hs0NVhXSWdWr8aLsyxpNHa9n13","","","","","","","","","","","","","","","","","","","2439","",""
"html-keyboard-response","165","347039","0.0-69.0-0.0","","2496","<div style=""display: flex; flex-direction: column; align-items: center; margin-top: -40px;""><img src=""images/pattern_6.png"" style=""width: 234px; height: 230px; margin-top: -50px;""><div style=""display: flex; justify-content: space-between; margin-top: 33px;""><img src=""images/choice_trial_3.png"" style=""width: 408px; height: 417px; margin-right: 200px;""><img src=""images/choice_trial_16.png"" style=""width: 408px; height: 417px;""></div></div>","j","delaylearn","learning","trial","563e35190980220011572d9a","v4Hs0NVhXSWdWr8aLsyxpNHa9n13","3","images/choice_trial_3.png","images/choice_trial_16.png","images/pattern_6.png","j","j","750","3","16","5","1","30","1","1","16","190","","","","",""
"html-keyboard-response","166","348043","0.0-69.0-1.0","","null","<div style=""display: flex; flex-direction: column; align-items: center; margin-top: -40px;""><img src=""images/pattern_6.png"" style=""width: 234px; height: 230px; margin-top: -50px;""><div style=""display: flex; justify-content: space-between; margin-top: 33px;""><img src=""images/choice_trial_16.png"" style=""width: 408px; height: 417px; margin-left:608px;""></div></div>","null","delaylearn","learning","display_response","563e35190980220011572d9a","v4Hs0NVhXSWdWr8aLsyxpNHa9n13","","","","","","","","","","","","","","","","","chosen stimuli: images/choice_trial_16.png","","","",""
"html-keyboard-response","167","348796","0.0-69.0-2.0","","null","","null","delaylearn","learning","feedback_duration_window","563e35190980220011572d9a","v4Hs0NVhXSWdWr8aLsyxpNHa9n13","","","","","","","","","","","","","","","","","","750","","",""
"html-keyboard-response","168","350299","0.0-69.0-3.0","","null","<div style='margin:auto;width: auto; font-size: 150%'><span style='font-weight: bold; font-size: 100px; color: green;'>+10 points!</span><br><br></div>","null","delaylearn","learning","feedback_image_window","563e35190980220011572d9a","v4Hs0NVhXSWdWr8aLsyxpNHa9n13","","","","","","","","","","","","","","","","","","","","",""
"html-keyboard-response","169","350803","0.0-70.0-0.0","","null","","null","","","mood_trial_fixation","","","","","","","","","","","","","","","","","","","","","","",""
"lmdlab-html-vas-response","170","354929","0.0-70.0-1.0","","3117","How happy are you right now?","0.7481770833333333","delaylearn","learning","mood_trial","563e35190980220011572d9a","v4Hs0NVhXSWdWr8aLsyxpNHa9n13","","","","","","","","","","","","","","","","","","","","[""Very unhappy"",""Very happy""]",""
"html-keyboard-response","171","356465","0.0-71.0","","null","<div style=""font-size:100px;"">+</div>","null","delaylearn","learning","ITI","563e35190980220011572d9a","v4Hs0NVhXSWdWr8aLsyxpNHa9n13","","","","","","","","","","","","","","","","","","","1534","",""
"html-keyboard-response","172","358305","0.0-72.0-0.0","","1834","<div style=""display: flex; flex-direction: column; align-items: center; margin-top: -40px;""><img src=""images/pattern_4.png"" style=""width: 234px; height: 230px; margin-top: -50px;""><div style=""display: flex; justify-content: space-between; margin-top: 33px;""><img src=""images/choice_trial_9.png"" style=""width: 408px; height: 417px; margin-right: 200px;""><img src=""images/choice_trial_15.png"" style=""width: 408px; height: 417px;""></div></div>","f","delaylearn","learning","trial","563e35190980220011572d9a","v4Hs0NVhXSWdWr8aLsyxpNHa9n13","3","images/choice_trial_9.png","images/choice_trial_15.png","images/pattern_4.png","j","j","7000","9","15","3","1","31","0","0","9","190","","","","",""
"html-keyboard-response","173","359309","0.0-72.0-1.0","","null","<div style=""display: flex; flex-direction: column; align-items: center; margin-top: -40px;""><img src=""images/pattern_4.png"" style=""width: 234px; height: 230px; margin-top: -50px;""><div style=""display: flex; justify-content: space-between; margin-top: 33px;""><img src=""images/choice_trial_9.png"" style=""width: 408px; height: 417px; margin-right: 608px;""></div></div>","null","delaylearn","learning","display_response","563e35190980220011572d9a","v4Hs0NVhXSWdWr8aLsyxpNHa9n13","","","","","","","","","","","","","","","","","chosen stimuli: images/choice_trial_9.png","","","",""
"html-keyboard-response","174","366312","0.0-72.0-2.0","","null","","null","delaylearn","learning","feedback_duration_window","563e35190980220011572d9a","v4Hs0NVhXSWdWr8aLsyxpNHa9n13","","","","","","","","","","","","","","","","","","7000","","",""
"html-keyboard-response","175","367815","0.0-72.0-3.0","","null","<div style='margin:auto;width: auto; font-size: 150%'><span style='font-weight: bold; font-size: 100px; color: red;'>0 points!</span><br><br></div>","null","delaylearn","learning","feedback_image_window","563e35190980220011572d9a","v4Hs0NVhXSWdWr8aLsyxpNHa9n13","","","","","","","","","","","","","","","","","","","","",""
"html-keyboard-response","176","369736","0.0-73.0","","null","<div style=""font-size:100px;"">+</div>","null","delaylearn","learning","ITI","563e35190980220011572d9a","v4Hs0NVhXSWdWr8aLsyxpNHa9n13","","","","","","","","","","","","","","","","","","","1918","",""
"html-keyboard-response","177","370709","0.0-74.0-0.0","","969.0000000000582","<div style=""display: flex; flex-direction: column; align-items: center; margin-top: -40px;""><img src=""images/pattern_3.png"" style=""width: 234px; height: 230px; margin-top: -50px;""><div style=""display: flex; justify-content: space-between; margin-top: 33px;""><img src=""images/choice_trial_10.png"" style=""width: 408px; height: 417px; margin-right: 200px;""><img src=""images/choice_trial_13.png"" style=""width: 408px; height: 417px;""></div></div>","j","delaylearn","learning","trial","563e35190980220011572d9a","v4Hs0NVhXSWdWr8aLsyxpNHa9n13","3","images/choice_trial_10.png","images/choice_trial_13.png","images/pattern_3.png","j","j","7000","10","13","2","1","32","1","1","13","200","","","","",""
"html-keyboard-response","178","371713","0.0-74.0-1.0","","null","<div style=""display: flex; flex-direction: column; align-items: center; margin-top: -40px;""><img src=""images/pattern_3.png"" style=""width: 234px; height: 230px; margin-top: -50px;""><div style=""display: flex; justify-content: space-between; margin-top: 33px;""><img src=""images/choice_trial_13.png"" style=""width: 408px; height: 417px; margin-left:608px;""></div></div>","null","delaylearn","learning","display_response","563e35190980220011572d9a","v4Hs0NVhXSWdWr8aLsyxpNHa9n13","","","","","","","","","","","","","","","","","chosen stimuli: images/choice_trial_13.png","","","",""
"html-keyboard-response","179","378716","0.0-74.0-2.0","","null","","null","delaylearn","learning","feedback_duration_window","563e35190980220011572d9a","v4Hs0NVhXSWdWr8aLsyxpNHa9n13","","","","","","","","","","","","","","","","","","7000","","",""
"html-keyboard-response","180","380219","0.0-74.0-3.0","","null","<div style='margin:auto;width: auto; font-size: 150%'><span style='font-weight: bold; font-size: 100px; color: green;'>+10 points!</span><br><br></div>","null","delaylearn","learning","feedback_image_window","563e35190980220011572d9a","v4Hs0NVhXSWdWr8aLsyxpNHa9n13","","","","","","","","","","","","","","","","","","","","",""
"html-keyboard-response","181","381808","0.0-75.0","","null","<div style=""font-size:100px;"">+</div>","null","delaylearn","learning","ITI","563e35190980220011572d9a","v4Hs0NVhXSWdWr8aLsyxpNHa9n13","","","","","","","","","","","","","","","","","","","1586","",""
"html-keyboard-response","182","382914","0.0-76.0-0.0","","1102","<div style=""display: flex; flex-direction: column; align-items: center; margin-top: -40px;""><img src=""images/pattern_5.png"" style=""width: 234px; height: 230px; margin-top: -50px;""><div style=""display: flex; justify-content: space-between; margin-top: 33px;""><img src=""images/choice_trial_11.png"" style=""width: 408px; height: 417px; margin-right: 200px;""><img src=""images/choice_trial_2.png"" style=""width: 408px; height: 417px;""></div></div>","f","delaylearn","learning","trial","563e35190980220011572d9a","v4Hs0NVhXSWdWr8aLsyxpNHa9n13","3","images/choice_trial_11.png","images/choice_trial_2.png","images/pattern_5.png","j","f","750","11","2","4","0","33","1","0","11","200","","","","",""
"html-keyboard-response","183","383917","0.0-76.0-1.0","","null","<div style=""display: flex; flex-direction: column; align-items: center; margin-top: -40px;""><img src=""images/pattern_5.png"" style=""width: 234px; height: 230px; margin-top: -50px;""><div style=""display: flex; justify-content: space-between; margin-top: 33px;""><img src=""images/choice_trial_11.png"" style=""width: 408px; height: 417px; margin-right: 608px;""></div></div>","null","delaylearn","learning","display_response","563e35190980220011572d9a","v4Hs0NVhXSWdWr8aLsyxpNHa9n13","","","","","","","","","","","","","","","","","chosen stimuli: images/choice_trial_11.png","","","",""
"html-keyboard-response","184","384670","0.0-76.0-2.0","","null","","null","delaylearn","learning","feedback_duration_window","563e35190980220011572d9a","v4Hs0NVhXSWdWr8aLsyxpNHa9n13","","","","","","","","","","","","","","","","","","750","","",""
"html-keyboard-response","185","386173","0.0-76.0-3.0","","null","<div style='margin:auto;width: auto; font-size: 150%'><span style='font-weight: bold; font-size: 100px; color: red;'>0 points!</span><br><br></div>","null","delaylearn","learning","feedback_image_window","563e35190980220011572d9a","v4Hs0NVhXSWdWr8aLsyxpNHa9n13","","","","","","","","","","","","","","","","","","","","",""
"html-keyboard-response","186","387876","0.0-77.0","","null","<div style=""font-size:100px;"">+</div>","null","delaylearn","learning","ITI","563e35190980220011572d9a","v4Hs0NVhXSWdWr8aLsyxpNHa9n13","","","","","","","","","","","","","","","","","","","1700","",""
"html-keyboard-response","187","389614","0.0-78.0-0.0","","1733","<div style=""display: flex; flex-direction: column; align-items: center; margin-top: -40px;""><img src=""images/pattern_1.png"" style=""width: 234px; height: 230px; margin-top: -50px;""><div style=""display: flex; justify-content: space-between; margin-top: 33px;""><img src=""images/choice_trial_14.png"" style=""width: 408px; height: 417px; margin-right: 200px;""><img src=""images/choice_trial_8.png"" style=""width: 408px; height: 417px;""></div></div>","j","delaylearn","learning","trial","563e35190980220011572d9a","v4Hs0NVhXSWdWr8aLsyxpNHa9n13","3","images/choice_trial_14.png","images/choice_trial_8.png","images/pattern_1.png","f","f","7000","14","8","1","0","34","0","0","8","200","","","","",""
"html-keyboard-response","188","390623","0.0-78.0-1.0","","null","<div style=""display: flex; flex-direction: column; align-items: center; margin-top: -40px;""><img src=""images/pattern_1.png"" style=""width: 234px; height: 230px; margin-top: -50px;""><div style=""display: flex; justify-content: space-between; margin-top: 33px;""><img src=""images/choice_trial_8.png"" style=""width: 408px; height: 417px; margin-left:608px;""></div></div>","null","delaylearn","learning","display_response","563e35190980220011572d9a","v4Hs0NVhXSWdWr8aLsyxpNHa9n13","","","","","","","","","","","","","","","","","chosen stimuli: images/choice_trial_8.png","","","",""
"html-keyboard-response","189","397627","0.0-78.0-2.0","","null","","null","delaylearn","learning","feedback_duration_window","563e35190980220011572d9a","v4Hs0NVhXSWdWr8aLsyxpNHa9n13","","","","","","","","","","","","","","","","","","7000","","",""
"html-keyboard-response","190","399131","0.0-78.0-3.0","","null","<div style='margin:auto;width: auto; font-size: 150%'><span style='font-weight: bold; font-size: 100px; color: red;'>0 points!</span><br><br></div>","null","delaylearn","learning","feedback_image_window","563e35190980220011572d9a","v4Hs0NVhXSWdWr8aLsyxpNHa9n13","","","","","","","","","","","","","","","","","","","","",""
"html-keyboard-response","191","399634","0.0-79.0-0.0","","null","","null","","","mood_trial_fixation","","","","","","","","","","","","","","","","","","","","","","",""
"lmdlab-html-vas-response","192","405063","0.0-79.0-1.0","","4422","How happy are you right now?","0.6963252314814815","delaylearn","learning","mood_trial","563e35190980220011572d9a","v4Hs0NVhXSWdWr8aLsyxpNHa9n13","","","","","","","","","","","","","","","","","","","","[""Very unhappy"",""Very happy""]",""
"html-keyboard-response","193","406573","0.0-80.0","","null","<div style=""font-size:100px;"">+</div>","null","delaylearn","learning","ITI","563e35190980220011572d9a","v4Hs0NVhXSWdWr8aLsyxpNHa9n13","","","","","","","","","","","","","","","","","","","1507","",""
"html-keyboard-response","194","407759","0.0-81.0-0.0","","1180","<div style=""display: flex; flex-direction: column; align-items: center; margin-top: -40px;""><img src=""images/pattern_6.png"" style=""width: 234px; height: 230px; margin-top: -50px;""><div style=""display: flex; justify-content: space-between; margin-top: 33px;""><img src=""images/choice_trial_16.png"" style=""width: 408px; height: 417px; margin-right: 200px;""><img src=""images/choice_trial_3.png"" style=""width: 408px; height: 417px;""></div></div>","f","delaylearn","learning","trial","563e35190980220011572d9a","v4Hs0NVhXSWdWr8aLsyxpNHa9n13","3","images/choice_trial_16.png","images/choice_trial_3.png","images/pattern_6.png","j","f","750","16","3","5","0","35","1","0","16","200","","","","",""
"html-keyboard-response","195","408763","0.0-81.0-1.0","","null","<div style=""display: flex; flex-direction: column; align-items: center; margin-top: -40px;""><img src=""images/pattern_6.png"" style=""width: 234px; height: 230px; margin-top: -50px;""><div style=""display: flex; justify-content: space-between; margin-top: 33px;""><img src=""images/choice_trial_16.png"" style=""width: 408px; height: 417px; margin-right: 608px;""></div></div>","null","delaylearn","learning","display_response","563e35190980220011572d9a","v4Hs0NVhXSWdWr8aLsyxpNHa9n13","","","","","","","","","","","","","","","","","chosen stimuli: images/choice_trial_16.png","","","",""
"html-keyboard-response","196","409516","0.0-81.0-2.0","","null","","null","delaylearn","learning","feedback_duration_window","563e35190980220011572d9a","v4Hs0NVhXSWdWr8aLsyxpNHa9n13","","","","","","","","","","","","","","","","","","750","","",""
"html-keyboard-response","197","411019","0.0-81.0-3.0","","null","<div style='margin:auto;width: auto; font-size: 150%'><span style='font-weight: bold; font-size: 100px; color: red;'>0 points!</span><br><br></div>","null","delaylearn","learning","feedback_image_window","563e35190980220011572d9a","v4Hs0NVhXSWdWr8aLsyxpNHa9n13","","","","","","","","","","","","","","","","","","","","",""
"html-keyboard-response","198","413297","0.0-82.0","","null","<div style=""font-size:100px;"">+</div>","null","delaylearn","learning","ITI","563e35190980220011572d9a","v4Hs0NVhXSWdWr8aLsyxpNHa9n13","","","","","","","","","","","","","","","","","","","2274","",""
"html-keyboard-response","199","414473","0.0-83.0-0.0","","1172","<div style=""display: flex; flex-direction: column; align-items: center; margin-top: -40px;""><img src=""images/pattern_3.png"" style=""width: 234px; height: 230px; margin-top: -50px;""><div style=""display: flex; justify-content: space-between; margin-top: 33px;""><img src=""images/choice_trial_10.png"" style=""width: 408px; height: 417px; margin-right: 200px;""><img src=""images/choice_trial_13.png"" style=""width: 408px; height: 417px;""></div></div>","j","delaylearn","learning","trial","563e35190980220011572d9a","v4Hs0NVhXSWdWr8aLsyxpNHa9n13","3","images/choice_trial_10.png","images/choice_trial_13.png","images/pattern_3.png","j","j","7000","10","13","2","1","36","1","1","13","210","","","","",""
"html-keyboard-response","200","415477","0.0-83.0-1.0","","null","<div style=""display: flex; flex-direction: column; align-items: center; margin-top: -40px;""><img src=""images/pattern_3.png"" style=""width: 234px; height: 230px; margin-top: -50px;""><div style=""display: flex; justify-content: space-between; margin-top: 33px;""><img src=""images/choice_trial_13.png"" style=""width: 408px; height: 417px; margin-left:608px;""></div></div>","null","delaylearn","learning","display_response","563e35190980220011572d9a","v4Hs0NVhXSWdWr8aLsyxpNHa9n13","","","","","","","","","","","","","","","","","chosen stimuli: images/choice_trial_13.png","","","",""
"html-keyboard-response","201","422480","0.0-83.0-2.0","","null","","null","delaylearn","learning","feedback_duration_window","563e35190980220011572d9a","v4Hs0NVhXSWdWr8aLsyxpNHa9n13","","","","","","","","","","","","","","","","","","7000","","",""
"html-keyboard-response","202","423983","0.0-83.0-3.0","","null","<div style='margin:auto;width: auto; font-size: 150%'><span style='font-weight: bold; font-size: 100px; color: green;'>+10 points!</span><br><br></div>","null","delaylearn","learning","feedback_image_window","563e35190980220011572d9a","v4Hs0NVhXSWdWr8aLsyxpNHa9n13","","","","","","","","","","","","","","","","","","","","",""
"html-keyboard-response","203","425929","0.0-84.0","","null","<div style=""font-size:100px;"">+</div>","null","delaylearn","learning","ITI","563e35190980220011572d9a","v4Hs0NVhXSWdWr8aLsyxpNHa9n13","","","","","","","","","","","","","","","","","","","1943","",""
"html-keyboard-response","204","427333","0.0-85.0-0.0","","1399.9999999998836","<div style=""display: flex; flex-direction: column; align-items: center; margin-top: -40px;""><img src=""images/pattern_4.png"" style=""width: 234px; height: 230px; margin-top: -50px;""><div style=""display: flex; justify-content: space-between; margin-top: 33px;""><img src=""images/choice_trial_9.png"" style=""width: 408px; height: 417px; margin-right: 200px;""><img src=""images/choice_trial_15.png"" style=""width: 408px; height: 417px;""></div></div>","f","delaylearn","learning","trial","563e35190980220011572d9a","v4Hs0NVhXSWdWr8aLsyxpNHa9n13","3","images/choice_trial_9.png","images/choice_trial_15.png","images/pattern_4.png","f","j","7000","9","15","3","1","37","0","1","9","220","","","","",""
"html-keyboard-response","205","428337","0.0-85.0-1.0","","null","<div style=""display: flex; flex-direction: column; align-items: center; margin-top: -40px;""><img src=""images/pattern_4.png"" style=""width: 234px; height: 230px; margin-top: -50px;""><div style=""display: flex; justify-content: space-between; margin-top: 33px;""><img src=""images/choice_trial_9.png"" style=""width: 408px; height: 417px; margin-right: 608px;""></div></div>","null","delaylearn","learning","display_response","563e35190980220011572d9a","v4Hs0NVhXSWdWr8aLsyxpNHa9n13","","","","","","","","","","","","","","","","","chosen stimuli: images/choice_trial_9.png","","","",""
"html-keyboard-response","206","435339","0.0-85.0-2.0","","null","","null","delaylearn","learning","feedback_duration_window","563e35190980220011572d9a","v4Hs0NVhXSWdWr8aLsyxpNHa9n13","","","","","","","","","","","","","","","","","","7000","","",""
"html-keyboard-response","207","436843","0.0-85.0-3.0","","null","<div style='margin:auto;width: auto; font-size: 150%'><span style='font-weight: bold; font-size: 100px; color: green;'>+10 points!</span><br><br></div>","null","delaylearn","learning","feedback_image_window","563e35190980220011572d9a","v4Hs0NVhXSWdWr8aLsyxpNHa9n13","","","","","","","","","","","","","","","","","","","","",""
"html-keyboard-response","208","439216","0.0-86.0","","null","<div style=""font-size:100px;"">+</div>","null","delaylearn","learning","ITI","563e35190980220011572d9a","v4Hs0NVhXSWdWr8aLsyxpNHa9n13","","","","","","","","","","","","","","","","","","","2370","",""
"html-keyboard-response","209","440515","0.0-87.0-0.0","","1291","<div style=""display: flex; flex-direction: column; align-items: center; margin-top: -40px;""><img src=""images/pattern_7.png"" style=""width: 234px; height: 230px; margin-top: -50px;""><div style=""display: flex; justify-content: space-between; margin-top: 33px;""><img src=""images/choice_trial_6.png"" style=""width: 408px; height: 417px; margin-right: 200px;""><img src=""images/choice_trial_12.png"" style=""width: 408px; height: 417px;""></div></div>","f","delaylearn","learning","trial","563e35190980220011572d9a","v4Hs0NVhXSWdWr8aLsyxpNHa9n13","3","images/choice_trial_6.png","images/choice_trial_12.png","images/pattern_7.png","f","f","750","6","12","6","0","38","1","1","6","230","","","","",""
"html-keyboard-response","210","441519","0.0-87.0-1.0","","null","<div style=""display: flex; flex-direction: column; align-items: center; margin-top: -40px;""><img src=""images/pattern_7.png"" style=""width: 234px; height: 230px; margin-top: -50px;""><div style=""display: flex; justify-content: space-between; margin-top: 33px;""><img src=""images/choice_trial_6.png"" style=""width: 408px; height: 417px; margin-right: 608px;""></div></div>","null","delaylearn","learning","display_response","563e35190980220011572d9a","v4Hs0NVhXSWdWr8aLsyxpNHa9n13","","","","","","","","","","","","","","","","","chosen stimuli: images/choice_trial_6.png","","","",""
"html-keyboard-response","211","442272","0.0-87.0-2.0","","null","","null","delaylearn","learning","feedback_duration_window","563e35190980220011572d9a","v4Hs0NVhXSWdWr8aLsyxpNHa9n13","","","","","","","","","","","","","","","","","","750","","",""
"html-keyboard-response","212","443775","0.0-87.0-3.0","","null","<div style='margin:auto;width: auto; font-size: 150%'><span style='font-weight: bold; font-size: 100px; color: green;'>+10 points!</span><br><br></div>","null","delaylearn","learning","feedback_image_window","563e35190980220011572d9a","v4Hs0NVhXSWdWr8aLsyxpNHa9n13","","","","","","","","","","","","","","","","","","","","",""
"html-keyboard-response","213","445371","0.0-88.0","","null","<div style=""font-size:100px;"">+</div>","null","delaylearn","learning","ITI","563e35190980220011572d9a","v4Hs0NVhXSWdWr8aLsyxpNHa9n13","","","","","","","","","","","","","","","","","","","1592","",""
"html-keyboard-response","214","447868","0.0-89.0-0.0","","2491","<div style=""display: flex; flex-direction: column; align-items: center; margin-top: -40px;""><img src=""images/pattern_1.png"" style=""width: 234px; height: 230px; margin-top: -50px;""><div style=""display: flex; justify-content: space-between; margin-top: 33px;""><img src=""images/choice_trial_14.png"" style=""width: 408px; height: 417px; margin-right: 200px;""><img src=""images/choice_trial_8.png"" style=""width: 408px; height: 417px;""></div></div>","j","delaylearn","learning","trial","563e35190980220011572d9a","v4Hs0NVhXSWdWr8aLsyxpNHa9n13","3","images/choice_trial_14.png","images/choice_trial_8.png","images/pattern_1.png","f","f","7000","14","8","1","0","39","0","0","8","230","","","","",""
"html-keyboard-response","215","448872","0.0-89.0-1.0","","null","<div style=""display: flex; flex-direction: column; align-items: center; margin-top: -40px;""><img src=""images/pattern_1.png"" style=""width: 234px; height: 230px; margin-top: -50px;""><div style=""display: flex; justify-content: space-between; margin-top: 33px;""><img src=""images/choice_trial_8.png"" style=""width: 408px; height: 417px; margin-left:608px;""></div></div>","null","delaylearn","learning","display_response","563e35190980220011572d9a","v4Hs0NVhXSWdWr8aLsyxpNHa9n13","","","","","","","","","","","","","","","","","chosen stimuli: images/choice_trial_8.png","","","",""
"html-keyboard-response","216","455875","0.0-89.0-2.0","","null","","null","delaylearn","learning","feedback_duration_window","563e35190980220011572d9a","v4Hs0NVhXSWdWr8aLsyxpNHa9n13","","","","","","","","","","","","","","","","","","7000","","",""
"html-keyboard-response","217","457378","0.0-89.0-3.0","","null","<div style='margin:auto;width: auto; font-size: 150%'><span style='font-weight: bold; font-size: 100px; color: red;'>0 points!</span><br><br></div>","null","delaylearn","learning","feedback_image_window","563e35190980220011572d9a","v4Hs0NVhXSWdWr8aLsyxpNHa9n13","","","","","","","","","","","","","","","","","","","","",""
"html-keyboard-response","218","457882","0.0-90.0-0.0","","null","","null","","","mood_trial_fixation","","","","","","","","","","","","","","","","","","","","","","",""
"lmdlab-html-vas-response","219","463279","0.0-90.0-1.0","","4388","How happy are you right now?","0.6833622685185186","delaylearn","learning","mood_trial","563e35190980220011572d9a","v4Hs0NVhXSWdWr8aLsyxpNHa9n13","","","","","","","","","","","","","","","","","","","","[""Very unhappy"",""Very happy""]",""
"html-keyboard-response","220","465147","0.0-91.0","","null","<div style=""font-size:100px;"">+</div>","null","delaylearn","learning","ITI","563e35190980220011572d9a","v4Hs0NVhXSWdWr8aLsyxpNHa9n13","","","","","","","","","","","","","","","","","","","1866","",""
