"trial_type","trial_index","time_elapsed","internal_node_id","participant","rt","stimulus","response","exp_name","exp_stage","test_part","subjectID","databaseID","counterbal","choice_stimuli_1","choice_stimuli_2","pattern_stimuli","rewarded_answer","correct_answer","feedback_duration_times","stim_left","stim_right","pair","leftright_counter","trial","response_correct","response_rewarded","chosen_stim","counter","displayed_choice","feedback_durations","ITI_duration","labels","rest_warning"
"pavlovia","0","504","0.0-0.0","","","","","","","","","","","","","","","","","","","","","","","","","","","","","",""
"html-keyboard-response","1","3509","0.0-1.0","","null","<div style=""font-size:100px;"">+</div>","null","delaylearn","learning","pre_fixation","60ce59806a88034d7e9456da","","","","","","","","","","","","","","","","","","","","","",""
"html-keyboard-response","2","4493","0.0-2.0-0.0","","983.3000000000466","<div style=""display: flex; flex-direction: column; align-items: center; margin-top: -40px;""><img src=""images/demo_images/pattern_1.png"" style=""width: 234px; height: 230px; margin-top: -50px;""><div style=""display: flex; justify-content: space-between; margin-top: 33px;""><img src=""images/demo_images/choice_trial_2.png"" style=""width: 408px; height: 417px; margin-right: 200px;""><img src=""images/demo_images/choice_trial_1.png"" style=""width: 408px; height: 417px;""></div></div>","j","delaylearn","learning","trial","60ce59806a88034d7e9456da","cIcnFJROLSQWqWJFRdD44Al6Exu2","3","images/demo_images/choice_trial_2.png","images/demo_images/choice_trial_1.png","images/demo_images/pattern_1.png","j","j","3000","2","1","20","1","1","1","1","1","10","","","","",""
"html-keyboard-response","3","5499","0.0-2.0-1.0","","null","<div style=""display: flex; flex-direction: column; align-items: center; margin-top: -40px;""><img src=""images/demo_images/pattern_1.png"" style=""width: 234px; height: 230px; margin-top: -50px;""><div style=""display: flex; justify-content: space-between; margin-top: 33px;""><img src=""images/demo_images/choice_trial_1.png"" style=""width: 408px; height: 417px; margin-left:608px;""></div></div>","null","delaylearn","learning","display_response","60ce59806a88034d7e9456da","cIcnFJROLSQWqWJFRdD44Al6Exu2","","","","","","","","","","","","","","","","","chosen stimuli: images/demo_images/choice_trial_1.png","","","",""
"html-keyboard-response","4","8500","0.0-2.0-2.0","","null","","null","delaylearn","learning","feedback_duration_window","60ce59806a88034d7e9456da","cIcnFJROLSQWqWJFRdD44Al6Exu2","","","","","","","","","","","","","","","","","","3000","","",""
"html-keyboard-response","5","10015","0.0-2.0-3.0","","null","<div style='margin:auto;width: auto; font-size: 150%'><span style='font-weight: bold; font-size: 100px; color: green;'>+10 points!</span><br><br></div>","null","delaylearn","learning","feedback_image_window","60ce59806a88034d7e9456da","cIcnFJROLSQWqWJFRdD44Al6Exu2","","","","","","","","","","","","","","","","","","","","",""
"html-keyboard-response","6","12478","0.0-3.0","","null","<div style=""font-size:100px;"">+</div>","null","delaylearn","learning","ITI","60ce59806a88034d7e9456da","cIcnFJROLSQWqWJFRdD44Al6Exu2","","","","","","","","","","","","","","","","","","","2454","",""
"html-keyboard-response","7","13672","0.0-4.0-0.0","","1192.6000000000931","<div style=""display: flex; flex-direction: column; align-items: center; margin-top: -40px;""><img src=""images/demo_images/pattern_1.png"" style=""width: 234px; height: 230px; margin-top: -50px;""><div style=""display: flex; justify-content: space-between; margin-top: 33px;""><img src=""images/demo_images/choice_trial_2.png"" style=""width: 408px; height: 417px; margin-right: 200px;""><img src=""images/demo_images/choice_trial_1.png"" style=""width: 408px; height: 417px;""></div></div>","j","delaylearn","learning","trial","60ce59806a88034d7e9456da","cIcnFJROLSQWqWJFRdD44Al6Exu2","3","images/demo_images/choice_trial_2.png","images/demo_images/choice_trial_1.png","images/demo_images/pattern_1.png","j","j","3000","2","1","20","1","2","1","1","1","20","","","","",""
"html-keyboard-response","8","14689","0.0-4.0-1.0","","null","<div style=""display: flex; flex-direction: column; align-items: center; margin-top: -40px;""><img src=""images/demo_images/pattern_1.png"" style=""width: 234px; height: 230px; margin-top: -50px;""><div style=""display: flex; justify-content: space-between; margin-top: 33px;""><img src=""images/demo_images/choice_trial_1.png"" style=""width: 408px; height: 417px; margin-left:608px;""></div></div>","null","delaylearn","learning","display_response","60ce59806a88034d7e9456da","cIcnFJROLSQWqWJFRdD44Al6Exu2","","","","","","","","","","","","","","","","","chosen stimuli: images/demo_images/choice_trial_1.png","","","",""
"html-keyboard-response","9","17701","0.0-4.0-2.0","","null","","null","delaylearn","learning","feedback_duration_window","60ce59806a88034d7e9456da","cIcnFJROLSQWqWJFRdD44Al6Exu2","","","","","","","","","","","","","","","","","","3000","","",""
"html-keyboard-response","10","19211","0.0-4.0-3.0","","null","<div style='margin:auto;width: auto; font-size: 150%'><span style='font-weight: bold; font-size: 100px; color: green;'>+10 points!</span><br><br></div>","null","delaylearn","learning","feedback_image_window","60ce59806a88034d7e9456da","cIcnFJROLSQWqWJFRdD44Al6Exu2","","","","","","","","","","","","","","","","","","","","",""
"html-keyboard-response","11","21387","0.0-5.0","","null","<div style=""font-size:100px;"">+</div>","null","delaylearn","learning","ITI","60ce59806a88034d7e9456da","cIcnFJROLSQWqWJFRdD44Al6Exu2","","","","","","","","","","","","","","","","","","","2162","",""
"html-keyboard-response","12","21956","0.0-6.0-0.0","","568","<div style=""display: flex; flex-direction: column; align-items: center; margin-top: -40px;""><img src=""images/demo_images/pattern_1.png"" style=""width: 234px; height: 230px; margin-top: -50px;""><div style=""display: flex; justify-content: space-between; margin-top: 33px;""><img src=""images/demo_images/choice_trial_1.png"" style=""width: 408px; height: 417px; margin-right: 200px;""><img src=""images/demo_images/choice_trial_2.png"" style=""width: 408px; height: 417px;""></div></div>","f","delaylearn","learning","trial","60ce59806a88034d7e9456da","cIcnFJROLSQWqWJFRdD44Al6Exu2","3","images/demo_images/choice_trial_1.png","images/demo_images/choice_trial_2.png","images/demo_images/pattern_1.png","j","f","3000","1","2","20","0","3","1","0","1","20","","","","",""
"html-keyboard-response","13","22966","0.0-6.0-1.0","","null","<div style=""display: flex; flex-direction: column; align-items: center; margin-top: -40px;""><img src=""images/demo_images/pattern_1.png"" style=""width: 234px; height: 230px; margin-top: -50px;""><div style=""display: flex; justify-content: space-between; margin-top: 33px;""><img src=""images/demo_images/choice_trial_1.png"" style=""width: 408px; height: 417px; margin-right: 608px;""></div></div>","null","delaylearn","learning","display_response","60ce59806a88034d7e9456da","cIcnFJROLSQWqWJFRdD44Al6Exu2","","","","","","","","","","","","","","","","","chosen stimuli: images/demo_images/choice_trial_1.png","","","",""
"html-keyboard-response","14","25980","0.0-6.0-2.0","","null","","null","delaylearn","learning","feedback_duration_window","60ce59806a88034d7e9456da","cIcnFJROLSQWqWJFRdD44Al6Exu2","","","","","","","","","","","","","","","","","","3000","","",""
"html-keyboard-response","15","27496","0.0-6.0-3.0","","null","<div style='margin:auto;width: auto; font-size: 150%'><span style='font-weight: bold; font-size: 100px; color: red;'>0 points!</span><br><br></div>","null","delaylearn","learning","feedback_image_window","60ce59806a88034d7e9456da","cIcnFJROLSQWqWJFRdD44Al6Exu2","","","","","","","","","","","","","","","","","","","","",""
"html-keyboard-response","16","29927","0.0-7.0","","null","<div style=""font-size:100px;"">+</div>","null","delaylearn","learning","ITI","60ce59806a88034d7e9456da","cIcnFJROLSQWqWJFRdD44Al6Exu2","","","","","","","","","","","","","","","","","","","2428","",""
"html-keyboard-response","17","32008","0.0-8.0-0.0","","2081","<div style=""display: flex; flex-direction: column; align-items: center; margin-top: -40px;""><img src=""images/demo_images/pattern_1.png"" style=""width: 234px; height: 230px; margin-top: -50px;""><div style=""display: flex; justify-content: space-between; margin-top: 33px;""><img src=""images/demo_images/choice_trial_1.png"" style=""width: 408px; height: 417px; margin-right: 200px;""><img src=""images/demo_images/choice_trial_2.png"" style=""width: 408px; height: 417px;""></div></div>","j","delaylearn","learning","trial","60ce59806a88034d7e9456da","cIcnFJROLSQWqWJFRdD44Al6Exu2","3","images/demo_images/choice_trial_1.png","images/demo_images/choice_trial_2.png","images/demo_images/pattern_1.png","f","f","3000","1","2","20","0","4","0","0","2","20","","","","",""
"html-keyboard-response","18","33016","0.0-8.0-1.0","","null","<div style=""display: flex; flex-direction: column; align-items: center; margin-top: -40px;""><img src=""images/demo_images/pattern_1.png"" style=""width: 234px; height: 230px; margin-top: -50px;""><div style=""display: flex; justify-content: space-between; margin-top: 33px;""><img src=""images/demo_images/choice_trial_2.png"" style=""width: 408px; height: 417px; margin-left:608px;""></div></div>","null","delaylearn","learning","display_response","60ce59806a88034d7e9456da","cIcnFJROLSQWqWJFRdD44Al6Exu2","","","","","","","","","","","","","","","","","chosen stimuli: images/demo_images/choice_trial_2.png","","","",""
"html-keyboard-response","19","36019","0.0-8.0-2.0","","null","","null","delaylearn","learning","feedback_duration_window","60ce59806a88034d7e9456da","cIcnFJROLSQWqWJFRdD44Al6Exu2","","","","","","","","","","","","","","","","","","3000","","",""
"html-keyboard-response","20","37533","0.0-8.0-3.0","","null","<div style='margin:auto;width: auto; font-size: 150%'><span style='font-weight: bold; font-size: 100px; color: red;'>0 points!</span><br><br></div>","null","delaylearn","learning","feedback_image_window","60ce59806a88034d7e9456da","cIcnFJROLSQWqWJFRdD44Al6Exu2","","","","","","","","","","","","","","","","","","","","",""
"html-keyboard-response","21","38038","0.0-9.0-0.0","","null","","null","","","mood_trial_fixation","","","","","","","","","","","","","","","","","","","","","","",""
"lmdlab-html-vas-response","22","41389","0.0-9.0-1.0","","2337","How happy are you right now?","0.3256172839506173","delaylearn","learning","mood_trial","60ce59806a88034d7e9456da","cIcnFJROLSQWqWJFRdD44Al6Exu2","","","","","","","","","","","","","","","","","","","","[""Very unhappy"",""Very happy""]",""
"html-keyboard-response","23","43512","0.0-10.0","","null","<div style=""font-size:100px;"">+</div>","null","delaylearn","learning","ITI","60ce59806a88034d7e9456da","cIcnFJROLSQWqWJFRdD44Al6Exu2","","","","","","","","","","","","","","","","","","","2121","",""
"html-keyboard-response","24","44146","0.0-11.0-0.0","","633.1000000000931","<div style=""display: flex; flex-direction: column; align-items: center; margin-top: -40px;""><img src=""images/demo_images/pattern_1.png"" style=""width: 234px; height: 230px; margin-top: -50px;""><div style=""display: flex; justify-content: space-between; margin-top: 33px;""><img src=""images/demo_images/choice_trial_2.png"" style=""width: 408px; height: 417px; margin-right: 200px;""><img src=""images/demo_images/choice_trial_1.png"" style=""width: 408px; height: 417px;""></div></div>","j","delaylearn","learning","trial","60ce59806a88034d7e9456da","cIcnFJROLSQWqWJFRdD44Al6Exu2","3","images/demo_images/choice_trial_2.png","images/demo_images/choice_trial_1.png","images/demo_images/pattern_1.png","j","j","3000","2","1","20","1","5","1","1","1","30","","","","",""
"html-keyboard-response","25","45153","0.0-11.0-1.0","","null","<div style=""display: flex; flex-direction: column; align-items: center; margin-top: -40px;""><img src=""images/demo_images/pattern_1.png"" style=""width: 234px; height: 230px; margin-top: -50px;""><div style=""display: flex; justify-content: space-between; margin-top: 33px;""><img src=""images/demo_images/choice_trial_1.png"" style=""width: 408px; height: 417px; margin-left:608px;""></div></div>","null","delaylearn","learning","display_response","60ce59806a88034d7e9456da","cIcnFJROLSQWqWJFRdD44Al6Exu2","","","","","","","","","","","","","","","","","chosen stimuli: images/demo_images/choice_trial_1.png","","","",""
"html-keyboard-response","26","48167","0.0-11.0-2.0","","null","","null","delaylearn","learning","feedback_duration_window","60ce59806a88034d7e9456da","cIcnFJROLSQWqWJFRdD44Al6Exu2","","","","","","","","","","","","","","","","","","3000","","",""
"html-keyboard-response","27","49682","0.0-11.0-3.0","","null","<div style='margin:auto;width: auto; font-size: 150%'><span style='font-weight: bold; font-size: 100px; color: green;'>+10 points!</span><br><br></div>","null","delaylearn","learning","feedback_image_window","60ce59806a88034d7e9456da","cIcnFJROLSQWqWJFRdD44Al6Exu2","","","","","","","","","","","","","","","","","","","","",""
"html-keyboard-response","28","51610","0.0-12.0","","null","<div style=""font-size:100px;"">+</div>","null","delaylearn","learning","ITI","60ce59806a88034d7e9456da","cIcnFJROLSQWqWJFRdD44Al6Exu2","","","","","","","","","","","","","","","","","","","1927","",""
"html-keyboard-response","29","52221","0.0-13.0-0.0","","610.0999999998603","<div style=""display: flex; flex-direction: column; align-items: center; margin-top: -40px;""><img src=""images/demo_images/pattern_1.png"" style=""width: 234px; height: 230px; margin-top: -50px;""><div style=""display: flex; justify-content: space-between; margin-top: 33px;""><img src=""images/demo_images/choice_trial_1.png"" style=""width: 408px; height: 417px; margin-right: 200px;""><img src=""images/demo_images/choice_trial_2.png"" style=""width: 408px; height: 417px;""></div></div>","f","delaylearn","learning","trial","60ce59806a88034d7e9456da","cIcnFJROLSQWqWJFRdD44Al6Exu2","3","images/demo_images/choice_trial_1.png","images/demo_images/choice_trial_2.png","images/demo_images/pattern_1.png","f","f","3000","1","2","20","0","6","1","1","1","40","","","","",""
"html-keyboard-response","30","53236","0.0-13.0-1.0","","null","<div style=""display: flex; flex-direction: column; align-items: center; margin-top: -40px;""><img src=""images/demo_images/pattern_1.png"" style=""width: 234px; height: 230px; margin-top: -50px;""><div style=""display: flex; justify-content: space-between; margin-top: 33px;""><img src=""images/demo_images/choice_trial_1.png"" style=""width: 408px; height: 417px; margin-right: 608px;""></div></div>","null","delaylearn","learning","display_response","60ce59806a88034d7e9456da","cIcnFJROLSQWqWJFRdD44Al6Exu2","","","","","","","","","","","","","","","","","chosen stimuli: images/demo_images/choice_trial_1.png","","","",""
"html-keyboard-response","31","56243","0.0-13.0-2.0","","null","","null","delaylearn","learning","feedback_duration_window","60ce59806a88034d7e9456da","cIcnFJROLSQWqWJFRdD44Al6Exu2","","","","","","","","","","","","","","","","","","3000","","",""
"html-keyboard-response","32","57751","0.0-13.0-3.0","","null","<div style='margin:auto;width: auto; font-size: 150%'><span style='font-weight: bold; font-size: 100px; color: green;'>+10 points!</span><br><br></div>","null","delaylearn","learning","feedback_image_window","60ce59806a88034d7e9456da","cIcnFJROLSQWqWJFRdD44Al6Exu2","","","","","","","","","","","","","","","","","","","","",""
"html-keyboard-response","33","59694","0.0-14.0","","null","<div style=""font-size:100px;"">+</div>","null","delaylearn","learning","ITI","60ce59806a88034d7e9456da","cIcnFJROLSQWqWJFRdD44Al6Exu2","","","","","","","","","","","","","","","","","","","1940","",""
"html-keyboard-response","34","60336","0.0-15.0-0.0","","641","<div style=""display: flex; flex-direction: column; align-items: center; margin-top: -40px;""><img src=""images/demo_images/pattern_1.png"" style=""width: 234px; height: 230px; margin-top: -50px;""><div style=""display: flex; justify-content: space-between; margin-top: 33px;""><img src=""images/demo_images/choice_trial_2.png"" style=""width: 408px; height: 417px; margin-right: 200px;""><img src=""images/demo_images/choice_trial_1.png"" style=""width: 408px; height: 417px;""></div></div>","j","delaylearn","learning","trial","60ce59806a88034d7e9456da","cIcnFJROLSQWqWJFRdD44Al6Exu2","3","images/demo_images/choice_trial_2.png","images/demo_images/choice_trial_1.png","images/demo_images/pattern_1.png","j","j","3000","2","1","20","1","7","1","1","1","50","","","","",""
"html-keyboard-response","35","61348","0.0-15.0-1.0","","null","<div style=""display: flex; flex-direction: column; align-items: center; margin-top: -40px;""><img src=""images/demo_images/pattern_1.png"" style=""width: 234px; height: 230px; margin-top: -50px;""><div style=""display: flex; justify-content: space-between; margin-top: 33px;""><img src=""images/demo_images/choice_trial_1.png"" style=""width: 408px; height: 417px; margin-left:608px;""></div></div>","null","delaylearn","learning","display_response","60ce59806a88034d7e9456da","cIcnFJROLSQWqWJFRdD44Al6Exu2","","","","","","","","","","","","","","","","","chosen stimuli: images/demo_images/choice_trial_1.png","","","",""
"html-keyboard-response","36","64349","0.0-15.0-2.0","","null","","null","delaylearn","learning","feedback_duration_window","60ce59806a88034d7e9456da","cIcnFJROLSQWqWJFRdD44Al6Exu2","","","","","","","","","","","","","","","","","","3000","","",""
"html-keyboard-response","37","65851","0.0-15.0-3.0","","null","<div style='margin:auto;width: auto; font-size: 150%'><span style='font-weight: bold; font-size: 100px; color: green;'>+10 points!</span><br><br></div>","null","delaylearn","learning","feedback_image_window","60ce59806a88034d7e9456da","cIcnFJROLSQWqWJFRdD44Al6Exu2","","","","","","","","","","","","","","","","","","","","",""
"html-keyboard-response","38","67963","0.0-16.0","","null","<div style=""font-size:100px;"">+</div>","null","delaylearn","learning","ITI","60ce59806a88034d7e9456da","cIcnFJROLSQWqWJFRdD44Al6Exu2","","","","","","","","","","","","","","","","","","","2105","",""
"html-keyboard-response","39","68493","0.0-17.0-0.0","","528.6000000000931","<div style=""display: flex; flex-direction: column; align-items: center; margin-top: -40px;""><img src=""images/demo_images/pattern_1.png"" style=""width: 234px; height: 230px; margin-top: -50px;""><div style=""display: flex; justify-content: space-between; margin-top: 33px;""><img src=""images/demo_images/choice_trial_1.png"" style=""width: 408px; height: 417px; margin-right: 200px;""><img src=""images/demo_images/choice_trial_2.png"" style=""width: 408px; height: 417px;""></div></div>","f","delaylearn","learning","trial","60ce59806a88034d7e9456da","cIcnFJROLSQWqWJFRdD44Al6Exu2","3","images/demo_images/choice_trial_1.png","images/demo_images/choice_trial_2.png","images/demo_images/pattern_1.png","f","f","3000","1","2","20","0","8","1","1","1","60","","","","",""
"html-keyboard-response","40","69495","0.0-17.0-1.0","","null","<div style=""display: flex; flex-direction: column; align-items: center; margin-top: -40px;""><img src=""images/demo_images/pattern_1.png"" style=""width: 234px; height: 230px; margin-top: -50px;""><div style=""display: flex; justify-content: space-between; margin-top: 33px;""><img src=""images/demo_images/choice_trial_1.png"" style=""width: 408px; height: 417px; margin-right: 608px;""></div></div>","null","delaylearn","learning","display_response","60ce59806a88034d7e9456da","cIcnFJROLSQWqWJFRdD44Al6Exu2","","","","","","","","","","","","","","","","","chosen stimuli: images/demo_images/choice_trial_1.png","","","",""
"html-keyboard-response","41","72509","0.0-17.0-2.0","","null","","null","delaylearn","learning","feedback_duration_window","60ce59806a88034d7e9456da","cIcnFJROLSQWqWJFRdD44Al6Exu2","","","","","","","","","","","","","","","","","","3000","","",""
"html-keyboard-response","42","74024","0.0-17.0-3.0","","null","<div style='margin:auto;width: auto; font-size: 150%'><span style='font-weight: bold; font-size: 100px; color: green;'>+10 points!</span><br><br></div>","null","delaylearn","learning","feedback_image_window","60ce59806a88034d7e9456da","cIcnFJROLSQWqWJFRdD44Al6Exu2","","","","","","","","","","","","","","","","","","","","",""
"html-button-response","43","76988","0.0-18.0","","2962.6999999999534","
  <div style=""display: flex; align-items: center; justify-content: center; height: 80vh;"">
  <div>
          <img src=""images/inst_demo_finish.png"" style=""width: 80vw; height:auto;"">
          <br><br>
      </div>
      <br><br>
  </div>","0","","","","","","","","","","","","","","","","","","","","","","","","","",""
"html-keyboard-response","44","81479","0.0-19.0","","4490.699999999953","
  <div style=""display: flex; align-items: center; justify-content: center; height: 80vh;"">
  <div>
          <img src=""images/inst_6.png"" style=""width: 80vw; height:auto;"">
          <br><br>
      </div>
      <br><br>
  </div>","j","","","","","","","","","","","","","","","","","","","","","","","","","",""
"html-keyboard-response","45","84493","0.0-20.0","","null","<div style=""font-size:100px;"">+</div>","null","delaylearn","learning","pre_fixation","60ce59806a88034d7e9456da","","","","","","","","","","","","","","","","","","","","","",""
"html-keyboard-response","46","86928","0.0-21.0","","null","<div style=""font-size:100px;"">+</div>","null","delaylearn","learning","ITI","60ce59806a88034d7e9456da","cIcnFJROLSQWqWJFRdD44Al6Exu2","","","","","","","","","","","","","","","","","","","2421","",""
"html-keyboard-response","47","87723","0.0-22.0-0.0","","794.5","<div style=""display: flex; flex-direction: column; align-items: center; margin-top: -40px;""><img src=""images/pattern_3.png"" style=""width: 234px; height: 230px; margin-top: -50px;""><div style=""display: flex; justify-content: space-between; margin-top: 33px;""><img src=""images/choice_trial_13.png"" style=""width: 408px; height: 417px; margin-right: 200px;""><img src=""images/choice_trial_10.png"" style=""width: 408px; height: 417px;""></div></div>","f","delaylearn","learning","trial","60ce59806a88034d7e9456da","cIcnFJROLSQWqWJFRdD44Al6Exu2","3","images/choice_trial_13.png","images/choice_trial_10.png","images/pattern_3.png","f","f","7000","13","10","2","0","9","1","1","13","70","","","","",""
"html-keyboard-response","48","88729","0.0-22.0-1.0","","null","<div style=""display: flex; flex-direction: column; align-items: center; margin-top: -40px;""><img src=""images/pattern_3.png"" style=""width: 234px; height: 230px; margin-top: -50px;""><div style=""display: flex; justify-content: space-between; margin-top: 33px;""><img src=""images/choice_trial_13.png"" style=""width: 408px; height: 417px; margin-right: 608px;""></div></div>","null","delaylearn","learning","display_response","60ce59806a88034d7e9456da","cIcnFJROLSQWqWJFRdD44Al6Exu2","","","","","","","","","","","","","","","","","chosen stimuli: images/choice_trial_13.png","","","",""
"html-keyboard-response","49","95744","0.0-22.0-2.0","","null","","null","delaylearn","learning","feedback_duration_window","60ce59806a88034d7e9456da","cIcnFJROLSQWqWJFRdD44Al6Exu2","","","","","","","","","","","","","","","","","","7000","","",""
"html-keyboard-response","50","97246","0.0-22.0-3.0","","null","<div style='margin:auto;width: auto; font-size: 150%'><span style='font-weight: bold; font-size: 100px; color: green;'>+10 points!</span><br><br></div>","null","delaylearn","learning","feedback_image_window","60ce59806a88034d7e9456da","cIcnFJROLSQWqWJFRdD44Al6Exu2","","","","","","","","","","","","","","","","","","","","",""
"html-keyboard-response","51","99262","0.0-23.0","","null","<div style=""font-size:100px;"">+</div>","null","delaylearn","learning","ITI","60ce59806a88034d7e9456da","cIcnFJROLSQWqWJFRdD44Al6Exu2","","","","","","","","","","","","","","","","","","","2009","",""
"html-keyboard-response","52","101026","0.0-24.0-0.0","","1763.7000000001863","<div style=""display: flex; flex-direction: column; align-items: center; margin-top: -40px;""><img src=""images/pattern_7.png"" style=""width: 234px; height: 230px; margin-top: -50px;""><div style=""display: flex; justify-content: space-between; margin-top: 33px;""><img src=""images/choice_trial_12.png"" style=""width: 408px; height: 417px; margin-right: 200px;""><img src=""images/choice_trial_6.png"" style=""width: 408px; height: 417px;""></div></div>","j","delaylearn","learning","trial","60ce59806a88034d7e9456da","cIcnFJROLSQWqWJFRdD44Al6Exu2","3","images/choice_trial_12.png","images/choice_trial_6.png","images/pattern_7.png","j","j","750","12","6","6","1","10","1","1","6","80","","","","",""
"html-keyboard-response","53","102028","0.0-24.0-1.0","","null","<div style=""display: flex; flex-direction: column; align-items: center; margin-top: -40px;""><img src=""images/pattern_7.png"" style=""width: 234px; height: 230px; margin-top: -50px;""><div style=""display: flex; justify-content: space-between; margin-top: 33px;""><img src=""images/choice_trial_6.png"" style=""width: 408px; height: 417px; margin-left:608px;""></div></div>","null","delaylearn","learning","display_response","60ce59806a88034d7e9456da","cIcnFJROLSQWqWJFRdD44Al6Exu2","","","","","","","","","","","","","","","","","chosen stimuli: images/choice_trial_6.png","","","",""
"html-keyboard-response","54","102786","0.0-24.0-2.0","","null","","null","delaylearn","learning","feedback_duration_window","60ce59806a88034d7e9456da","cIcnFJROLSQWqWJFRdD44Al6Exu2","","","","","","","","","","","","","","","","","","750","","",""
"html-keyboard-response","55","104288","0.0-24.0-3.0","","null","<div style='margin:auto;width: auto; font-size: 150%'><span style='font-weight: bold; font-size: 100px; color: green;'>+10 points!</span><br><br></div>","null","delaylearn","learning","feedback_image_window","60ce59806a88034d7e9456da","cIcnFJROLSQWqWJFRdD44Al6Exu2","","","","","","","","","","","","","","","","","","","","",""
"html-keyboard-response","56","106543","0.0-25.0","","null","<div style=""font-size:100px;"">+</div>","null","delaylearn","learning","ITI","60ce59806a88034d7e9456da","cIcnFJROLSQWqWJFRdD44Al6Exu2","","","","","","","","","","","","","","","","","","","2243","",""
"html-keyboard-response","57","107851","0.0-26.0-0.0","","1307.1999999999534","<div style=""display: flex; flex-direction: column; align-items: center; margin-top: -40px;""><img src=""images/pattern_4.png"" style=""width: 234px; height: 230px; margin-top: -50px;""><div style=""display: flex; justify-content: space-between; margin-top: 33px;""><img src=""images/choice_trial_15.png"" style=""width: 408px; height: 417px; margin-right: 200px;""><img src=""images/choice_trial_9.png"" style=""width: 408px; height: 417px;""></div></div>","f","delaylearn","learning","trial","60ce59806a88034d7e9456da","cIcnFJROLSQWqWJFRdD44Al6Exu2","3","images/choice_trial_15.png","images/choice_trial_9.png","images/pattern_4.png","f","f","7000","15","9","3","0","11","1","1","15","90","","","","",""
"html-keyboard-response","58","108864","0.0-26.0-1.0","","null","<div style=""display: flex; flex-direction: column; align-items: center; margin-top: -40px;""><img src=""images/pattern_4.png"" style=""width: 234px; height: 230px; margin-top: -50px;""><div style=""display: flex; justify-content: space-between; margin-top: 33px;""><img src=""images/choice_trial_15.png"" style=""width: 408px; height: 417px; margin-right: 608px;""></div></div>","null","delaylearn","learning","display_response","60ce59806a88034d7e9456da","cIcnFJROLSQWqWJFRdD44Al6Exu2","","","","","","","","","","","","","","","","","chosen stimuli: images/choice_trial_15.png","","","",""
"html-keyboard-response","59","115872","0.0-26.0-2.0","","null","","null","delaylearn","learning","feedback_duration_window","60ce59806a88034d7e9456da","cIcnFJROLSQWqWJFRdD44Al6Exu2","","","","","","","","","","","","","","","","","","7000","","",""
"html-keyboard-response","60","117387","0.0-26.0-3.0","","null","<div style='margin:auto;width: auto; font-size: 150%'><span style='font-weight: bold; font-size: 100px; color: green;'>+10 points!</span><br><br></div>","null","delaylearn","learning","feedback_image_window","60ce59806a88034d7e9456da","cIcnFJROLSQWqWJFRdD44Al6Exu2","","","","","","","","","","","","","","","","","","","","",""
"html-keyboard-response","61","119185","0.0-27.0","","null","<div style=""font-size:100px;"">+</div>","null","delaylearn","learning","ITI","60ce59806a88034d7e9456da","cIcnFJROLSQWqWJFRdD44Al6Exu2","","","","","","","","","","","","","","","","","","","1789","",""
"html-keyboard-response","62","120414","0.0-28.0-0.0","","1228","<div style=""display: flex; flex-direction: column; align-items: center; margin-top: -40px;""><img src=""images/pattern_5.png"" style=""width: 234px; height: 230px; margin-top: -50px;""><div style=""display: flex; justify-content: space-between; margin-top: 33px;""><img src=""images/choice_trial_2.png"" style=""width: 408px; height: 417px; margin-right: 200px;""><img src=""images/choice_trial_11.png"" style=""width: 408px; height: 417px;""></div></div>","f","delaylearn","learning","trial","60ce59806a88034d7e9456da","cIcnFJROLSQWqWJFRdD44Al6Exu2","3","images/choice_trial_2.png","images/choice_trial_11.png","images/pattern_5.png","j","j","750","2","11","4","1","12","0","0","2","90","","","","",""
"html-keyboard-response","63","121427","0.0-28.0-1.0","","null","<div style=""display: flex; flex-direction: column; align-items: center; margin-top: -40px;""><img src=""images/pattern_5.png"" style=""width: 234px; height: 230px; margin-top: -50px;""><div style=""display: flex; justify-content: space-between; margin-top: 33px;""><img src=""images/choice_trial_2.png"" style=""width: 408px; height: 417px; margin-right: 608px;""></div></div>","null","delaylearn","learning","display_response","60ce59806a88034d7e9456da","cIcnFJROLSQWqWJFRdD44Al6Exu2","","","","","","","","","","","","","","","","","chosen stimuli: images/choice_trial_2.png","","","",""
"html-keyboard-response","64","122185","0.0-28.0-2.0","","null","","null","delaylearn","learning","feedback_duration_window","60ce59806a88034d7e9456da","cIcnFJROLSQWqWJFRdD44Al6Exu2","","","","","","","","","","","","","","","","","","750","","",""
"html-keyboard-response","65","123685","0.0-28.0-3.0","","null","<div style='margin:auto;width: auto; font-size: 150%'><span style='font-weight: bold; font-size: 100px; color: red;'>0 points!</span><br><br></div>","null","delaylearn","learning","feedback_image_window","60ce59806a88034d7e9456da","cIcnFJROLSQWqWJFRdD44Al6Exu2","","","","","","","","","","","","","","","","","","","","",""
"html-keyboard-response","66","125294","0.0-29.0","","null","<div style=""font-size:100px;"">+</div>","null","delaylearn","learning","ITI","60ce59806a88034d7e9456da","cIcnFJROLSQWqWJFRdD44Al6Exu2","","","","","","","","","","","","","","","","","","","1598","",""
"html-keyboard-response","67","127159","0.0-30.0-0.0","","1864.1999999999534","<div style=""display: flex; flex-direction: column; align-items: center; margin-top: -40px;""><img src=""images/pattern_6.png"" style=""width: 234px; height: 230px; margin-top: -50px;""><div style=""display: flex; justify-content: space-between; margin-top: 33px;""><img src=""images/choice_trial_16.png"" style=""width: 408px; height: 417px; margin-right: 200px;""><img src=""images/choice_trial_3.png"" style=""width: 408px; height: 417px;""></div></div>","j","delaylearn","learning","trial","60ce59806a88034d7e9456da","cIcnFJROLSQWqWJFRdD44Al6Exu2","3","images/choice_trial_16.png","images/choice_trial_3.png","images/pattern_6.png","j","f","750","16","3","5","0","13","0","1","3","100","","","","",""
"html-keyboard-response","68","128168","0.0-30.0-1.0","","null","<div style=""display: flex; flex-direction: column; align-items: center; margin-top: -40px;""><img src=""images/pattern_6.png"" style=""width: 234px; height: 230px; margin-top: -50px;""><div style=""display: flex; justify-content: space-between; margin-top: 33px;""><img src=""images/choice_trial_3.png"" style=""width: 408px; height: 417px; margin-left:608px;""></div></div>","null","delaylearn","learning","display_response","60ce59806a88034d7e9456da","cIcnFJROLSQWqWJFRdD44Al6Exu2","","","","","","","","","","","","","","","","","chosen stimuli: images/choice_trial_3.png","","","",""
"html-keyboard-response","69","128926","0.0-30.0-2.0","","null","","null","delaylearn","learning","feedback_duration_window","60ce59806a88034d7e9456da","cIcnFJROLSQWqWJFRdD44Al6Exu2","","","","","","","","","","","","","","","","","","750","","",""
"html-keyboard-response","70","130429","0.0-30.0-3.0","","null","<div style='margin:auto;width: auto; font-size: 150%'><span style='font-weight: bold; font-size: 100px; color: green;'>+10 points!</span><br><br></div>","null","delaylearn","learning","feedback_image_window","60ce59806a88034d7e9456da","cIcnFJROLSQWqWJFRdD44Al6Exu2","","","","","","","","","","","","","","","","","","","","",""
"html-keyboard-response","71","130935","0.0-31.0-0.0","","null","","null","","","mood_trial_fixation","","","","","","","","","","","","","","","","","","","","","","",""
"lmdlab-html-vas-response","72","141502","0.0-31.0-1.0","","9555","How happy are you right now?","0.4166666666666667","delaylearn","learning","mood_trial","60ce59806a88034d7e9456da","cIcnFJROLSQWqWJFRdD44Al6Exu2","","","","","","","","","","","","","","","","","","","","[""Very unhappy"",""Very happy""]",""
"html-keyboard-response","73","143676","0.0-32.0","","null","<div style=""font-size:100px;"">+</div>","null","delaylearn","learning","ITI","60ce59806a88034d7e9456da","cIcnFJROLSQWqWJFRdD44Al6Exu2","","","","","","","","","","","","","","","","","","","2166","",""
"html-keyboard-response","74","145047","0.0-33.0-0.0","","1370.6999999999534","<div style=""display: flex; flex-direction: column; align-items: center; margin-top: -40px;""><img src=""images/pattern_1.png"" style=""width: 234px; height: 230px; margin-top: -50px;""><div style=""display: flex; justify-content: space-between; margin-top: 33px;""><img src=""images/choice_trial_8.png"" style=""width: 408px; height: 417px; margin-right: 200px;""><img src=""images/choice_trial_14.png"" style=""width: 408px; height: 417px;""></div></div>","j","delaylearn","learning","trial","60ce59806a88034d7e9456da","cIcnFJROLSQWqWJFRdD44Al6Exu2","3","images/choice_trial_8.png","images/choice_trial_14.png","images/pattern_1.png","j","j","7000","8","14","1","1","14","1","1","14","110","","","","",""
"html-keyboard-response","75","146061","0.0-33.0-1.0","","null","<div style=""display: flex; flex-direction: column; align-items: center; margin-top: -40px;""><img src=""images/pattern_1.png"" style=""width: 234px; height: 230px; margin-top: -50px;""><div style=""display: flex; justify-content: space-between; margin-top: 33px;""><img src=""images/choice_trial_14.png"" style=""width: 408px; height: 417px; margin-left:608px;""></div></div>","null","delaylearn","learning","display_response","60ce59806a88034d7e9456da","cIcnFJROLSQWqWJFRdD44Al6Exu2","","","","","","","","","","","","","","","","","chosen stimuli: images/choice_trial_14.png","","","",""
"html-keyboard-response","76","153069","0.0-33.0-2.0","","null","","null","delaylearn","learning","feedback_duration_window","60ce59806a88034d7e9456da","cIcnFJROLSQWqWJFRdD44Al6Exu2","","","","","","","","","","","","","","","","","","7000","","",""
"html-keyboard-response","77","154582","0.0-33.0-3.0","","null","<div style='margin:auto;width: auto; font-size: 150%'><span style='font-weight: bold; font-size: 100px; color: green;'>+10 points!</span><br><br></div>","null","delaylearn","learning","feedback_image_window","60ce59806a88034d7e9456da","cIcnFJROLSQWqWJFRdD44Al6Exu2","","","","","","","","","","","","","","","","","","","","",""
"html-keyboard-response","78","156350","0.0-34.0","","null","<div style=""font-size:100px;"">+</div>","null","delaylearn","learning","ITI","60ce59806a88034d7e9456da","cIcnFJROLSQWqWJFRdD44Al6Exu2","","","","","","","","","","","","","","","","","","","1759","",""
"html-keyboard-response","79","157415","0.0-35.0-0.0","","1064.8000000000466","<div style=""display: flex; flex-direction: column; align-items: center; margin-top: -40px;""><img src=""images/pattern_3.png"" style=""width: 234px; height: 230px; margin-top: -50px;""><div style=""display: flex; justify-content: space-between; margin-top: 33px;""><img src=""images/choice_trial_10.png"" style=""width: 408px; height: 417px; margin-right: 200px;""><img src=""images/choice_trial_13.png"" style=""width: 408px; height: 417px;""></div></div>","j","delaylearn","learning","trial","60ce59806a88034d7e9456da","cIcnFJROLSQWqWJFRdD44Al6Exu2","3","images/choice_trial_10.png","images/choice_trial_13.png","images/pattern_3.png","f","j","7000","10","13","2","1","15","1","0","13","110","","","","",""
"html-keyboard-response","80","158423","0.0-35.0-1.0","","null","<div style=""display: flex; flex-direction: column; align-items: center; margin-top: -40px;""><img src=""images/pattern_3.png"" style=""width: 234px; height: 230px; margin-top: -50px;""><div style=""display: flex; justify-content: space-between; margin-top: 33px;""><img src=""images/choice_trial_13.png"" style=""width: 408px; height: 417px; margin-left:608px;""></div></div>","null","delaylearn","learning","display_response","60ce59806a88034d7e9456da","cIcnFJROLSQWqWJFRdD44Al6Exu2","","","","","","","","","","","","","","","","","chosen stimuli: images/choice_trial_13.png","","","",""
"html-keyboard-response","81","165435","0.0-35.0-2.0","","null","","null","delaylearn","learning","feedback_duration_window","60ce59806a88034d7e9456da","cIcnFJROLSQWqWJFRdD44Al6Exu2","","","","","","","","","","","","","","","","","","7000","","",""
"html-keyboard-response","82","166937","0.0-35.0-3.0","","null","<div style='margin:auto;width: auto; font-size: 150%'><span style='font-weight: bold; font-size: 100px; color: red;'>0 points!</span><br><br></div>","null","delaylearn","learning","feedback_image_window","60ce59806a88034d7e9456da","cIcnFJROLSQWqWJFRdD44Al6Exu2","","","","","","","","","","","","","","","","","","","","",""
"html-keyboard-response","83","168901","0.0-36.0","","null","<div style=""font-size:100px;"">+</div>","null","delaylearn","learning","ITI","60ce59806a88034d7e9456da","cIcnFJROLSQWqWJFRdD44Al6Exu2","","","","","","","","","","","","","","","","","","","1962","",""
"html-keyboard-response","84","170249","0.0-37.0-0.0","","1347.8000000002794","<div style=""display: flex; flex-direction: column; align-items: center; margin-top: -40px;""><img src=""images/pattern_5.png"" style=""width: 234px; height: 230px; margin-top: -50px;""><div style=""display: flex; justify-content: space-between; margin-top: 33px;""><img src=""images/choice_trial_11.png"" style=""width: 408px; height: 417px; margin-right: 200px;""><img src=""images/choice_trial_2.png"" style=""width: 408px; height: 417px;""></div></div>","j","delaylearn","learning","trial","60ce59806a88034d7e9456da","cIcnFJROLSQWqWJFRdD44Al6Exu2","3","images/choice_trial_11.png","images/choice_trial_2.png","images/pattern_5.png","f","f","750","11","2","4","0","16","0","0","2","110","","","","",""
"html-keyboard-response","85","171261","0.0-37.0-1.0","","null","<div style=""display: flex; flex-direction: column; align-items: center; margin-top: -40px;""><img src=""images/pattern_5.png"" style=""width: 234px; height: 230px; margin-top: -50px;""><div style=""display: flex; justify-content: space-between; margin-top: 33px;""><img src=""images/choice_trial_2.png"" style=""width: 408px; height: 417px; margin-left:608px;""></div></div>","null","delaylearn","learning","display_response","60ce59806a88034d7e9456da","cIcnFJROLSQWqWJFRdD44Al6Exu2","","","","","","","","","","","","","","","","","chosen stimuli: images/choice_trial_2.png","","","",""
"html-keyboard-response","86","172021","0.0-37.0-2.0","","null","","null","delaylearn","learning","feedback_duration_window","60ce59806a88034d7e9456da","cIcnFJROLSQWqWJFRdD44Al6Exu2","","","","","","","","","","","","","","","","","","750","","",""
"html-keyboard-response","87","173526","0.0-37.0-3.0","","null","<div style='margin:auto;width: auto; font-size: 150%'><span style='font-weight: bold; font-size: 100px; color: red;'>0 points!</span><br><br></div>","null","delaylearn","learning","feedback_image_window","60ce59806a88034d7e9456da","cIcnFJROLSQWqWJFRdD44Al6Exu2","","","","","","","","","","","","","","","","","","","","",""
"html-keyboard-response","88","174039","0.0-38.0-0.0","","null","","null","","","mood_trial_fixation","","","","","","","","","","","","","","","","","","","","","","",""
"lmdlab-html-vas-response","89","177952","0.0-38.0-1.0","","2903","How happy are you right now?","0.29475308641975306","delaylearn","learning","mood_trial","60ce59806a88034d7e9456da","cIcnFJROLSQWqWJFRdD44Al6Exu2","","","","","","","","","","","","","","","","","","","","[""Very unhappy"",""Very happy""]",""
"html-keyboard-response","90","179789","0.0-39.0","","null","<div style=""font-size:100px;"">+</div>","null","delaylearn","learning","ITI","60ce59806a88034d7e9456da","cIcnFJROLSQWqWJFRdD44Al6Exu2","","","","","","","","","","","","","","","","","","","1826","",""
"html-keyboard-response","91","181239","0.0-40.0-0.0","","1448.4000000003725","<div style=""display: flex; flex-direction: column; align-items: center; margin-top: -40px;""><img src=""images/pattern_6.png"" style=""width: 234px; height: 230px; margin-top: -50px;""><div style=""display: flex; justify-content: space-between; margin-top: 33px;""><img src=""images/choice_trial_16.png"" style=""width: 408px; height: 417px; margin-right: 200px;""><img src=""images/choice_trial_3.png"" style=""width: 408px; height: 417px;""></div></div>","j","delaylearn","learning","trial","60ce59806a88034d7e9456da","cIcnFJROLSQWqWJFRdD44Al6Exu2","3","images/choice_trial_16.png","images/choice_trial_3.png","images/pattern_6.png","f","f","750","16","3","5","0","17","0","0","3","110","","","","",""
"html-keyboard-response","92","182248","0.0-40.0-1.0","","null","<div style=""display: flex; flex-direction: column; align-items: center; margin-top: -40px;""><img src=""images/pattern_6.png"" style=""width: 234px; height: 230px; margin-top: -50px;""><div style=""display: flex; justify-content: space-between; margin-top: 33px;""><img src=""images/choice_trial_3.png"" style=""width: 408px; height: 417px; margin-left:608px;""></div></div>","null","delaylearn","learning","display_response","60ce59806a88034d7e9456da","cIcnFJROLSQWqWJFRdD44Al6Exu2","","","","","","","","","","","","","","","","","chosen stimuli: images/choice_trial_3.png","","","",""
"html-keyboard-response","93","183010","0.0-40.0-2.0","","null","","null","delaylearn","learning","feedback_duration_window","60ce59806a88034d7e9456da","cIcnFJROLSQWqWJFRdD44Al6Exu2","","","","","","","","","","","","","","","","","","750","","",""
"html-keyboard-response","94","184524","0.0-40.0-3.0","","null","<div style='margin:auto;width: auto; font-size: 150%'><span style='font-weight: bold; font-size: 100px; color: red;'>0 points!</span><br><br></div>","null","delaylearn","learning","feedback_image_window","60ce59806a88034d7e9456da","cIcnFJROLSQWqWJFRdD44Al6Exu2","","","","","","","","","","","","","","","","","","","","",""
"html-keyboard-response","95","186418","0.0-41.0","","null","<div style=""font-size:100px;"">+</div>","null","delaylearn","learning","ITI","60ce59806a88034d7e9456da","cIcnFJROLSQWqWJFRdD44Al6Exu2","","","","","","","","","","","","","","","","","","","1880","",""
"html-keyboard-response","96","187503","0.0-42.0-0.0","","1083.2000000001863","<div style=""display: flex; flex-direction: column; align-items: center; margin-top: -40px;""><img src=""images/pattern_4.png"" style=""width: 234px; height: 230px; margin-top: -50px;""><div style=""display: flex; justify-content: space-between; margin-top: 33px;""><img src=""images/choice_trial_9.png"" style=""width: 408px; height: 417px; margin-right: 200px;""><img src=""images/choice_trial_15.png"" style=""width: 408px; height: 417px;""></div></div>","j","delaylearn","learning","trial","60ce59806a88034d7e9456da","cIcnFJROLSQWqWJFRdD44Al6Exu2","3","images/choice_trial_9.png","images/choice_trial_15.png","images/pattern_4.png","j","j","7000","9","15","3","1","18","1","1","15","120","","","","",""
"html-keyboard-response","97","188511","0.0-42.0-1.0","","null","<div style=""display: flex; flex-direction: column; align-items: center; margin-top: -40px;""><img src=""images/pattern_4.png"" style=""width: 234px; height: 230px; margin-top: -50px;""><div style=""display: flex; justify-content: space-between; margin-top: 33px;""><img src=""images/choice_trial_15.png"" style=""width: 408px; height: 417px; margin-left:608px;""></div></div>","null","delaylearn","learning","display_response","60ce59806a88034d7e9456da","cIcnFJROLSQWqWJFRdD44Al6Exu2","","","","","","","","","","","","","","","","","chosen stimuli: images/choice_trial_15.png","","","",""
"html-keyboard-response","98","195515","0.0-42.0-2.0","","null","","null","delaylearn","learning","feedback_duration_window","60ce59806a88034d7e9456da","cIcnFJROLSQWqWJFRdD44Al6Exu2","","","","","","","","","","","","","","","","","","7000","","",""
"html-keyboard-response","99","197019","0.0-42.0-3.0","","null","<div style='margin:auto;width: auto; font-size: 150%'><span style='font-weight: bold; font-size: 100px; color: green;'>+10 points!</span><br><br></div>","null","delaylearn","learning","feedback_image_window","60ce59806a88034d7e9456da","cIcnFJROLSQWqWJFRdD44Al6Exu2","","","","","","","","","","","","","","","","","","","","",""
"html-keyboard-response","100","199478","0.0-43.0","","null","<div style=""font-size:100px;"">+</div>","null","delaylearn","learning","ITI","60ce59806a88034d7e9456da","cIcnFJROLSQWqWJFRdD44Al6Exu2","","","","","","","","","","","","","","","","","","","2450","",""
"html-keyboard-response","101","200849","0.0-44.0-0.0","","1369.6000000000931","<div style=""display: flex; flex-direction: column; align-items: center; margin-top: -40px;""><img src=""images/pattern_7.png"" style=""width: 234px; height: 230px; margin-top: -50px;""><div style=""display: flex; justify-content: space-between; margin-top: 33px;""><img src=""images/choice_trial_6.png"" style=""width: 408px; height: 417px; margin-right: 200px;""><img src=""images/choice_trial_12.png"" style=""width: 408px; height: 417px;""></div></div>","f","delaylearn","learning","trial","60ce59806a88034d7e9456da","cIcnFJROLSQWqWJFRdD44Al6Exu2","3","images/choice_trial_6.png","images/choice_trial_12.png","images/pattern_7.png","j","f","750","6","12","6","0","19","1","0","6","120","","","","",""
"html-keyboard-response","102","201861","0.0-44.0-1.0","","null","<div style=""display: flex; flex-direction: column; align-items: center; margin-top: -40px;""><img src=""images/pattern_7.png"" style=""width: 234px; height: 230px; margin-top: -50px;""><div style=""display: flex; justify-content: space-between; margin-top: 33px;""><img src=""images/choice_trial_6.png"" style=""width: 408px; height: 417px; margin-right: 608px;""></div></div>","null","delaylearn","learning","display_response","60ce59806a88034d7e9456da","cIcnFJROLSQWqWJFRdD44Al6Exu2","","","","","","","","","","","","","","","","","chosen stimuli: images/choice_trial_6.png","","","",""
"html-keyboard-response","103","202617","0.0-44.0-2.0","","null","","null","delaylearn","learning","feedback_duration_window","60ce59806a88034d7e9456da","cIcnFJROLSQWqWJFRdD44Al6Exu2","","","","","","","","","","","","","","","","","","750","","",""
"html-keyboard-response","104","204118","0.0-44.0-3.0","","null","<div style='margin:auto;width: auto; font-size: 150%'><span style='font-weight: bold; font-size: 100px; color: red;'>0 points!</span><br><br></div>","null","delaylearn","learning","feedback_image_window","60ce59806a88034d7e9456da","cIcnFJROLSQWqWJFRdD44Al6Exu2","","","","","","","","","","","","","","","","","","","","",""
"html-keyboard-response","105","206130","0.0-45.0","","null","<div style=""font-size:100px;"">+</div>","null","delaylearn","learning","ITI","60ce59806a88034d7e9456da","cIcnFJROLSQWqWJFRdD44Al6Exu2","","","","","","","","","","","","","","","","","","","2011","",""
"html-keyboard-response","106","208770","0.0-46.0-0.0","","2639.2999999998137","<div style=""display: flex; flex-direction: column; align-items: center; margin-top: -40px;""><img src=""images/pattern_1.png"" style=""width: 234px; height: 230px; margin-top: -50px;""><div style=""display: flex; justify-content: space-between; margin-top: 33px;""><img src=""images/choice_trial_14.png"" style=""width: 408px; height: 417px; margin-right: 200px;""><img src=""images/choice_trial_8.png"" style=""width: 408px; height: 417px;""></div></div>","f","delaylearn","learning","trial","60ce59806a88034d7e9456da","cIcnFJROLSQWqWJFRdD44Al6Exu2","3","images/choice_trial_14.png","images/choice_trial_8.png","images/pattern_1.png","f","f","7000","14","8","1","0","20","1","1","14","130","","","","",""
"html-keyboard-response","107","209786","0.0-46.0-1.0","","null","<div style=""display: flex; flex-direction: column; align-items: center; margin-top: -40px;""><img src=""images/pattern_1.png"" style=""width: 234px; height: 230px; margin-top: -50px;""><div style=""display: flex; justify-content: space-between; margin-top: 33px;""><img src=""images/choice_trial_14.png"" style=""width: 408px; height: 417px; margin-right: 608px;""></div></div>","null","delaylearn","learning","display_response","60ce59806a88034d7e9456da","cIcnFJROLSQWqWJFRdD44Al6Exu2","","","","","","","","","","","","","","","","","chosen stimuli: images/choice_trial_14.png","","","",""
"html-keyboard-response","108","216800","0.0-46.0-2.0","","null","","null","delaylearn","learning","feedback_duration_window","60ce59806a88034d7e9456da","cIcnFJROLSQWqWJFRdD44Al6Exu2","","","","","","","","","","","","","","","","","","7000","","",""
"html-keyboard-response","109","218301","0.0-46.0-3.0","","null","<div style='margin:auto;width: auto; font-size: 150%'><span style='font-weight: bold; font-size: 100px; color: green;'>+10 points!</span><br><br></div>","null","delaylearn","learning","feedback_image_window","60ce59806a88034d7e9456da","cIcnFJROLSQWqWJFRdD44Al6Exu2","","","","","","","","","","","","","","","","","","","","",""
"html-keyboard-response","110","219960","0.0-47.0","","null","<div style=""font-size:100px;"">+</div>","null","delaylearn","learning","ITI","60ce59806a88034d7e9456da","cIcnFJROLSQWqWJFRdD44Al6Exu2","","","","","","","","","","","","","","","","","","","1644","",""
"html-keyboard-response","111","221767","0.0-48.0-0.0","","1806.1000000000931","<div style=""display: flex; flex-direction: column; align-items: center; margin-top: -40px;""><img src=""images/pattern_6.png"" style=""width: 234px; height: 230px; margin-top: -50px;""><div style=""display: flex; justify-content: space-between; margin-top: 33px;""><img src=""images/choice_trial_3.png"" style=""width: 408px; height: 417px; margin-right: 200px;""><img src=""images/choice_trial_16.png"" style=""width: 408px; height: 417px;""></div></div>","f","delaylearn","learning","trial","60ce59806a88034d7e9456da","cIcnFJROLSQWqWJFRdD44Al6Exu2","3","images/choice_trial_3.png","images/choice_trial_16.png","images/pattern_6.png","j","j","750","3","16","5","1","21","0","0","3","130","","","","",""
"html-keyboard-response","112","222771","0.0-48.0-1.0","","null","<div style=""display: flex; flex-direction: column; align-items: center; margin-top: -40px;""><img src=""images/pattern_6.png"" style=""width: 234px; height: 230px; margin-top: -50px;""><div style=""display: flex; justify-content: space-between; margin-top: 33px;""><img src=""images/choice_trial_3.png"" style=""width: 408px; height: 417px; margin-right: 608px;""></div></div>","null","delaylearn","learning","display_response","60ce59806a88034d7e9456da","cIcnFJROLSQWqWJFRdD44Al6Exu2","","","","","","","","","","","","","","","","","chosen stimuli: images/choice_trial_3.png","","","",""
"html-keyboard-response","113","223530","0.0-48.0-2.0","","null","","null","delaylearn","learning","feedback_duration_window","60ce59806a88034d7e9456da","cIcnFJROLSQWqWJFRdD44Al6Exu2","","","","","","","","","","","","","","","","","","750","","",""
"html-keyboard-response","114","225046","0.0-48.0-3.0","","null","<div style='margin:auto;width: auto; font-size: 150%'><span style='font-weight: bold; font-size: 100px; color: red;'>0 points!</span><br><br></div>","null","delaylearn","learning","feedback_image_window","60ce59806a88034d7e9456da","cIcnFJROLSQWqWJFRdD44Al6Exu2","","","","","","","","","","","","","","","","","","","","",""
"html-keyboard-response","115","227262","0.0-49.0","","null","<div style=""font-size:100px;"">+</div>","null","delaylearn","learning","ITI","60ce59806a88034d7e9456da","cIcnFJROLSQWqWJFRdD44Al6Exu2","","","","","","","","","","","","","","","","","","","2206","",""
"html-keyboard-response","116","228287","0.0-50.0-0.0","","1024","<div style=""display: flex; flex-direction: column; align-items: center; margin-top: -40px;""><img src=""images/pattern_4.png"" style=""width: 234px; height: 230px; margin-top: -50px;""><div style=""display: flex; justify-content: space-between; margin-top: 33px;""><img src=""images/choice_trial_15.png"" style=""width: 408px; height: 417px; margin-right: 200px;""><img src=""images/choice_trial_9.png"" style=""width: 408px; height: 417px;""></div></div>","f","delaylearn","learning","trial","60ce59806a88034d7e9456da","cIcnFJROLSQWqWJFRdD44Al6Exu2","3","images/choice_trial_15.png","images/choice_trial_9.png","images/pattern_4.png","f","f","7000","15","9","3","0","22","1","1","15","140","","","","",""
"html-keyboard-response","117","229297","0.0-50.0-1.0","","null","<div style=""display: flex; flex-direction: column; align-items: center; margin-top: -40px;""><img src=""images/pattern_4.png"" style=""width: 234px; height: 230px; margin-top: -50px;""><div style=""display: flex; justify-content: space-between; margin-top: 33px;""><img src=""images/choice_trial_15.png"" style=""width: 408px; height: 417px; margin-right: 608px;""></div></div>","null","delaylearn","learning","display_response","60ce59806a88034d7e9456da","cIcnFJROLSQWqWJFRdD44Al6Exu2","","","","","","","","","","","","","","","","","chosen stimuli: images/choice_trial_15.png","","","",""
"html-keyboard-response","118","236298","0.0-50.0-2.0","","null","","null","delaylearn","learning","feedback_duration_window","60ce59806a88034d7e9456da","cIcnFJROLSQWqWJFRdD44Al6Exu2","","","","","","","","","","","","","","","","","","7000","","",""
"html-keyboard-response","119","237799","0.0-50.0-3.0","","null","<div style='margin:auto;width: auto; font-size: 150%'><span style='font-weight: bold; font-size: 100px; color: green;'>+10 points!</span><br><br></div>","null","delaylearn","learning","feedback_image_window","60ce59806a88034d7e9456da","cIcnFJROLSQWqWJFRdD44Al6Exu2","","","","","","","","","","","","","","","","","","","","",""
"html-keyboard-response","120","238304","0.0-51.0-0.0","","null","","null","","","mood_trial_fixation","","","","","","","","","","","","","","","","","","","","","","",""
"lmdlab-html-vas-response","121","243978","0.0-51.0-1.0","","4660","How happy are you right now?","0.5370370370370371","delaylearn","learning","mood_trial","60ce59806a88034d7e9456da","cIcnFJROLSQWqWJFRdD44Al6Exu2","","","","","","","","","","","","","","","","","","","","[""Very unhappy"",""Very happy""]",""
"html-keyboard-response","122","245978","0.0-52.0","","null","<div style=""font-size:100px;"">+</div>","null","delaylearn","learning","ITI","60ce59806a88034d7e9456da","cIcnFJROLSQWqWJFRdD44Al6Exu2","","","","","","","","","","","","","","","","","","","1985","",""
"html-keyboard-response","123","246753","0.0-53.0-0.0","","774.5","<div style=""display: flex; flex-direction: column; align-items: center; margin-top: -40px;""><img src=""images/pattern_7.png"" style=""width: 234px; height: 230px; margin-top: -50px;""><div style=""display: flex; justify-content: space-between; margin-top: 33px;""><img src=""images/choice_trial_12.png"" style=""width: 408px; height: 417px; margin-right: 200px;""><img src=""images/choice_trial_6.png"" style=""width: 408px; height: 417px;""></div></div>","j","delaylearn","learning","trial","60ce59806a88034d7e9456da","cIcnFJROLSQWqWJFRdD44Al6Exu2","3","images/choice_trial_12.png","images/choice_trial_6.png","images/pattern_7.png","j","j","750","12","6","6","1","23","1","1","6","150","","","","",""
"html-keyboard-response","124","247761","0.0-53.0-1.0","","null","<div style=""display: flex; flex-direction: column; align-items: center; margin-top: -40px;""><img src=""images/pattern_7.png"" style=""width: 234px; height: 230px; margin-top: -50px;""><div style=""display: flex; justify-content: space-between; margin-top: 33px;""><img src=""images/choice_trial_6.png"" style=""width: 408px; height: 417px; margin-left:608px;""></div></div>","null","delaylearn","learning","display_response","60ce59806a88034d7e9456da","cIcnFJROLSQWqWJFRdD44Al6Exu2","","","","","","","","","","","","","","","","","chosen stimuli: images/choice_trial_6.png","","","",""
"html-keyboard-response","125","248519","0.0-53.0-2.0","","null","","null","delaylearn","learning","feedback_duration_window","60ce59806a88034d7e9456da","cIcnFJROLSQWqWJFRdD44Al6Exu2","","","","","","","","","","","","","","","","","","750","","",""
"html-keyboard-response","126","250035","0.0-53.0-3.0","","null","<div style='margin:auto;width: auto; font-size: 150%'><span style='font-weight: bold; font-size: 100px; color: green;'>+10 points!</span><br><br></div>","null","delaylearn","learning","feedback_image_window","60ce59806a88034d7e9456da","cIcnFJROLSQWqWJFRdD44Al6Exu2","","","","","","","","","","","","","","","","","","","","",""
"html-keyboard-response","127","252357","0.0-54.0","","null","<div style=""font-size:100px;"">+</div>","null","delaylearn","learning","ITI","60ce59806a88034d7e9456da","cIcnFJROLSQWqWJFRdD44Al6Exu2","","","","","","","","","","","","","","","","","","","2317","",""
"html-keyboard-response","128","253790","0.0-55.0-0.0","","1431.2999999998137","<div style=""display: flex; flex-direction: column; align-items: center; margin-top: -40px;""><img src=""images/pattern_1.png"" style=""width: 234px; height: 230px; margin-top: -50px;""><div style=""display: flex; justify-content: space-between; margin-top: 33px;""><img src=""images/choice_trial_8.png"" style=""width: 408px; height: 417px; margin-right: 200px;""><img src=""images/choice_trial_14.png"" style=""width: 408px; height: 417px;""></div></div>","j","delaylearn","learning","trial","60ce59806a88034d7e9456da","cIcnFJROLSQWqWJFRdD44Al6Exu2","3","images/choice_trial_8.png","images/choice_trial_14.png","images/pattern_1.png","f","j","7000","8","14","1","1","24","1","0","14","150","","","","",""
"html-keyboard-response","129","254791","0.0-55.0-1.0","","null","<div style=""display: flex; flex-direction: column; align-items: center; margin-top: -40px;""><img src=""images/pattern_1.png"" style=""width: 234px; height: 230px; margin-top: -50px;""><div style=""display: flex; justify-content: space-between; margin-top: 33px;""><img src=""images/choice_trial_14.png"" style=""width: 408px; height: 417px; margin-left:608px;""></div></div>","null","delaylearn","learning","display_response","60ce59806a88034d7e9456da","cIcnFJROLSQWqWJFRdD44Al6Exu2","","","","","","","","","","","","","","","","","chosen stimuli: images/choice_trial_14.png","","","",""
"html-keyboard-response","130","261806","0.0-55.0-2.0","","null","","null","delaylearn","learning","feedback_duration_window","60ce59806a88034d7e9456da","cIcnFJROLSQWqWJFRdD44Al6Exu2","","","","","","","","","","","","","","","","","","7000","","",""
"html-keyboard-response","131","263319","0.0-55.0-3.0","","null","<div style='margin:auto;width: auto; font-size: 150%'><span style='font-weight: bold; font-size: 100px; color: red;'>0 points!</span><br><br></div>","null","delaylearn","learning","feedback_image_window","60ce59806a88034d7e9456da","cIcnFJROLSQWqWJFRdD44Al6Exu2","","","","","","","","","","","","","","","","","","","","",""
"html-keyboard-response","132","265040","0.0-56.0","","null","<div style=""font-size:100px;"">+</div>","null","delaylearn","learning","ITI","60ce59806a88034d7e9456da","cIcnFJROLSQWqWJFRdD44Al6Exu2","","","","","","","","","","","","","","","","","","","1716","",""
"html-keyboard-response","133","266968","0.0-57.0-0.0","","1926.1000000000931","<div style=""display: flex; flex-direction: column; align-items: center; margin-top: -40px;""><img src=""images/pattern_5.png"" style=""width: 234px; height: 230px; margin-top: -50px;""><div style=""display: flex; justify-content: space-between; margin-top: 33px;""><img src=""images/choice_trial_2.png"" style=""width: 408px; height: 417px; margin-right: 200px;""><img src=""images/choice_trial_11.png"" style=""width: 408px; height: 417px;""></div></div>","f","delaylearn","learning","trial","60ce59806a88034d7e9456da","cIcnFJROLSQWqWJFRdD44Al6Exu2","3","images/choice_trial_2.png","images/choice_trial_11.png","images/pattern_5.png","j","j","750","2","11","4","1","25","0","0","2","150","","","","",""
"html-keyboard-response","134","267976","0.0-57.0-1.0","","null","<div style=""display: flex; flex-direction: column; align-items: center; margin-top: -40px;""><img src=""images/pattern_5.png"" style=""width: 234px; height: 230px; margin-top: -50px;""><div style=""display: flex; justify-content: space-between; margin-top: 33px;""><img src=""images/choice_trial_2.png"" style=""width: 408px; height: 417px; margin-right: 608px;""></div></div>","null","delaylearn","learning","display_response","60ce59806a88034d7e9456da","cIcnFJROLSQWqWJFRdD44Al6Exu2","","","","","","","","","","","","","","","","","chosen stimuli: images/choice_trial_2.png","","","",""
"html-keyboard-response","135","268734","0.0-57.0-2.0","","null","","null","delaylearn","learning","feedback_duration_window","60ce59806a88034d7e9456da","cIcnFJROLSQWqWJFRdD44Al6Exu2","","","","","","","","","","","","","","","","","","750","","",""
"html-keyboard-response","136","270249","0.0-57.0-3.0","","null","<div style='margin:auto;width: auto; font-size: 150%'><span style='font-weight: bold; font-size: 100px; color: red;'>0 points!</span><br><br></div>","null","delaylearn","learning","feedback_image_window","60ce59806a88034d7e9456da","cIcnFJROLSQWqWJFRdD44Al6Exu2","","","","","","","","","","","","","","","","","","","","",""
"html-keyboard-response","137","272751","0.0-58.0","","null","<div style=""font-size:100px;"">+</div>","null","delaylearn","learning","ITI","60ce59806a88034d7e9456da","cIcnFJROLSQWqWJFRdD44Al6Exu2","","","","","","","","","","","","","","","","","","","2495","",""
"html-keyboard-response","138","274165","0.0-59.0-0.0","","1413.5","<div style=""display: flex; flex-direction: column; align-items: center; margin-top: -40px;""><img src=""images/pattern_3.png"" style=""width: 234px; height: 230px; margin-top: -50px;""><div style=""display: flex; justify-content: space-between; margin-top: 33px;""><img src=""images/choice_trial_10.png"" style=""width: 408px; height: 417px; margin-right: 200px;""><img src=""images/choice_trial_13.png"" style=""width: 408px; height: 417px;""></div></div>","f","delaylearn","learning","trial","60ce59806a88034d7e9456da","cIcnFJROLSQWqWJFRdD44Al6Exu2","3","images/choice_trial_10.png","images/choice_trial_13.png","images/pattern_3.png","j","j","7000","10","13","2","1","26","0","0","10","150","","","","",""
"html-keyboard-response","139","275181","0.0-59.0-1.0","","null","<div style=""display: flex; flex-direction: column; align-items: center; margin-top: -40px;""><img src=""images/pattern_3.png"" style=""width: 234px; height: 230px; margin-top: -50px;""><div style=""display: flex; justify-content: space-between; margin-top: 33px;""><img src=""images/choice_trial_10.png"" style=""width: 408px; height: 417px; margin-right: 608px;""></div></div>","null","delaylearn","learning","display_response","60ce59806a88034d7e9456da","cIcnFJROLSQWqWJFRdD44Al6Exu2","","","","","","","","","","","","","","","","","chosen stimuli: images/choice_trial_10.png","","","",""
"html-keyboard-response","140","282188","0.0-59.0-2.0","","null","","null","delaylearn","learning","feedback_duration_window","60ce59806a88034d7e9456da","cIcnFJROLSQWqWJFRdD44Al6Exu2","","","","","","","","","","","","","","","","","","7000","","",""
"html-keyboard-response","141","283704","0.0-59.0-3.0","","null","<div style='margin:auto;width: auto; font-size: 150%'><span style='font-weight: bold; font-size: 100px; color: red;'>0 points!</span><br><br></div>","null","delaylearn","learning","feedback_image_window","60ce59806a88034d7e9456da","cIcnFJROLSQWqWJFRdD44Al6Exu2","","","","","","","","","","","","","","","","","","","","",""
"lmdlab-html-vas-response","142","294743","0.0-60.0-0.0","","9523","*How <b><u>confident</u></b> are you feeling about your answers at this moment?*","0.21296296296296297","rewlearn","rate_confidence","","60ce59806a88034d7e9456da","cIcnFJROLSQWqWJFRdD44Al6Exu2","","","","","","","","","","","","","","","","","","","","[""No confidence"",""Complete confidence""]",""
"lmdlab-rest-trial-limit","143","371432","0.0-60.0-1.0","","75179.70000000019","<div style=""font-size:40px;""><b>Please take a break!</b><br><br><br><br><p>Great work: you earned 150 points.<br><br><br><p>You have completed part(s) 1 of 5.<br><br><br><br>When you are ready to continue<br><br><br>please click the button.</p><br><br>","0","delaylearn","learning","break","60ce59806a88034d7e9456da","cIcnFJROLSQWqWJFRdD44Al6Exu2","","","","","","","","","","","","","","","","","","","","","0"
"html-keyboard-response","144","374446","0.0-60.0-2.0","","null","<div style=""font-size:100px;"">+</div>","null","delaylearn","learning","pre_fixation","60ce59806a88034d7e9456da","","","","","","","","","","","","","","","","","","","","","",""
"lmdlab-html-vas-response","145","377894","0.0-60.0-3.0-0.0","","2437","How happy are you right now?","0.5709876543209876","delaylearn","learning","mood_baseline","60ce59806a88034d7e9456da","cIcnFJROLSQWqWJFRdD44Al6Exu2","","","","","","","","","","","","","","","","","","","","[""Very unhappy"",""Very happy""]",""
"html-keyboard-response","146","379404","0.0-60.0-3.0-1.0","","null","","null","","","mood_baseline_fixation","","","","","","","","","","","","","","","","","","","","","","",""
"html-keyboard-response","147","381835","0.0-61.0","","null","<div style=""font-size:100px;"">+</div>","null","delaylearn","learning","ITI","60ce59806a88034d7e9456da","cIcnFJROLSQWqWJFRdD44Al6Exu2","","","","","","","","","","","","","","","","","","","2425","",""
"html-keyboard-response","148","383270","0.0-62.0-0.0","","1433.5","<div style=""display: flex; flex-direction: column; align-items: center; margin-top: -40px;""><img src=""images/pattern_7.png"" style=""width: 234px; height: 230px; margin-top: -50px;""><div style=""display: flex; justify-content: space-between; margin-top: 33px;""><img src=""images/choice_trial_12.png"" style=""width: 408px; height: 417px; margin-right: 200px;""><img src=""images/choice_trial_6.png"" style=""width: 408px; height: 417px;""></div></div>","j","delaylearn","learning","trial","60ce59806a88034d7e9456da","cIcnFJROLSQWqWJFRdD44Al6Exu2","3","images/choice_trial_12.png","images/choice_trial_6.png","images/pattern_7.png","j","j","750","12","6","6","1","27","1","1","6","160","","","","",""
"html-keyboard-response","149","384275","0.0-62.0-1.0","","null","<div style=""display: flex; flex-direction: column; align-items: center; margin-top: -40px;""><img src=""images/pattern_7.png"" style=""width: 234px; height: 230px; margin-top: -50px;""><div style=""display: flex; justify-content: space-between; margin-top: 33px;""><img src=""images/choice_trial_6.png"" style=""width: 408px; height: 417px; margin-left:608px;""></div></div>","null","delaylearn","learning","display_response","60ce59806a88034d7e9456da","cIcnFJROLSQWqWJFRdD44Al6Exu2","","","","","","","","","","","","","","","","","chosen stimuli: images/choice_trial_6.png","","","",""
"html-keyboard-response","150","385041","0.0-62.0-2.0","","null","","null","delaylearn","learning","feedback_duration_window","60ce59806a88034d7e9456da","cIcnFJROLSQWqWJFRdD44Al6Exu2","","","","","","","","","","","","","","","","","","750","","",""
"html-keyboard-response","151","386557","0.0-62.0-3.0","","null","<div style='margin:auto;width: auto; font-size: 150%'><span style='font-weight: bold; font-size: 100px; color: green;'>+10 points!</span><br><br></div>","null","delaylearn","learning","feedback_image_window","60ce59806a88034d7e9456da","cIcnFJROLSQWqWJFRdD44Al6Exu2","","","","","","","","","","","","","","","","","","","","",""
"html-keyboard-response","152","387063","0.0-63.0-0.0","","null","","null","","","mood_trial_fixation","","","","","","","","","","","","","","","","","","","","","","",""
"lmdlab-html-vas-response","153","390591","0.0-63.0-1.0","","2514","How happy are you right now?","0.38271604938271603","delaylearn","learning","mood_trial","60ce59806a88034d7e9456da","cIcnFJROLSQWqWJFRdD44Al6Exu2","","","","","","","","","","","","","","","","","","","","[""Very unhappy"",""Very happy""]",""
"html-keyboard-response","154","392325","0.0-64.0","","null","<div style=""font-size:100px;"">+</div>","null","delaylearn","learning","ITI","60ce59806a88034d7e9456da","cIcnFJROLSQWqWJFRdD44Al6Exu2","","","","","","","","","","","","","","","","","","","1731","",""
"html-keyboard-response","155","393535","0.0-65.0-0.0","","1209.6000000000931","<div style=""display: flex; flex-direction: column; align-items: center; margin-top: -40px;""><img src=""images/pattern_1.png"" style=""width: 234px; height: 230px; margin-top: -50px;""><div style=""display: flex; justify-content: space-between; margin-top: 33px;""><img src=""images/choice_trial_14.png"" style=""width: 408px; height: 417px; margin-right: 200px;""><img src=""images/choice_trial_8.png"" style=""width: 408px; height: 417px;""></div></div>","f","delaylearn","learning","trial","60ce59806a88034d7e9456da","cIcnFJROLSQWqWJFRdD44Al6Exu2","3","images/choice_trial_14.png","images/choice_trial_8.png","images/pattern_1.png","f","f","7000","14","8","1","0","28","1","1","14","170","","","","",""
"html-keyboard-response","156","394552","0.0-65.0-1.0","","null","<div style=""display: flex; flex-direction: column; align-items: center; margin-top: -40px;""><img src=""images/pattern_1.png"" style=""width: 234px; height: 230px; margin-top: -50px;""><div style=""display: flex; justify-content: space-between; margin-top: 33px;""><img src=""images/choice_trial_14.png"" style=""width: 408px; height: 417px; margin-right: 608px;""></div></div>","null","delaylearn","learning","display_response","60ce59806a88034d7e9456da","cIcnFJROLSQWqWJFRdD44Al6Exu2","","","","","","","","","","","","","","","","","chosen stimuli: images/choice_trial_14.png","","","",""
"html-keyboard-response","157","401567","0.0-65.0-2.0","","null","","null","delaylearn","learning","feedback_duration_window","60ce59806a88034d7e9456da","cIcnFJROLSQWqWJFRdD44Al6Exu2","","","","","","","","","","","","","","","","","","7000","","",""
"html-keyboard-response","158","403068","0.0-65.0-3.0","","null","<div style='margin:auto;width: auto; font-size: 150%'><span style='font-weight: bold; font-size: 100px; color: green;'>+10 points!</span><br><br></div>","null","delaylearn","learning","feedback_image_window","60ce59806a88034d7e9456da","cIcnFJROLSQWqWJFRdD44Al6Exu2","","","","","","","","","","","","","","","","","","","","",""
"html-keyboard-response","159","405515","0.0-66.0","","null","<div style=""font-size:100px;"">+</div>","null","delaylearn","learning","ITI","60ce59806a88034d7e9456da","cIcnFJROLSQWqWJFRdD44Al6Exu2","","","","","","","","","","","","","","","","","","","2431","",""
"html-keyboard-response","160","406691","0.0-67.0-0.0","","1175.3999999999069","<div style=""display: flex; flex-direction: column; align-items: center; margin-top: -40px;""><img src=""images/pattern_5.png"" style=""width: 234px; height: 230px; margin-top: -50px;""><div style=""display: flex; justify-content: space-between; margin-top: 33px;""><img src=""images/choice_trial_11.png"" style=""width: 408px; height: 417px; margin-right: 200px;""><img src=""images/choice_trial_2.png"" style=""width: 408px; height: 417px;""></div></div>","j","delaylearn","learning","trial","60ce59806a88034d7e9456da","cIcnFJROLSQWqWJFRdD44Al6Exu2","3","images/choice_trial_11.png","images/choice_trial_2.png","images/pattern_5.png","f","f","750","11","2","4","0","29","0","0","2","170","","","","",""
"html-keyboard-response","161","407706","0.0-67.0-1.0","","null","<div style=""display: flex; flex-direction: column; align-items: center; margin-top: -40px;""><img src=""images/pattern_5.png"" style=""width: 234px; height: 230px; margin-top: -50px;""><div style=""display: flex; justify-content: space-between; margin-top: 33px;""><img src=""images/choice_trial_2.png"" style=""width: 408px; height: 417px; margin-left:608px;""></div></div>","null","delaylearn","learning","display_response","60ce59806a88034d7e9456da","cIcnFJROLSQWqWJFRdD44Al6Exu2","","","","","","","","","","","","","","","","","chosen stimuli: images/choice_trial_2.png","","","",""
"html-keyboard-response","162","408465","0.0-67.0-2.0","","null","","null","delaylearn","learning","feedback_duration_window","60ce59806a88034d7e9456da","cIcnFJROLSQWqWJFRdD44Al6Exu2","","","","","","","","","","","","","","","","","","750","","",""
"html-keyboard-response","163","409980","0.0-67.0-3.0","","null","<div style='margin:auto;width: auto; font-size: 150%'><span style='font-weight: bold; font-size: 100px; color: red;'>0 points!</span><br><br></div>","null","delaylearn","learning","feedback_image_window","60ce59806a88034d7e9456da","cIcnFJROLSQWqWJFRdD44Al6Exu2","","","","","","","","","","","","","","","","","","","","",""
"html-keyboard-response","164","412333","0.0-68.0","","null","<div style=""font-size:100px;"">+</div>","null","delaylearn","learning","ITI","60ce59806a88034d7e9456da","cIcnFJROLSQWqWJFRdD44Al6Exu2","","","","","","","","","","","","","","","","","","","2343","",""
"html-keyboard-response","165","413676","0.0-69.0-0.0","","1342.2000000001863","<div style=""display: flex; flex-direction: column; align-items: center; margin-top: -40px;""><img src=""images/pattern_6.png"" style=""width: 234px; height: 230px; margin-top: -50px;""><div style=""display: flex; justify-content: space-between; margin-top: 33px;""><img src=""images/choice_trial_3.png"" style=""width: 408px; height: 417px; margin-right: 200px;""><img src=""images/choice_trial_16.png"" style=""width: 408px; height: 417px;""></div></div>","j","delaylearn","learning","trial","60ce59806a88034d7e9456da","cIcnFJROLSQWqWJFRdD44Al6Exu2","3","images/choice_trial_3.png","images/choice_trial_16.png","images/pattern_6.png","j","j","750","3","16","5","1","30","1","1","16","180","","","","",""
"html-keyboard-response","166","414684","0.0-69.0-1.0","","null","<div style=""display: flex; flex-direction: column; align-items: center; margin-top: -40px;""><img src=""images/pattern_6.png"" style=""width: 234px; height: 230px; margin-top: -50px;""><div style=""display: flex; justify-content: space-between; margin-top: 33px;""><img src=""images/choice_trial_16.png"" style=""width: 408px; height: 417px; margin-left:608px;""></div></div>","null","delaylearn","learning","display_response","60ce59806a88034d7e9456da","cIcnFJROLSQWqWJFRdD44Al6Exu2","","","","","","","","","","","","","","","","","chosen stimuli: images/choice_trial_16.png","","","",""
"html-keyboard-response","167","415443","0.0-69.0-2.0","","null","","null","delaylearn","learning","feedback_duration_window","60ce59806a88034d7e9456da","cIcnFJROLSQWqWJFRdD44Al6Exu2","","","","","","","","","","","","","","","","","","750","","",""
"html-keyboard-response","168","416946","0.0-69.0-3.0","","null","<div style='margin:auto;width: auto; font-size: 150%'><span style='font-weight: bold; font-size: 100px; color: green;'>+10 points!</span><br><br></div>","null","delaylearn","learning","feedback_image_window","60ce59806a88034d7e9456da","cIcnFJROLSQWqWJFRdD44Al6Exu2","","","","","","","","","","","","","","","","","","","","",""
"html-keyboard-response","169","417451","0.0-70.0-0.0","","null","","null","","","mood_trial_fixation","","","","","","","","","","","","","","","","","","","","","","",""
"lmdlab-html-vas-response","170","421858","0.0-70.0-1.0","","3395","How happy are you right now?","0.38117283950617287","delaylearn","learning","mood_trial","60ce59806a88034d7e9456da","cIcnFJROLSQWqWJFRdD44Al6Exu2","","","","","","","","","","","","","","","","","","","","[""Very unhappy"",""Very happy""]",""
"html-keyboard-response","171","423993","0.0-71.0","","null","<div style=""font-size:100px;"">+</div>","null","delaylearn","learning","ITI","60ce59806a88034d7e9456da","cIcnFJROLSQWqWJFRdD44Al6Exu2","","","","","","","","","","","","","","","","","","","2133","",""
"html-keyboard-response","172","426780","0.0-72.0-0.0","","2786.399999999907","<div style=""display: flex; flex-direction: column; align-items: center; margin-top: -40px;""><img src=""images/pattern_4.png"" style=""width: 234px; height: 230px; margin-top: -50px;""><div style=""display: flex; justify-content: space-between; margin-top: 33px;""><img src=""images/choice_trial_9.png"" style=""width: 408px; height: 417px; margin-right: 200px;""><img src=""images/choice_trial_15.png"" style=""width: 408px; height: 417px;""></div></div>","j","delaylearn","learning","trial","60ce59806a88034d7e9456da","cIcnFJROLSQWqWJFRdD44Al6Exu2","3","images/choice_trial_9.png","images/choice_trial_15.png","images/pattern_4.png","j","j","7000","9","15","3","1","31","1","1","15","190","","","","",""
"html-keyboard-response","173","427784","0.0-72.0-1.0","","null","<div style=""display: flex; flex-direction: column; align-items: center; margin-top: -40px;""><img src=""images/pattern_4.png"" style=""width: 234px; height: 230px; margin-top: -50px;""><div style=""display: flex; justify-content: space-between; margin-top: 33px;""><img src=""images/choice_trial_15.png"" style=""width: 408px; height: 417px; margin-left:608px;""></div></div>","null","delaylearn","learning","display_response","60ce59806a88034d7e9456da","cIcnFJROLSQWqWJFRdD44Al6Exu2","","","","","","","","","","","","","","","","","chosen stimuli: images/choice_trial_15.png","","","",""
"html-keyboard-response","174","434800","0.0-72.0-2.0","","null","","null","delaylearn","learning","feedback_duration_window","60ce59806a88034d7e9456da","cIcnFJROLSQWqWJFRdD44Al6Exu2","","","","","","","","","","","","","","","","","","7000","","",""
"html-keyboard-response","175","436302","0.0-72.0-3.0","","null","<div style='margin:auto;width: auto; font-size: 150%'><span style='font-weight: bold; font-size: 100px; color: green;'>+10 points!</span><br><br></div>","null","delaylearn","learning","feedback_image_window","60ce59806a88034d7e9456da","cIcnFJROLSQWqWJFRdD44Al6Exu2","","","","","","","","","","","","","","","","","","","","",""
"html-keyboard-response","176","438452","0.0-73.0","","null","<div style=""font-size:100px;"">+</div>","null","delaylearn","learning","ITI","60ce59806a88034d7e9456da","cIcnFJROLSQWqWJFRdD44Al6Exu2","","","","","","","","","","","","","","","","","","","2144","",""
"html-keyboard-response","177","440463","0.0-74.0-0.0","","2009.5","<div style=""display: flex; flex-direction: column; align-items: center; margin-top: -40px;""><img src=""images/pattern_3.png"" style=""width: 234px; height: 230px; margin-top: -50px;""><div style=""display: flex; justify-content: space-between; margin-top: 33px;""><img src=""images/choice_trial_10.png"" style=""width: 408px; height: 417px; margin-right: 200px;""><img src=""images/choice_trial_13.png"" style=""width: 408px; height: 417px;""></div></div>","j","delaylearn","learning","trial","60ce59806a88034d7e9456da","cIcnFJROLSQWqWJFRdD44Al6Exu2","3","images/choice_trial_10.png","images/choice_trial_13.png","images/pattern_3.png","j","j","7000","10","13","2","1","32","1","1","13","200","","","","",""
"html-keyboard-response","178","441470","0.0-74.0-1.0","","null","<div style=""display: flex; flex-direction: column; align-items: center; margin-top: -40px;""><img src=""images/pattern_3.png"" style=""width: 234px; height: 230px; margin-top: -50px;""><div style=""display: flex; justify-content: space-between; margin-top: 33px;""><img src=""images/choice_trial_13.png"" style=""width: 408px; height: 417px; margin-left:608px;""></div></div>","null","delaylearn","learning","display_response","60ce59806a88034d7e9456da","cIcnFJROLSQWqWJFRdD44Al6Exu2","","","","","","","","","","","","","","","","","chosen stimuli: images/choice_trial_13.png","","","",""
"html-keyboard-response","179","448481","0.0-74.0-2.0","","null","","null","delaylearn","learning","feedback_duration_window","60ce59806a88034d7e9456da","cIcnFJROLSQWqWJFRdD44Al6Exu2","","","","","","","","","","","","","","","","","","7000","","",""
"html-keyboard-response","180","449982","0.0-74.0-3.0","","null","<div style='margin:auto;width: auto; font-size: 150%'><span style='font-weight: bold; font-size: 100px; color: green;'>+10 points!</span><br><br></div>","null","delaylearn","learning","feedback_image_window","60ce59806a88034d7e9456da","cIcnFJROLSQWqWJFRdD44Al6Exu2","","","","","","","","","","","","","","","","","","","","",""
"html-keyboard-response","181","451829","0.0-75.0","","null","<div style=""font-size:100px;"">+</div>","null","delaylearn","learning","ITI","60ce59806a88034d7e9456da","cIcnFJROLSQWqWJFRdD44Al6Exu2","","","","","","","","","","","","","","","","","","","1841","",""
"html-keyboard-response","182","452842","0.0-76.0-0.0","","1011.2999999998137","<div style=""display: flex; flex-direction: column; align-items: center; margin-top: -40px;""><img src=""images/pattern_5.png"" style=""width: 234px; height: 230px; margin-top: -50px;""><div style=""display: flex; justify-content: space-between; margin-top: 33px;""><img src=""images/choice_trial_11.png"" style=""width: 408px; height: 417px; margin-right: 200px;""><img src=""images/choice_trial_2.png"" style=""width: 408px; height: 417px;""></div></div>","j","delaylearn","learning","trial","60ce59806a88034d7e9456da","cIcnFJROLSQWqWJFRdD44Al6Exu2","3","images/choice_trial_11.png","images/choice_trial_2.png","images/pattern_5.png","j","f","750","11","2","4","0","33","0","1","2","210","","","","",""
"html-keyboard-response","183","453853","0.0-76.0-1.0","","null","<div style=""display: flex; flex-direction: column; align-items: center; margin-top: -40px;""><img src=""images/pattern_5.png"" style=""width: 234px; height: 230px; margin-top: -50px;""><div style=""display: flex; justify-content: space-between; margin-top: 33px;""><img src=""images/choice_trial_2.png"" style=""width: 408px; height: 417px; margin-left:608px;""></div></div>","null","delaylearn","learning","display_response","60ce59806a88034d7e9456da","cIcnFJROLSQWqWJFRdD44Al6Exu2","","","","","","","","","","","","","","","","","chosen stimuli: images/choice_trial_2.png","","","",""
"html-keyboard-response","184","454612","0.0-76.0-2.0","","null","","null","delaylearn","learning","feedback_duration_window","60ce59806a88034d7e9456da","cIcnFJROLSQWqWJFRdD44Al6Exu2","","","","","","","","","","","","","","","","","","750","","",""
"html-keyboard-response","185","456128","0.0-76.0-3.0","","null","<div style='margin:auto;width: auto; font-size: 150%'><span style='font-weight: bold; font-size: 100px; color: green;'>+10 points!</span><br><br></div>","null","delaylearn","learning","feedback_image_window","60ce59806a88034d7e9456da","cIcnFJROLSQWqWJFRdD44Al6Exu2","","","","","","","","","","","","","","","","","","","","",""
"html-keyboard-response","186","458308","0.0-77.0","","null","<div style=""font-size:100px;"">+</div>","null","delaylearn","learning","ITI","60ce59806a88034d7e9456da","cIcnFJROLSQWqWJFRdD44Al6Exu2","","","","","","","","","","","","","","","","","","","2166","",""
"html-keyboard-response","187","459653","0.0-78.0-0.0","","1344.1000000000931","<div style=""display: flex; flex-direction: column; align-items: center; margin-top: -40px;""><img src=""images/pattern_1.png"" style=""width: 234px; height: 230px; margin-top: -50px;""><div style=""display: flex; justify-content: space-between; margin-top: 33px;""><img src=""images/choice_trial_14.png"" style=""width: 408px; height: 417px; margin-right: 200px;""><img src=""images/choice_trial_8.png"" style=""width: 408px; height: 417px;""></div></div>","f","delaylearn","learning","trial","60ce59806a88034d7e9456da","cIcnFJROLSQWqWJFRdD44Al6Exu2","3","images/choice_trial_14.png","images/choice_trial_8.png","images/pattern_1.png","f","f","7000","14","8","1","0","34","1","1","14","220","","","","",""
"html-keyboard-response","188","460656","0.0-78.0-1.0","","null","<div style=""display: flex; flex-direction: column; align-items: center; margin-top: -40px;""><img src=""images/pattern_1.png"" style=""width: 234px; height: 230px; margin-top: -50px;""><div style=""display: flex; justify-content: space-between; margin-top: 33px;""><img src=""images/choice_trial_14.png"" style=""width: 408px; height: 417px; margin-right: 608px;""></div></div>","null","delaylearn","learning","display_response","60ce59806a88034d7e9456da","cIcnFJROLSQWqWJFRdD44Al6Exu2","","","","","","","","","","","","","","","","","chosen stimuli: images/choice_trial_14.png","","","",""
"html-keyboard-response","189","467664","0.0-78.0-2.0","","null","","null","delaylearn","learning","feedback_duration_window","60ce59806a88034d7e9456da","cIcnFJROLSQWqWJFRdD44Al6Exu2","","","","","","","","","","","","","","","","","","7000","","",""
"html-keyboard-response","190","469166","0.0-78.0-3.0","","null","<div style='margin:auto;width: auto; font-size: 150%'><span style='font-weight: bold; font-size: 100px; color: green;'>+10 points!</span><br><br></div>","null","delaylearn","learning","feedback_image_window","60ce59806a88034d7e9456da","cIcnFJROLSQWqWJFRdD44Al6Exu2","","","","","","","","","","","","","","","","","","","","",""
"html-keyboard-response","191","469672","0.0-79.0-0.0","","null","","null","","","mood_trial_fixation","","","","","","","","","","","","","","","","","","","","","","",""
"lmdlab-html-vas-response","192","474299","0.0-79.0-1.0","","3617","How happy are you right now?","0.5385802469135802","delaylearn","learning","mood_trial","60ce59806a88034d7e9456da","cIcnFJROLSQWqWJFRdD44Al6Exu2","","","","","","","","","","","","","","","","","","","","[""Very unhappy"",""Very happy""]",""
"html-keyboard-response","193","476065","0.0-80.0","","null","<div style=""font-size:100px;"">+</div>","null","delaylearn","learning","ITI","60ce59806a88034d7e9456da","cIcnFJROLSQWqWJFRdD44Al6Exu2","","","","","","","","","","","","","","","","","","","1759","",""
"html-keyboard-response","194","476904","0.0-81.0-0.0","","837.8999999999069","<div style=""display: flex; flex-direction: column; align-items: center; margin-top: -40px;""><img src=""images/pattern_6.png"" style=""width: 234px; height: 230px; margin-top: -50px;""><div style=""display: flex; justify-content: space-between; margin-top: 33px;""><img src=""images/choice_trial_16.png"" style=""width: 408px; height: 417px; margin-right: 200px;""><img src=""images/choice_trial_3.png"" style=""width: 408px; height: 417px;""></div></div>","j","delaylearn","learning","trial","60ce59806a88034d7e9456da","cIcnFJROLSQWqWJFRdD44Al6Exu2","3","images/choice_trial_16.png","images/choice_trial_3.png","images/pattern_6.png","j","f","750","16","3","5","0","35","0","1","3","230","","","","",""
"html-keyboard-response","195","477909","0.0-81.0-1.0","","null","<div style=""display: flex; flex-direction: column; align-items: center; margin-top: -40px;""><img src=""images/pattern_6.png"" style=""width: 234px; height: 230px; margin-top: -50px;""><div style=""display: flex; justify-content: space-between; margin-top: 33px;""><img src=""images/choice_trial_3.png"" style=""width: 408px; height: 417px; margin-left:608px;""></div></div>","null","delaylearn","learning","display_response","60ce59806a88034d7e9456da","cIcnFJROLSQWqWJFRdD44Al6Exu2","","","","","","","","","","","","","","","","","chosen stimuli: images/choice_trial_3.png","","","",""
"html-keyboard-response","196","478667","0.0-81.0-2.0","","null","","null","delaylearn","learning","feedback_duration_window","60ce59806a88034d7e9456da","cIcnFJROLSQWqWJFRdD44Al6Exu2","","","","","","","","","","","","","","","","","","750","","",""
"html-keyboard-response","197","480169","0.0-81.0-3.0","","null","<div style='margin:auto;width: auto; font-size: 150%'><span style='font-weight: bold; font-size: 100px; color: green;'>+10 points!</span><br><br></div>","null","delaylearn","learning","feedback_image_window","60ce59806a88034d7e9456da","cIcnFJROLSQWqWJFRdD44Al6Exu2","","","","","","","","","","","","","","","","","","","","",""
"html-keyboard-response","198","482648","0.0-82.0","","null","<div style=""font-size:100px;"">+</div>","null","delaylearn","learning","ITI","60ce59806a88034d7e9456da","cIcnFJROLSQWqWJFRdD44Al6Exu2","","","","","","","","","","","","","","","","","","","2468","",""
"html-keyboard-response","199","483450","0.0-83.0-0.0","","799.8999999999069","<div style=""display: flex; flex-direction: column; align-items: center; margin-top: -40px;""><img src=""images/pattern_3.png"" style=""width: 234px; height: 230px; margin-top: -50px;""><div style=""display: flex; justify-content: space-between; margin-top: 33px;""><img src=""images/choice_trial_10.png"" style=""width: 408px; height: 417px; margin-right: 200px;""><img src=""images/choice_trial_13.png"" style=""width: 408px; height: 417px;""></div></div>","j","delaylearn","learning","trial","60ce59806a88034d7e9456da","cIcnFJROLSQWqWJFRdD44Al6Exu2","3","images/choice_trial_10.png","images/choice_trial_13.png","images/pattern_3.png","j","j","7000","10","13","2","1","36","1","1","13","240","","","","",""
"html-keyboard-response","200","484464","0.0-83.0-1.0","","null","<div style=""display: flex; flex-direction: column; align-items: center; margin-top: -40px;""><img src=""images/pattern_3.png"" style=""width: 234px; height: 230px; margin-top: -50px;""><div style=""display: flex; justify-content: space-between; margin-top: 33px;""><img src=""images/choice_trial_13.png"" style=""width: 408px; height: 417px; margin-left:608px;""></div></div>","null","delaylearn","learning","display_response","60ce59806a88034d7e9456da","cIcnFJROLSQWqWJFRdD44Al6Exu2","","","","","","","","","","","","","","","","","chosen stimuli: images/choice_trial_13.png","","","",""
"html-keyboard-response","201","491473","0.0-83.0-2.0","","null","","null","delaylearn","learning","feedback_duration_window","60ce59806a88034d7e9456da","cIcnFJROLSQWqWJFRdD44Al6Exu2","","","","","","","","","","","","","","","","","","7000","","",""
"html-keyboard-response","202","492975","0.0-83.0-3.0","","null","<div style='margin:auto;width: auto; font-size: 150%'><span style='font-weight: bold; font-size: 100px; color: green;'>+10 points!</span><br><br></div>","null","delaylearn","learning","feedback_image_window","60ce59806a88034d7e9456da","cIcnFJROLSQWqWJFRdD44Al6Exu2","","","","","","","","","","","","","","","","","","","","",""
"html-keyboard-response","203","494987","0.0-84.0","","null","<div style=""font-size:100px;"">+</div>","null","delaylearn","learning","ITI","60ce59806a88034d7e9456da","cIcnFJROLSQWqWJFRdD44Al6Exu2","","","","","","","","","","","","","","","","","","","2007","",""
"html-keyboard-response","204","495882","0.0-85.0-0.0","","893.5","<div style=""display: flex; flex-direction: column; align-items: center; margin-top: -40px;""><img src=""images/pattern_4.png"" style=""width: 234px; height: 230px; margin-top: -50px;""><div style=""display: flex; justify-content: space-between; margin-top: 33px;""><img src=""images/choice_trial_9.png"" style=""width: 408px; height: 417px; margin-right: 200px;""><img src=""images/choice_trial_15.png"" style=""width: 408px; height: 417px;""></div></div>","j","delaylearn","learning","trial","60ce59806a88034d7e9456da","cIcnFJROLSQWqWJFRdD44Al6Exu2","3","images/choice_trial_9.png","images/choice_trial_15.png","images/pattern_4.png","f","j","7000","9","15","3","1","37","1","0","15","240","","","","",""
"html-keyboard-response","205","496889","0.0-85.0-1.0","","null","<div style=""display: flex; flex-direction: column; align-items: center; margin-top: -40px;""><img src=""images/pattern_4.png"" style=""width: 234px; height: 230px; margin-top: -50px;""><div style=""display: flex; justify-content: space-between; margin-top: 33px;""><img src=""images/choice_trial_15.png"" style=""width: 408px; height: 417px; margin-left:608px;""></div></div>","null","delaylearn","learning","display_response","60ce59806a88034d7e9456da","cIcnFJROLSQWqWJFRdD44Al6Exu2","","","","","","","","","","","","","","","","","chosen stimuli: images/choice_trial_15.png","","","",""
"html-keyboard-response","206","503893","0.0-85.0-2.0","","null","","null","delaylearn","learning","feedback_duration_window","60ce59806a88034d7e9456da","cIcnFJROLSQWqWJFRdD44Al6Exu2","","","","","","","","","","","","","","","","","","7000","","",""
"html-keyboard-response","207","505395","0.0-85.0-3.0","","null","<div style='margin:auto;width: auto; font-size: 150%'><span style='font-weight: bold; font-size: 100px; color: red;'>0 points!</span><br><br></div>","null","delaylearn","learning","feedback_image_window","60ce59806a88034d7e9456da","cIcnFJROLSQWqWJFRdD44Al6Exu2","","","","","","","","","","","","","","","","","","","","",""
"html-keyboard-response","208","507163","0.0-86.0","","null","<div style=""font-size:100px;"">+</div>","null","delaylearn","learning","ITI","60ce59806a88034d7e9456da","cIcnFJROLSQWqWJFRdD44Al6Exu2","","","","","","","","","","","","","","","","","","","1758","",""
"html-keyboard-response","209","508102","0.0-87.0-0.0","","938","<div style=""display: flex; flex-direction: column; align-items: center; margin-top: -40px;""><img src=""images/pattern_7.png"" style=""width: 234px; height: 230px; margin-top: -50px;""><div style=""display: flex; justify-content: space-between; margin-top: 33px;""><img src=""images/choice_trial_6.png"" style=""width: 408px; height: 417px; margin-right: 200px;""><img src=""images/choice_trial_12.png"" style=""width: 408px; height: 417px;""></div></div>","f","delaylearn","learning","trial","60ce59806a88034d7e9456da","cIcnFJROLSQWqWJFRdD44Al6Exu2","3","images/choice_trial_6.png","images/choice_trial_12.png","images/pattern_7.png","f","f","750","6","12","6","0","38","1","1","6","250","","","","",""
"html-keyboard-response","210","509109","0.0-87.0-1.0","","null","<div style=""display: flex; flex-direction: column; align-items: center; margin-top: -40px;""><img src=""images/pattern_7.png"" style=""width: 234px; height: 230px; margin-top: -50px;""><div style=""display: flex; justify-content: space-between; margin-top: 33px;""><img src=""images/choice_trial_6.png"" style=""width: 408px; height: 417px; margin-right: 608px;""></div></div>","null","delaylearn","learning","display_response","60ce59806a88034d7e9456da","cIcnFJROLSQWqWJFRdD44Al6Exu2","","","","","","","","","","","","","","","","","chosen stimuli: images/choice_trial_6.png","","","",""
"html-keyboard-response","211","509866","0.0-87.0-2.0","","null","","null","delaylearn","learning","feedback_duration_window","60ce59806a88034d7e9456da","cIcnFJROLSQWqWJFRdD44Al6Exu2","","","","","","","","","","","","","","","","","","750","","",""
"html-keyboard-response","212","511382","0.0-87.0-3.0","","null","<div style='margin:auto;width: auto; font-size: 150%'><span style='font-weight: bold; font-size: 100px; color: green;'>+10 points!</span><br><br></div>","null","delaylearn","learning","feedback_image_window","60ce59806a88034d7e9456da","cIcnFJROLSQWqWJFRdD44Al6Exu2","","","","","","","","","","","","","","","","","","","","",""
"html-keyboard-response","213","513685","0.0-88.0","","null","<div style=""font-size:100px;"">+</div>","null","delaylearn","learning","ITI","60ce59806a88034d7e9456da","cIcnFJROLSQWqWJFRdD44Al6Exu2","","","","","","","","","","","","","","","","","","","2299","",""
"html-keyboard-response","214","514907","0.0-89.0-0.0","","1221.3000000002794","<div style=""display: flex; flex-direction: column; align-items: center; margin-top: -40px;""><img src=""images/pattern_1.png"" style=""width: 234px; height: 230px; margin-top: -50px;""><div style=""display: flex; justify-content: space-between; margin-top: 33px;""><img src=""images/choice_trial_14.png"" style=""width: 408px; height: 417px; margin-right: 200px;""><img src=""images/choice_trial_8.png"" style=""width: 408px; height: 417px;""></div></div>","f","delaylearn","learning","trial","60ce59806a88034d7e9456da","cIcnFJROLSQWqWJFRdD44Al6Exu2","3","images/choice_trial_14.png","images/choice_trial_8.png","images/pattern_1.png","f","f","7000","14","8","1","0","39","1","1","14","260","","","","",""
"html-keyboard-response","215","515912","0.0-89.0-1.0","","null","<div style=""display: flex; flex-direction: column; align-items: center; margin-top: -40px;""><img src=""images/pattern_1.png"" style=""width: 234px; height: 230px; margin-top: -50px;""><div style=""display: flex; justify-content: space-between; margin-top: 33px;""><img src=""images/choice_trial_14.png"" style=""width: 408px; height: 417px; margin-right: 608px;""></div></div>","null","delaylearn","learning","display_response","60ce59806a88034d7e9456da","cIcnFJROLSQWqWJFRdD44Al6Exu2","","","","","","","","","","","","","","","","","chosen stimuli: images/choice_trial_14.png","","","",""
"html-keyboard-response","216","522928","0.0-89.0-2.0","","null","","null","delaylearn","learning","feedback_duration_window","60ce59806a88034d7e9456da","cIcnFJROLSQWqWJFRdD44Al6Exu2","","","","","","","","","","","","","","","","","","7000","","",""
"html-keyboard-response","217","524429","0.0-89.0-3.0","","null","<div style='margin:auto;width: auto; font-size: 150%'><span style='font-weight: bold; font-size: 100px; color: green;'>+10 points!</span><br><br></div>","null","delaylearn","learning","feedback_image_window","60ce59806a88034d7e9456da","cIcnFJROLSQWqWJFRdD44Al6Exu2","","","","","","","","","","","","","","","","","","","","",""
"html-keyboard-response","218","524933","0.0-90.0-0.0","","null","","null","","","mood_trial_fixation","","","","","","","","","","","","","","","","","","","","","","",""
"lmdlab-html-vas-response","219","528505","0.0-90.0-1.0","","2559","How happy are you right now?","0.39969135802469136","delaylearn","learning","mood_trial","60ce59806a88034d7e9456da","cIcnFJROLSQWqWJFRdD44Al6Exu2","","","","","","","","","","","","","","","","","","","","[""Very unhappy"",""Very happy""]",""
"html-keyboard-response","220","530443","0.0-91.0","","null","<div style=""font-size:100px;"">+</div>","null","delaylearn","learning","ITI","60ce59806a88034d7e9456da","cIcnFJROLSQWqWJFRdD44Al6Exu2","","","","","","","","","","","","","","","","","","","1936","",""
