"trial_type","trial_index","time_elapsed","internal_node_id","participant","rt","stimulus","response","exp_name","exp_stage","test_part","subjectID","databaseID","counterbal","choice_stimuli_1","choice_stimuli_2","pattern_stimuli","rewarded_answer","correct_answer","feedback_duration_times","stim_left","stim_right","pair","leftright_counter","trial","response_correct","response_rewarded","chosen_stim","counter","displayed_choice","feedback_durations","ITI_duration","labels","rest_warning"
"pavlovia","0","533","0.0-0.0","","","","","","","","","","","","","","","","","","","","","","","","","","","","","",""
"html-keyboard-response","1","3540","0.0-1.0","","null","<div style=""font-size:100px;"">+</div>","null","delaylearn","learning","pre_fixation","610533112a76014519194fea","","","","","","","","","","","","","","","","","","","","","",""
"html-keyboard-response","2","4806","0.0-2.0-0.0","","1256.4000000003725","<div style=""display: flex; flex-direction: column; align-items: center; margin-top: -40px;""><img src=""images/demo_images/pattern_1.png"" style=""width: 234px; height: 230px; margin-top: -50px;""><div style=""display: flex; justify-content: space-between; margin-top: 33px;""><img src=""images/demo_images/choice_trial_2.png"" style=""width: 408px; height: 417px; margin-right: 200px;""><img src=""images/demo_images/choice_trial_1.png"" style=""width: 408px; height: 417px;""></div></div>","j","delaylearn","learning","trial","610533112a76014519194fea","FMpUyQOdradjF3dRgdlmjnjMOGE3","3","images/demo_images/choice_trial_2.png","images/demo_images/choice_trial_1.png","images/demo_images/pattern_1.png","j","j","3000","2","1","20","1","1","1","1","1","10","","","","",""
"html-keyboard-response","3","5822","0.0-2.0-1.0","","null","<div style=""display: flex; flex-direction: column; align-items: center; margin-top: -40px;""><img src=""images/demo_images/pattern_1.png"" style=""width: 234px; height: 230px; margin-top: -50px;""><div style=""display: flex; justify-content: space-between; margin-top: 33px;""><img src=""images/demo_images/choice_trial_1.png"" style=""width: 408px; height: 417px; margin-left:608px;""></div></div>","null","delaylearn","learning","display_response","610533112a76014519194fea","FMpUyQOdradjF3dRgdlmjnjMOGE3","","","","","","","","","","","","","","","","","chosen stimuli: images/demo_images/choice_trial_1.png","","","",""
"html-keyboard-response","4","8826","0.0-2.0-2.0","","null","","null","delaylearn","learning","feedback_duration_window","610533112a76014519194fea","FMpUyQOdradjF3dRgdlmjnjMOGE3","","","","","","","","","","","","","","","","","","3000","","",""
"html-keyboard-response","5","10336","0.0-2.0-3.0","","null","<div style='margin:auto;width: auto; font-size: 150%'><span style='font-weight: bold; font-size: 100px; color: green;'>+10 points!</span><br><br></div>","null","delaylearn","learning","feedback_image_window","610533112a76014519194fea","FMpUyQOdradjF3dRgdlmjnjMOGE3","","","","","","","","","","","","","","","","","","","","",""
"html-keyboard-response","6","12596","0.0-3.0","","null","<div style=""font-size:100px;"">+</div>","null","delaylearn","learning","ITI","610533112a76014519194fea","FMpUyQOdradjF3dRgdlmjnjMOGE3","","","","","","","","","","","","","","","","","","","2255","",""
"html-keyboard-response","7","13262","0.0-4.0-0.0","","656.0999999996275","<div style=""display: flex; flex-direction: column; align-items: center; margin-top: -40px;""><img src=""images/demo_images/pattern_1.png"" style=""width: 234px; height: 230px; margin-top: -50px;""><div style=""display: flex; justify-content: space-between; margin-top: 33px;""><img src=""images/demo_images/choice_trial_2.png"" style=""width: 408px; height: 417px; margin-right: 200px;""><img src=""images/demo_images/choice_trial_1.png"" style=""width: 408px; height: 417px;""></div></div>","j","delaylearn","learning","trial","610533112a76014519194fea","FMpUyQOdradjF3dRgdlmjnjMOGE3","3","images/demo_images/choice_trial_2.png","images/demo_images/choice_trial_1.png","images/demo_images/pattern_1.png","j","j","3000","2","1","20","1","2","1","1","1","20","","","","",""
"html-keyboard-response","8","14271","0.0-4.0-1.0","","null","<div style=""display: flex; flex-direction: column; align-items: center; margin-top: -40px;""><img src=""images/demo_images/pattern_1.png"" style=""width: 234px; height: 230px; margin-top: -50px;""><div style=""display: flex; justify-content: space-between; margin-top: 33px;""><img src=""images/demo_images/choice_trial_1.png"" style=""width: 408px; height: 417px; margin-left:608px;""></div></div>","null","delaylearn","learning","display_response","610533112a76014519194fea","FMpUyQOdradjF3dRgdlmjnjMOGE3","","","","","","","","","","","","","","","","","chosen stimuli: images/demo_images/choice_trial_1.png","","","",""
"html-keyboard-response","9","17278","0.0-4.0-2.0","","null","","null","delaylearn","learning","feedback_duration_window","610533112a76014519194fea","FMpUyQOdradjF3dRgdlmjnjMOGE3","","","","","","","","","","","","","","","","","","3000","","",""
"html-keyboard-response","10","18786","0.0-4.0-3.0","","null","<div style='margin:auto;width: auto; font-size: 150%'><span style='font-weight: bold; font-size: 100px; color: green;'>+10 points!</span><br><br></div>","null","delaylearn","learning","feedback_image_window","610533112a76014519194fea","FMpUyQOdradjF3dRgdlmjnjMOGE3","","","","","","","","","","","","","","","","","","","","",""
"html-keyboard-response","11","20906","0.0-5.0","","null","<div style=""font-size:100px;"">+</div>","null","delaylearn","learning","ITI","610533112a76014519194fea","FMpUyQOdradjF3dRgdlmjnjMOGE3","","","","","","","","","","","","","","","","","","","2116","",""
"html-keyboard-response","12","21767","0.0-6.0-0.0","","853.2000000011176","<div style=""display: flex; flex-direction: column; align-items: center; margin-top: -40px;""><img src=""images/demo_images/pattern_1.png"" style=""width: 234px; height: 230px; margin-top: -50px;""><div style=""display: flex; justify-content: space-between; margin-top: 33px;""><img src=""images/demo_images/choice_trial_1.png"" style=""width: 408px; height: 417px; margin-right: 200px;""><img src=""images/demo_images/choice_trial_2.png"" style=""width: 408px; height: 417px;""></div></div>","f","delaylearn","learning","trial","610533112a76014519194fea","FMpUyQOdradjF3dRgdlmjnjMOGE3","3","images/demo_images/choice_trial_1.png","images/demo_images/choice_trial_2.png","images/demo_images/pattern_1.png","j","f","3000","1","2","20","0","3","1","0","1","20","","","","",""
"html-keyboard-response","13","22773","0.0-6.0-1.0","","null","<div style=""display: flex; flex-direction: column; align-items: center; margin-top: -40px;""><img src=""images/demo_images/pattern_1.png"" style=""width: 234px; height: 230px; margin-top: -50px;""><div style=""display: flex; justify-content: space-between; margin-top: 33px;""><img src=""images/demo_images/choice_trial_1.png"" style=""width: 408px; height: 417px; margin-right: 608px;""></div></div>","null","delaylearn","learning","display_response","610533112a76014519194fea","FMpUyQOdradjF3dRgdlmjnjMOGE3","","","","","","","","","","","","","","","","","chosen stimuli: images/demo_images/choice_trial_1.png","","","",""
"html-keyboard-response","14","25781","0.0-6.0-2.0","","null","","null","delaylearn","learning","feedback_duration_window","610533112a76014519194fea","FMpUyQOdradjF3dRgdlmjnjMOGE3","","","","","","","","","","","","","","","","","","3000","","",""
"html-keyboard-response","15","27292","0.0-6.0-3.0","","null","<div style='margin:auto;width: auto; font-size: 150%'><span style='font-weight: bold; font-size: 100px; color: red;'>0 points!</span><br><br></div>","null","delaylearn","learning","feedback_image_window","610533112a76014519194fea","FMpUyQOdradjF3dRgdlmjnjMOGE3","","","","","","","","","","","","","","","","","","","","",""
"html-keyboard-response","16","29375","0.0-7.0","","null","<div style=""font-size:100px;"">+</div>","null","delaylearn","learning","ITI","610533112a76014519194fea","FMpUyQOdradjF3dRgdlmjnjMOGE3","","","","","","","","","","","","","","","","","","","2078","",""
"html-keyboard-response","17","29975","0.0-8.0-0.0","","589.8000000007451","<div style=""display: flex; flex-direction: column; align-items: center; margin-top: -40px;""><img src=""images/demo_images/pattern_1.png"" style=""width: 234px; height: 230px; margin-top: -50px;""><div style=""display: flex; justify-content: space-between; margin-top: 33px;""><img src=""images/demo_images/choice_trial_1.png"" style=""width: 408px; height: 417px; margin-right: 200px;""><img src=""images/demo_images/choice_trial_2.png"" style=""width: 408px; height: 417px;""></div></div>","j","delaylearn","learning","trial","610533112a76014519194fea","FMpUyQOdradjF3dRgdlmjnjMOGE3","3","images/demo_images/choice_trial_1.png","images/demo_images/choice_trial_2.png","images/demo_images/pattern_1.png","f","f","3000","1","2","20","0","4","0","0","2","20","","","","",""
"html-keyboard-response","18","30984","0.0-8.0-1.0","","null","<div style=""display: flex; flex-direction: column; align-items: center; margin-top: -40px;""><img src=""images/demo_images/pattern_1.png"" style=""width: 234px; height: 230px; margin-top: -50px;""><div style=""display: flex; justify-content: space-between; margin-top: 33px;""><img src=""images/demo_images/choice_trial_2.png"" style=""width: 408px; height: 417px; margin-left:608px;""></div></div>","null","delaylearn","learning","display_response","610533112a76014519194fea","FMpUyQOdradjF3dRgdlmjnjMOGE3","","","","","","","","","","","","","","","","","chosen stimuli: images/demo_images/choice_trial_2.png","","","",""
"html-keyboard-response","19","33988","0.0-8.0-2.0","","null","","null","delaylearn","learning","feedback_duration_window","610533112a76014519194fea","FMpUyQOdradjF3dRgdlmjnjMOGE3","","","","","","","","","","","","","","","","","","3000","","",""
"html-keyboard-response","20","35494","0.0-8.0-3.0","","null","<div style='margin:auto;width: auto; font-size: 150%'><span style='font-weight: bold; font-size: 100px; color: red;'>0 points!</span><br><br></div>","null","delaylearn","learning","feedback_image_window","610533112a76014519194fea","FMpUyQOdradjF3dRgdlmjnjMOGE3","","","","","","","","","","","","","","","","","","","","",""
"html-keyboard-response","21","35998","0.0-9.0-0.0","","null","","null","","","mood_trial_fixation","","","","","","","","","","","","","","","","","","","","","","",""
"lmdlab-html-vas-response","22","41048","0.0-9.0-1.0","","3996","How happy are you right now?","0.40887044267276174","delaylearn","learning","mood_trial","610533112a76014519194fea","FMpUyQOdradjF3dRgdlmjnjMOGE3","","","","","","","","","","","","","","","","","","","","[""Very unhappy"",""Very happy""]",""
"html-keyboard-response","23","43442","0.0-10.0","","null","<div style=""font-size:100px;"">+</div>","null","delaylearn","learning","ITI","610533112a76014519194fea","FMpUyQOdradjF3dRgdlmjnjMOGE3","","","","","","","","","","","","","","","","","","","2388","",""
"html-keyboard-response","24","44267","0.0-11.0-0.0","","813.1999999992549","<div style=""display: flex; flex-direction: column; align-items: center; margin-top: -40px;""><img src=""images/demo_images/pattern_1.png"" style=""width: 234px; height: 230px; margin-top: -50px;""><div style=""display: flex; justify-content: space-between; margin-top: 33px;""><img src=""images/demo_images/choice_trial_2.png"" style=""width: 408px; height: 417px; margin-right: 200px;""><img src=""images/demo_images/choice_trial_1.png"" style=""width: 408px; height: 417px;""></div></div>","j","delaylearn","learning","trial","610533112a76014519194fea","FMpUyQOdradjF3dRgdlmjnjMOGE3","3","images/demo_images/choice_trial_2.png","images/demo_images/choice_trial_1.png","images/demo_images/pattern_1.png","j","j","3000","2","1","20","1","5","1","1","1","30","","","","",""
"html-keyboard-response","25","45275","0.0-11.0-1.0","","null","<div style=""display: flex; flex-direction: column; align-items: center; margin-top: -40px;""><img src=""images/demo_images/pattern_1.png"" style=""width: 234px; height: 230px; margin-top: -50px;""><div style=""display: flex; justify-content: space-between; margin-top: 33px;""><img src=""images/demo_images/choice_trial_1.png"" style=""width: 408px; height: 417px; margin-left:608px;""></div></div>","null","delaylearn","learning","display_response","610533112a76014519194fea","FMpUyQOdradjF3dRgdlmjnjMOGE3","","","","","","","","","","","","","","","","","chosen stimuli: images/demo_images/choice_trial_1.png","","","",""
"html-keyboard-response","26","48281","0.0-11.0-2.0","","null","","null","delaylearn","learning","feedback_duration_window","610533112a76014519194fea","FMpUyQOdradjF3dRgdlmjnjMOGE3","","","","","","","","","","","","","","","","","","3000","","",""
"html-keyboard-response","27","49789","0.0-11.0-3.0","","null","<div style='margin:auto;width: auto; font-size: 150%'><span style='font-weight: bold; font-size: 100px; color: green;'>+10 points!</span><br><br></div>","null","delaylearn","learning","feedback_image_window","610533112a76014519194fea","FMpUyQOdradjF3dRgdlmjnjMOGE3","","","","","","","","","","","","","","","","","","","","",""
"html-keyboard-response","28","51319","0.0-12.0","","null","<div style=""font-size:100px;"">+</div>","null","delaylearn","learning","ITI","610533112a76014519194fea","FMpUyQOdradjF3dRgdlmjnjMOGE3","","","","","","","","","","","","","","","","","","","1527","",""
"html-keyboard-response","29","52156","0.0-13.0-0.0","","820.3000000007451","<div style=""display: flex; flex-direction: column; align-items: center; margin-top: -40px;""><img src=""images/demo_images/pattern_1.png"" style=""width: 234px; height: 230px; margin-top: -50px;""><div style=""display: flex; justify-content: space-between; margin-top: 33px;""><img src=""images/demo_images/choice_trial_1.png"" style=""width: 408px; height: 417px; margin-right: 200px;""><img src=""images/demo_images/choice_trial_2.png"" style=""width: 408px; height: 417px;""></div></div>","f","delaylearn","learning","trial","610533112a76014519194fea","FMpUyQOdradjF3dRgdlmjnjMOGE3","3","images/demo_images/choice_trial_1.png","images/demo_images/choice_trial_2.png","images/demo_images/pattern_1.png","f","f","3000","1","2","20","0","6","1","1","1","40","","","","",""
"html-keyboard-response","30","53163","0.0-13.0-1.0","","null","<div style=""display: flex; flex-direction: column; align-items: center; margin-top: -40px;""><img src=""images/demo_images/pattern_1.png"" style=""width: 234px; height: 230px; margin-top: -50px;""><div style=""display: flex; justify-content: space-between; margin-top: 33px;""><img src=""images/demo_images/choice_trial_1.png"" style=""width: 408px; height: 417px; margin-right: 608px;""></div></div>","null","delaylearn","learning","display_response","610533112a76014519194fea","FMpUyQOdradjF3dRgdlmjnjMOGE3","","","","","","","","","","","","","","","","","chosen stimuli: images/demo_images/choice_trial_1.png","","","",""
"html-keyboard-response","31","56169","0.0-13.0-2.0","","null","","null","delaylearn","learning","feedback_duration_window","610533112a76014519194fea","FMpUyQOdradjF3dRgdlmjnjMOGE3","","","","","","","","","","","","","","","","","","3000","","",""
"html-keyboard-response","32","57677","0.0-13.0-3.0","","null","<div style='margin:auto;width: auto; font-size: 150%'><span style='font-weight: bold; font-size: 100px; color: green;'>+10 points!</span><br><br></div>","null","delaylearn","learning","feedback_image_window","610533112a76014519194fea","FMpUyQOdradjF3dRgdlmjnjMOGE3","","","","","","","","","","","","","","","","","","","","",""
"html-keyboard-response","33","60043","0.0-14.0","","null","<div style=""font-size:100px;"">+</div>","null","delaylearn","learning","ITI","610533112a76014519194fea","FMpUyQOdradjF3dRgdlmjnjMOGE3","","","","","","","","","","","","","","","","","","","2361","",""
"html-keyboard-response","34","60649","0.0-15.0-0.0","","595.2000000011176","<div style=""display: flex; flex-direction: column; align-items: center; margin-top: -40px;""><img src=""images/demo_images/pattern_1.png"" style=""width: 234px; height: 230px; margin-top: -50px;""><div style=""display: flex; justify-content: space-between; margin-top: 33px;""><img src=""images/demo_images/choice_trial_2.png"" style=""width: 408px; height: 417px; margin-right: 200px;""><img src=""images/demo_images/choice_trial_1.png"" style=""width: 408px; height: 417px;""></div></div>","j","delaylearn","learning","trial","610533112a76014519194fea","FMpUyQOdradjF3dRgdlmjnjMOGE3","3","images/demo_images/choice_trial_2.png","images/demo_images/choice_trial_1.png","images/demo_images/pattern_1.png","j","j","3000","2","1","20","1","7","1","1","1","50","","","","",""
"html-keyboard-response","35","61659","0.0-15.0-1.0","","null","<div style=""display: flex; flex-direction: column; align-items: center; margin-top: -40px;""><img src=""images/demo_images/pattern_1.png"" style=""width: 234px; height: 230px; margin-top: -50px;""><div style=""display: flex; justify-content: space-between; margin-top: 33px;""><img src=""images/demo_images/choice_trial_1.png"" style=""width: 408px; height: 417px; margin-left:608px;""></div></div>","null","delaylearn","learning","display_response","610533112a76014519194fea","FMpUyQOdradjF3dRgdlmjnjMOGE3","","","","","","","","","","","","","","","","","chosen stimuli: images/demo_images/choice_trial_1.png","","","",""
"html-keyboard-response","36","64665","0.0-15.0-2.0","","null","","null","delaylearn","learning","feedback_duration_window","610533112a76014519194fea","FMpUyQOdradjF3dRgdlmjnjMOGE3","","","","","","","","","","","","","","","","","","3000","","",""
"html-keyboard-response","37","66175","0.0-15.0-3.0","","null","<div style='margin:auto;width: auto; font-size: 150%'><span style='font-weight: bold; font-size: 100px; color: green;'>+10 points!</span><br><br></div>","null","delaylearn","learning","feedback_image_window","610533112a76014519194fea","FMpUyQOdradjF3dRgdlmjnjMOGE3","","","","","","","","","","","","","","","","","","","","",""
"html-keyboard-response","38","67772","0.0-16.0","","null","<div style=""font-size:100px;"">+</div>","null","delaylearn","learning","ITI","610533112a76014519194fea","FMpUyQOdradjF3dRgdlmjnjMOGE3","","","","","","","","","","","","","","","","","","","1594","",""
"html-keyboard-response","39","68275","0.0-17.0-0.0","","493.2000000011176","<div style=""display: flex; flex-direction: column; align-items: center; margin-top: -40px;""><img src=""images/demo_images/pattern_1.png"" style=""width: 234px; height: 230px; margin-top: -50px;""><div style=""display: flex; justify-content: space-between; margin-top: 33px;""><img src=""images/demo_images/choice_trial_1.png"" style=""width: 408px; height: 417px; margin-right: 200px;""><img src=""images/demo_images/choice_trial_2.png"" style=""width: 408px; height: 417px;""></div></div>","f","delaylearn","learning","trial","610533112a76014519194fea","FMpUyQOdradjF3dRgdlmjnjMOGE3","3","images/demo_images/choice_trial_1.png","images/demo_images/choice_trial_2.png","images/demo_images/pattern_1.png","f","f","3000","1","2","20","0","8","1","1","1","60","","","","",""
"html-keyboard-response","40","69281","0.0-17.0-1.0","","null","<div style=""display: flex; flex-direction: column; align-items: center; margin-top: -40px;""><img src=""images/demo_images/pattern_1.png"" style=""width: 234px; height: 230px; margin-top: -50px;""><div style=""display: flex; justify-content: space-between; margin-top: 33px;""><img src=""images/demo_images/choice_trial_1.png"" style=""width: 408px; height: 417px; margin-right: 608px;""></div></div>","null","delaylearn","learning","display_response","610533112a76014519194fea","FMpUyQOdradjF3dRgdlmjnjMOGE3","","","","","","","","","","","","","","","","","chosen stimuli: images/demo_images/choice_trial_1.png","","","",""
"html-keyboard-response","41","72287","0.0-17.0-2.0","","null","","null","delaylearn","learning","feedback_duration_window","610533112a76014519194fea","FMpUyQOdradjF3dRgdlmjnjMOGE3","","","","","","","","","","","","","","","","","","3000","","",""
"html-keyboard-response","42","73795","0.0-17.0-3.0","","null","<div style='margin:auto;width: auto; font-size: 150%'><span style='font-weight: bold; font-size: 100px; color: green;'>+10 points!</span><br><br></div>","null","delaylearn","learning","feedback_image_window","610533112a76014519194fea","FMpUyQOdradjF3dRgdlmjnjMOGE3","","","","","","","","","","","","","","","","","","","","",""
"html-button-response","43","75924","0.0-18.0","","2122.4000000003725","
  <div style=""display: flex; align-items: center; justify-content: center; height: 80vh;"">
  <div>
          <img src=""images/inst_demo_finish.png"" style=""width: 80vw; height:auto;"">
          <br><br>
      </div>
      <br><br>
  </div>","0","","","","","","","","","","","","","","","","","","","","","","","","","",""
"html-keyboard-response","44","79534","0.0-19.0","","3606.2999999988824","
  <div style=""display: flex; align-items: center; justify-content: center; height: 80vh;"">
  <div>
          <img src=""images/inst_6.png"" style=""width: 80vw; height:auto;"">
          <br><br>
      </div>
      <br><br>
  </div>","j","","","","","","","","","","","","","","","","","","","","","","","","","",""
"html-keyboard-response","45","82539","0.0-20.0","","null","<div style=""font-size:100px;"">+</div>","null","delaylearn","learning","pre_fixation","610533112a76014519194fea","","","","","","","","","","","","","","","","","","","","","",""
"html-keyboard-response","46","84845","0.0-21.0","","null","<div style=""font-size:100px;"">+</div>","null","delaylearn","learning","ITI","610533112a76014519194fea","FMpUyQOdradjF3dRgdlmjnjMOGE3","","","","","","","","","","","","","","","","","","","2300","",""
"html-keyboard-response","47","85908","0.0-22.0-0.0","","1050.5","<div style=""display: flex; flex-direction: column; align-items: center; margin-top: -40px;""><img src=""images/pattern_3.png"" style=""width: 234px; height: 230px; margin-top: -50px;""><div style=""display: flex; justify-content: space-between; margin-top: 33px;""><img src=""images/choice_trial_13.png"" style=""width: 408px; height: 417px; margin-right: 200px;""><img src=""images/choice_trial_10.png"" style=""width: 408px; height: 417px;""></div></div>","f","delaylearn","learning","trial","610533112a76014519194fea","FMpUyQOdradjF3dRgdlmjnjMOGE3","3","images/choice_trial_13.png","images/choice_trial_10.png","images/pattern_3.png","f","f","7000","13","10","2","0","9","1","1","13","70","","","","",""
"html-keyboard-response","48","86917","0.0-22.0-1.0","","null","<div style=""display: flex; flex-direction: column; align-items: center; margin-top: -40px;""><img src=""images/pattern_3.png"" style=""width: 234px; height: 230px; margin-top: -50px;""><div style=""display: flex; justify-content: space-between; margin-top: 33px;""><img src=""images/choice_trial_13.png"" style=""width: 408px; height: 417px; margin-right: 608px;""></div></div>","null","delaylearn","learning","display_response","610533112a76014519194fea","FMpUyQOdradjF3dRgdlmjnjMOGE3","","","","","","","","","","","","","","","","","chosen stimuli: images/choice_trial_13.png","","","",""
"html-keyboard-response","49","93923","0.0-22.0-2.0","","null","","null","delaylearn","learning","feedback_duration_window","610533112a76014519194fea","FMpUyQOdradjF3dRgdlmjnjMOGE3","","","","","","","","","","","","","","","","","","7000","","",""
"html-keyboard-response","50","95428","0.0-22.0-3.0","","null","<div style='margin:auto;width: auto; font-size: 150%'><span style='font-weight: bold; font-size: 100px; color: green;'>+10 points!</span><br><br></div>","null","delaylearn","learning","feedback_image_window","610533112a76014519194fea","FMpUyQOdradjF3dRgdlmjnjMOGE3","","","","","","","","","","","","","","","","","","","","",""
"html-keyboard-response","51","97856","0.0-23.0","","null","<div style=""font-size:100px;"">+</div>","null","delaylearn","learning","ITI","610533112a76014519194fea","FMpUyQOdradjF3dRgdlmjnjMOGE3","","","","","","","","","","","","","","","","","","","2422","",""
"html-keyboard-response","52","99097","0.0-24.0-0.0","","1231","<div style=""display: flex; flex-direction: column; align-items: center; margin-top: -40px;""><img src=""images/pattern_7.png"" style=""width: 234px; height: 230px; margin-top: -50px;""><div style=""display: flex; justify-content: space-between; margin-top: 33px;""><img src=""images/choice_trial_12.png"" style=""width: 408px; height: 417px; margin-right: 200px;""><img src=""images/choice_trial_6.png"" style=""width: 408px; height: 417px;""></div></div>","j","delaylearn","learning","trial","610533112a76014519194fea","FMpUyQOdradjF3dRgdlmjnjMOGE3","3","images/choice_trial_12.png","images/choice_trial_6.png","images/pattern_7.png","j","j","750","12","6","6","1","10","1","1","6","80","","","","",""
"html-keyboard-response","53","100103","0.0-24.0-1.0","","null","<div style=""display: flex; flex-direction: column; align-items: center; margin-top: -40px;""><img src=""images/pattern_7.png"" style=""width: 234px; height: 230px; margin-top: -50px;""><div style=""display: flex; justify-content: space-between; margin-top: 33px;""><img src=""images/choice_trial_6.png"" style=""width: 408px; height: 417px; margin-left:608px;""></div></div>","null","delaylearn","learning","display_response","610533112a76014519194fea","FMpUyQOdradjF3dRgdlmjnjMOGE3","","","","","","","","","","","","","","","","","chosen stimuli: images/choice_trial_6.png","","","",""
"html-keyboard-response","54","100860","0.0-24.0-2.0","","null","","null","delaylearn","learning","feedback_duration_window","610533112a76014519194fea","FMpUyQOdradjF3dRgdlmjnjMOGE3","","","","","","","","","","","","","","","","","","750","","",""
"html-keyboard-response","55","102371","0.0-24.0-3.0","","null","<div style='margin:auto;width: auto; font-size: 150%'><span style='font-weight: bold; font-size: 100px; color: green;'>+10 points!</span><br><br></div>","null","delaylearn","learning","feedback_image_window","610533112a76014519194fea","FMpUyQOdradjF3dRgdlmjnjMOGE3","","","","","","","","","","","","","","","","","","","","",""
"html-keyboard-response","56","104080","0.0-25.0","","null","<div style=""font-size:100px;"">+</div>","null","delaylearn","learning","ITI","610533112a76014519194fea","FMpUyQOdradjF3dRgdlmjnjMOGE3","","","","","","","","","","","","","","","","","","","1705","",""
"html-keyboard-response","57","105299","0.0-26.0-0.0","","1212.9000000003725","<div style=""display: flex; flex-direction: column; align-items: center; margin-top: -40px;""><img src=""images/pattern_4.png"" style=""width: 234px; height: 230px; margin-top: -50px;""><div style=""display: flex; justify-content: space-between; margin-top: 33px;""><img src=""images/choice_trial_15.png"" style=""width: 408px; height: 417px; margin-right: 200px;""><img src=""images/choice_trial_9.png"" style=""width: 408px; height: 417px;""></div></div>","j","delaylearn","learning","trial","610533112a76014519194fea","FMpUyQOdradjF3dRgdlmjnjMOGE3","3","images/choice_trial_15.png","images/choice_trial_9.png","images/pattern_4.png","f","f","7000","15","9","3","0","11","0","0","9","80","","","","",""
"html-keyboard-response","58","106309","0.0-26.0-1.0","","null","<div style=""display: flex; flex-direction: column; align-items: center; margin-top: -40px;""><img src=""images/pattern_4.png"" style=""width: 234px; height: 230px; margin-top: -50px;""><div style=""display: flex; justify-content: space-between; margin-top: 33px;""><img src=""images/choice_trial_9.png"" style=""width: 408px; height: 417px; margin-left:608px;""></div></div>","null","delaylearn","learning","display_response","610533112a76014519194fea","FMpUyQOdradjF3dRgdlmjnjMOGE3","","","","","","","","","","","","","","","","","chosen stimuli: images/choice_trial_9.png","","","",""
"html-keyboard-response","59","113317","0.0-26.0-2.0","","null","","null","delaylearn","learning","feedback_duration_window","610533112a76014519194fea","FMpUyQOdradjF3dRgdlmjnjMOGE3","","","","","","","","","","","","","","","","","","7000","","",""
"html-keyboard-response","60","114825","0.0-26.0-3.0","","null","<div style='margin:auto;width: auto; font-size: 150%'><span style='font-weight: bold; font-size: 100px; color: red;'>0 points!</span><br><br></div>","null","delaylearn","learning","feedback_image_window","610533112a76014519194fea","FMpUyQOdradjF3dRgdlmjnjMOGE3","","","","","","","","","","","","","","","","","","","","",""
"html-keyboard-response","61","116761","0.0-27.0","","null","<div style=""font-size:100px;"">+</div>","null","delaylearn","learning","ITI","610533112a76014519194fea","FMpUyQOdradjF3dRgdlmjnjMOGE3","","","","","","","","","","","","","","","","","","","1931","",""
"html-keyboard-response","62","118646","0.0-28.0-0.0","","1871.5","<div style=""display: flex; flex-direction: column; align-items: center; margin-top: -40px;""><img src=""images/pattern_5.png"" style=""width: 234px; height: 230px; margin-top: -50px;""><div style=""display: flex; justify-content: space-between; margin-top: 33px;""><img src=""images/choice_trial_2.png"" style=""width: 408px; height: 417px; margin-right: 200px;""><img src=""images/choice_trial_11.png"" style=""width: 408px; height: 417px;""></div></div>","j","delaylearn","learning","trial","610533112a76014519194fea","FMpUyQOdradjF3dRgdlmjnjMOGE3","3","images/choice_trial_2.png","images/choice_trial_11.png","images/pattern_5.png","j","j","750","2","11","4","1","12","1","1","11","90","","","","",""
"html-keyboard-response","63","119652","0.0-28.0-1.0","","null","<div style=""display: flex; flex-direction: column; align-items: center; margin-top: -40px;""><img src=""images/pattern_5.png"" style=""width: 234px; height: 230px; margin-top: -50px;""><div style=""display: flex; justify-content: space-between; margin-top: 33px;""><img src=""images/choice_trial_11.png"" style=""width: 408px; height: 417px; margin-left:608px;""></div></div>","null","delaylearn","learning","display_response","610533112a76014519194fea","FMpUyQOdradjF3dRgdlmjnjMOGE3","","","","","","","","","","","","","","","","","chosen stimuli: images/choice_trial_11.png","","","",""
"html-keyboard-response","64","120410","0.0-28.0-2.0","","null","","null","delaylearn","learning","feedback_duration_window","610533112a76014519194fea","FMpUyQOdradjF3dRgdlmjnjMOGE3","","","","","","","","","","","","","","","","","","750","","",""
"html-keyboard-response","65","121920","0.0-28.0-3.0","","null","<div style='margin:auto;width: auto; font-size: 150%'><span style='font-weight: bold; font-size: 100px; color: green;'>+10 points!</span><br><br></div>","null","delaylearn","learning","feedback_image_window","610533112a76014519194fea","FMpUyQOdradjF3dRgdlmjnjMOGE3","","","","","","","","","","","","","","","","","","","","",""
"html-keyboard-response","66","123758","0.0-29.0","","null","<div style=""font-size:100px;"">+</div>","null","delaylearn","learning","ITI","610533112a76014519194fea","FMpUyQOdradjF3dRgdlmjnjMOGE3","","","","","","","","","","","","","","","","","","","1831","",""
"html-keyboard-response","67","125294","0.0-30.0-0.0","","1523.9000000003725","<div style=""display: flex; flex-direction: column; align-items: center; margin-top: -40px;""><img src=""images/pattern_6.png"" style=""width: 234px; height: 230px; margin-top: -50px;""><div style=""display: flex; justify-content: space-between; margin-top: 33px;""><img src=""images/choice_trial_16.png"" style=""width: 408px; height: 417px; margin-right: 200px;""><img src=""images/choice_trial_3.png"" style=""width: 408px; height: 417px;""></div></div>","f","delaylearn","learning","trial","610533112a76014519194fea","FMpUyQOdradjF3dRgdlmjnjMOGE3","3","images/choice_trial_16.png","images/choice_trial_3.png","images/pattern_6.png","j","f","750","16","3","5","0","13","1","0","16","90","","","","",""
"html-keyboard-response","68","126303","0.0-30.0-1.0","","null","<div style=""display: flex; flex-direction: column; align-items: center; margin-top: -40px;""><img src=""images/pattern_6.png"" style=""width: 234px; height: 230px; margin-top: -50px;""><div style=""display: flex; justify-content: space-between; margin-top: 33px;""><img src=""images/choice_trial_16.png"" style=""width: 408px; height: 417px; margin-right: 608px;""></div></div>","null","delaylearn","learning","display_response","610533112a76014519194fea","FMpUyQOdradjF3dRgdlmjnjMOGE3","","","","","","","","","","","","","","","","","chosen stimuli: images/choice_trial_16.png","","","",""
"html-keyboard-response","69","127062","0.0-30.0-2.0","","null","","null","delaylearn","learning","feedback_duration_window","610533112a76014519194fea","FMpUyQOdradjF3dRgdlmjnjMOGE3","","","","","","","","","","","","","","","","","","750","","",""
"html-keyboard-response","70","128570","0.0-30.0-3.0","","null","<div style='margin:auto;width: auto; font-size: 150%'><span style='font-weight: bold; font-size: 100px; color: red;'>0 points!</span><br><br></div>","null","delaylearn","learning","feedback_image_window","610533112a76014519194fea","FMpUyQOdradjF3dRgdlmjnjMOGE3","","","","","","","","","","","","","","","","","","","","",""
"html-keyboard-response","71","129075","0.0-31.0-0.0","","null","","null","","","mood_trial_fixation","","","","","","","","","","","","","","","","","","","","","","",""
"lmdlab-html-vas-response","72","132984","0.0-31.0-1.0","","2883","How happy are you right now?","0.3437658387989504","delaylearn","learning","mood_trial","610533112a76014519194fea","FMpUyQOdradjF3dRgdlmjnjMOGE3","","","","","","","","","","","","","","","","","","","","[""Very unhappy"",""Very happy""]",""
"html-keyboard-response","73","135410","0.0-32.0","","null","<div style=""font-size:100px;"">+</div>","null","delaylearn","learning","ITI","610533112a76014519194fea","FMpUyQOdradjF3dRgdlmjnjMOGE3","","","","","","","","","","","","","","","","","","","2420","",""
"html-keyboard-response","74","136998","0.0-33.0-0.0","","1577.800000000745","<div style=""display: flex; flex-direction: column; align-items: center; margin-top: -40px;""><img src=""images/pattern_1.png"" style=""width: 234px; height: 230px; margin-top: -50px;""><div style=""display: flex; justify-content: space-between; margin-top: 33px;""><img src=""images/choice_trial_8.png"" style=""width: 408px; height: 417px; margin-right: 200px;""><img src=""images/choice_trial_14.png"" style=""width: 408px; height: 417px;""></div></div>","j","delaylearn","learning","trial","610533112a76014519194fea","FMpUyQOdradjF3dRgdlmjnjMOGE3","3","images/choice_trial_8.png","images/choice_trial_14.png","images/pattern_1.png","j","j","7000","8","14","1","1","14","1","1","14","100","","","","",""
"html-keyboard-response","75","138006","0.0-33.0-1.0","","null","<div style=""display: flex; flex-direction: column; align-items: center; margin-top: -40px;""><img src=""images/pattern_1.png"" style=""width: 234px; height: 230px; margin-top: -50px;""><div style=""display: flex; justify-content: space-between; margin-top: 33px;""><img src=""images/choice_trial_14.png"" style=""width: 408px; height: 417px; margin-left:608px;""></div></div>","null","delaylearn","learning","display_response","610533112a76014519194fea","FMpUyQOdradjF3dRgdlmjnjMOGE3","","","","","","","","","","","","","","","","","chosen stimuli: images/choice_trial_14.png","","","",""
"html-keyboard-response","76","145013","0.0-33.0-2.0","","null","","null","delaylearn","learning","feedback_duration_window","610533112a76014519194fea","FMpUyQOdradjF3dRgdlmjnjMOGE3","","","","","","","","","","","","","","","","","","7000","","",""
"html-keyboard-response","77","146519","0.0-33.0-3.0","","null","<div style='margin:auto;width: auto; font-size: 150%'><span style='font-weight: bold; font-size: 100px; color: green;'>+10 points!</span><br><br></div>","null","delaylearn","learning","feedback_image_window","610533112a76014519194fea","FMpUyQOdradjF3dRgdlmjnjMOGE3","","","","","","","","","","","","","","","","","","","","",""
"html-keyboard-response","78","148964","0.0-34.0","","null","<div style=""font-size:100px;"">+</div>","null","delaylearn","learning","ITI","610533112a76014519194fea","FMpUyQOdradjF3dRgdlmjnjMOGE3","","","","","","","","","","","","","","","","","","","2440","",""
"html-keyboard-response","79","150023","0.0-35.0-0.0","","1047.800000000745","<div style=""display: flex; flex-direction: column; align-items: center; margin-top: -40px;""><img src=""images/pattern_3.png"" style=""width: 234px; height: 230px; margin-top: -50px;""><div style=""display: flex; justify-content: space-between; margin-top: 33px;""><img src=""images/choice_trial_10.png"" style=""width: 408px; height: 417px; margin-right: 200px;""><img src=""images/choice_trial_13.png"" style=""width: 408px; height: 417px;""></div></div>","j","delaylearn","learning","trial","610533112a76014519194fea","FMpUyQOdradjF3dRgdlmjnjMOGE3","3","images/choice_trial_10.png","images/choice_trial_13.png","images/pattern_3.png","f","j","7000","10","13","2","1","15","1","0","13","100","","","","",""
"html-keyboard-response","80","151029","0.0-35.0-1.0","","null","<div style=""display: flex; flex-direction: column; align-items: center; margin-top: -40px;""><img src=""images/pattern_3.png"" style=""width: 234px; height: 230px; margin-top: -50px;""><div style=""display: flex; justify-content: space-between; margin-top: 33px;""><img src=""images/choice_trial_13.png"" style=""width: 408px; height: 417px; margin-left:608px;""></div></div>","null","delaylearn","learning","display_response","610533112a76014519194fea","FMpUyQOdradjF3dRgdlmjnjMOGE3","","","","","","","","","","","","","","","","","chosen stimuli: images/choice_trial_13.png","","","",""
"html-keyboard-response","81","158036","0.0-35.0-2.0","","null","","null","delaylearn","learning","feedback_duration_window","610533112a76014519194fea","FMpUyQOdradjF3dRgdlmjnjMOGE3","","","","","","","","","","","","","","","","","","7000","","",""
"html-keyboard-response","82","159545","0.0-35.0-3.0","","null","<div style='margin:auto;width: auto; font-size: 150%'><span style='font-weight: bold; font-size: 100px; color: red;'>0 points!</span><br><br></div>","null","delaylearn","learning","feedback_image_window","610533112a76014519194fea","FMpUyQOdradjF3dRgdlmjnjMOGE3","","","","","","","","","","","","","","","","","","","","",""
"html-keyboard-response","83","161757","0.0-36.0","","null","<div style=""font-size:100px;"">+</div>","null","delaylearn","learning","ITI","610533112a76014519194fea","FMpUyQOdradjF3dRgdlmjnjMOGE3","","","","","","","","","","","","","","","","","","","2206","",""
"html-keyboard-response","84","162895","0.0-37.0-0.0","","1124.699999999255","<div style=""display: flex; flex-direction: column; align-items: center; margin-top: -40px;""><img src=""images/pattern_5.png"" style=""width: 234px; height: 230px; margin-top: -50px;""><div style=""display: flex; justify-content: space-between; margin-top: 33px;""><img src=""images/choice_trial_11.png"" style=""width: 408px; height: 417px; margin-right: 200px;""><img src=""images/choice_trial_2.png"" style=""width: 408px; height: 417px;""></div></div>","f","delaylearn","learning","trial","610533112a76014519194fea","FMpUyQOdradjF3dRgdlmjnjMOGE3","3","images/choice_trial_11.png","images/choice_trial_2.png","images/pattern_5.png","f","f","750","11","2","4","0","16","1","1","11","110","","","","",""
"html-keyboard-response","85","163902","0.0-37.0-1.0","","null","<div style=""display: flex; flex-direction: column; align-items: center; margin-top: -40px;""><img src=""images/pattern_5.png"" style=""width: 234px; height: 230px; margin-top: -50px;""><div style=""display: flex; justify-content: space-between; margin-top: 33px;""><img src=""images/choice_trial_11.png"" style=""width: 408px; height: 417px; margin-right: 608px;""></div></div>","null","delaylearn","learning","display_response","610533112a76014519194fea","FMpUyQOdradjF3dRgdlmjnjMOGE3","","","","","","","","","","","","","","","","","chosen stimuli: images/choice_trial_11.png","","","",""
"html-keyboard-response","86","164658","0.0-37.0-2.0","","null","","null","delaylearn","learning","feedback_duration_window","610533112a76014519194fea","FMpUyQOdradjF3dRgdlmjnjMOGE3","","","","","","","","","","","","","","","","","","750","","",""
"html-keyboard-response","87","166167","0.0-37.0-3.0","","null","<div style='margin:auto;width: auto; font-size: 150%'><span style='font-weight: bold; font-size: 100px; color: green;'>+10 points!</span><br><br></div>","null","delaylearn","learning","feedback_image_window","610533112a76014519194fea","FMpUyQOdradjF3dRgdlmjnjMOGE3","","","","","","","","","","","","","","","","","","","","",""
"html-keyboard-response","88","166670","0.0-38.0-0.0","","null","","null","","","mood_trial_fixation","","","","","","","","","","","","","","","","","","","","","","",""
"lmdlab-html-vas-response","89","172679","0.0-38.0-1.0","","4994","How happy are you right now?","0.3112135368620447","delaylearn","learning","mood_trial","610533112a76014519194fea","FMpUyQOdradjF3dRgdlmjnjMOGE3","","","","","","","","","","","","","","","","","","","","[""Very unhappy"",""Very happy""]",""
"html-keyboard-response","90","174777","0.0-39.0","","null","<div style=""font-size:100px;"">+</div>","null","delaylearn","learning","ITI","610533112a76014519194fea","FMpUyQOdradjF3dRgdlmjnjMOGE3","","","","","","","","","","","","","","","","","","","2092","",""
"html-keyboard-response","91","176019","0.0-40.0-0.0","","1233.2999999988824","<div style=""display: flex; flex-direction: column; align-items: center; margin-top: -40px;""><img src=""images/pattern_6.png"" style=""width: 234px; height: 230px; margin-top: -50px;""><div style=""display: flex; justify-content: space-between; margin-top: 33px;""><img src=""images/choice_trial_16.png"" style=""width: 408px; height: 417px; margin-right: 200px;""><img src=""images/choice_trial_3.png"" style=""width: 408px; height: 417px;""></div></div>","f","delaylearn","learning","trial","610533112a76014519194fea","FMpUyQOdradjF3dRgdlmjnjMOGE3","3","images/choice_trial_16.png","images/choice_trial_3.png","images/pattern_6.png","f","f","750","16","3","5","0","17","1","1","16","120","","","","",""
"html-keyboard-response","92","177026","0.0-40.0-1.0","","null","<div style=""display: flex; flex-direction: column; align-items: center; margin-top: -40px;""><img src=""images/pattern_6.png"" style=""width: 234px; height: 230px; margin-top: -50px;""><div style=""display: flex; justify-content: space-between; margin-top: 33px;""><img src=""images/choice_trial_16.png"" style=""width: 408px; height: 417px; margin-right: 608px;""></div></div>","null","delaylearn","learning","display_response","610533112a76014519194fea","FMpUyQOdradjF3dRgdlmjnjMOGE3","","","","","","","","","","","","","","","","","chosen stimuli: images/choice_trial_16.png","","","",""
"html-keyboard-response","93","177783","0.0-40.0-2.0","","null","","null","delaylearn","learning","feedback_duration_window","610533112a76014519194fea","FMpUyQOdradjF3dRgdlmjnjMOGE3","","","","","","","","","","","","","","","","","","750","","",""
"html-keyboard-response","94","179291","0.0-40.0-3.0","","null","<div style='margin:auto;width: auto; font-size: 150%'><span style='font-weight: bold; font-size: 100px; color: green;'>+10 points!</span><br><br></div>","null","delaylearn","learning","feedback_image_window","610533112a76014519194fea","FMpUyQOdradjF3dRgdlmjnjMOGE3","","","","","","","","","","","","","","","","","","","","",""
"html-keyboard-response","95","181295","0.0-41.0","","null","<div style=""font-size:100px;"">+</div>","null","delaylearn","learning","ITI","610533112a76014519194fea","FMpUyQOdradjF3dRgdlmjnjMOGE3","","","","","","","","","","","","","","","","","","","1998","",""
"html-keyboard-response","96","183617","0.0-42.0-0.0","","2309.9000000003725","<div style=""display: flex; flex-direction: column; align-items: center; margin-top: -40px;""><img src=""images/pattern_4.png"" style=""width: 234px; height: 230px; margin-top: -50px;""><div style=""display: flex; justify-content: space-between; margin-top: 33px;""><img src=""images/choice_trial_9.png"" style=""width: 408px; height: 417px; margin-right: 200px;""><img src=""images/choice_trial_15.png"" style=""width: 408px; height: 417px;""></div></div>","j","delaylearn","learning","trial","610533112a76014519194fea","FMpUyQOdradjF3dRgdlmjnjMOGE3","3","images/choice_trial_9.png","images/choice_trial_15.png","images/pattern_4.png","j","j","7000","9","15","3","1","18","1","1","15","130","","","","",""
"html-keyboard-response","97","184624","0.0-42.0-1.0","","null","<div style=""display: flex; flex-direction: column; align-items: center; margin-top: -40px;""><img src=""images/pattern_4.png"" style=""width: 234px; height: 230px; margin-top: -50px;""><div style=""display: flex; justify-content: space-between; margin-top: 33px;""><img src=""images/choice_trial_15.png"" style=""width: 408px; height: 417px; margin-left:608px;""></div></div>","null","delaylearn","learning","display_response","610533112a76014519194fea","FMpUyQOdradjF3dRgdlmjnjMOGE3","","","","","","","","","","","","","","","","","chosen stimuli: images/choice_trial_15.png","","","",""
"html-keyboard-response","98","191628","0.0-42.0-2.0","","null","","null","delaylearn","learning","feedback_duration_window","610533112a76014519194fea","FMpUyQOdradjF3dRgdlmjnjMOGE3","","","","","","","","","","","","","","","","","","7000","","",""
"html-keyboard-response","99","193137","0.0-42.0-3.0","","null","<div style='margin:auto;width: auto; font-size: 150%'><span style='font-weight: bold; font-size: 100px; color: green;'>+10 points!</span><br><br></div>","null","delaylearn","learning","feedback_image_window","610533112a76014519194fea","FMpUyQOdradjF3dRgdlmjnjMOGE3","","","","","","","","","","","","","","","","","","","","",""
"html-keyboard-response","100","194858","0.0-43.0","","null","<div style=""font-size:100px;"">+</div>","null","delaylearn","learning","ITI","610533112a76014519194fea","FMpUyQOdradjF3dRgdlmjnjMOGE3","","","","","","","","","","","","","","","","","","","1717","",""
"html-keyboard-response","101","195785","0.0-44.0-0.0","","916.5999999996275","<div style=""display: flex; flex-direction: column; align-items: center; margin-top: -40px;""><img src=""images/pattern_7.png"" style=""width: 234px; height: 230px; margin-top: -50px;""><div style=""display: flex; justify-content: space-between; margin-top: 33px;""><img src=""images/choice_trial_6.png"" style=""width: 408px; height: 417px; margin-right: 200px;""><img src=""images/choice_trial_12.png"" style=""width: 408px; height: 417px;""></div></div>","f","delaylearn","learning","trial","610533112a76014519194fea","FMpUyQOdradjF3dRgdlmjnjMOGE3","3","images/choice_trial_6.png","images/choice_trial_12.png","images/pattern_7.png","j","f","750","6","12","6","0","19","1","0","6","130","","","","",""
"html-keyboard-response","102","196791","0.0-44.0-1.0","","null","<div style=""display: flex; flex-direction: column; align-items: center; margin-top: -40px;""><img src=""images/pattern_7.png"" style=""width: 234px; height: 230px; margin-top: -50px;""><div style=""display: flex; justify-content: space-between; margin-top: 33px;""><img src=""images/choice_trial_6.png"" style=""width: 408px; height: 417px; margin-right: 608px;""></div></div>","null","delaylearn","learning","display_response","610533112a76014519194fea","FMpUyQOdradjF3dRgdlmjnjMOGE3","","","","","","","","","","","","","","","","","chosen stimuli: images/choice_trial_6.png","","","",""
"html-keyboard-response","103","197546","0.0-44.0-2.0","","null","","null","delaylearn","learning","feedback_duration_window","610533112a76014519194fea","FMpUyQOdradjF3dRgdlmjnjMOGE3","","","","","","","","","","","","","","","","","","750","","",""
"html-keyboard-response","104","199056","0.0-44.0-3.0","","null","<div style='margin:auto;width: auto; font-size: 150%'><span style='font-weight: bold; font-size: 100px; color: red;'>0 points!</span><br><br></div>","null","delaylearn","learning","feedback_image_window","610533112a76014519194fea","FMpUyQOdradjF3dRgdlmjnjMOGE3","","","","","","","","","","","","","","","","","","","","",""
"html-keyboard-response","105","201101","0.0-45.0","","null","<div style=""font-size:100px;"">+</div>","null","delaylearn","learning","ITI","610533112a76014519194fea","FMpUyQOdradjF3dRgdlmjnjMOGE3","","","","","","","","","","","","","","","","","","","2039","",""
"html-keyboard-response","106","202153","0.0-46.0-0.0","","1040.2000000011176","<div style=""display: flex; flex-direction: column; align-items: center; margin-top: -40px;""><img src=""images/pattern_1.png"" style=""width: 234px; height: 230px; margin-top: -50px;""><div style=""display: flex; justify-content: space-between; margin-top: 33px;""><img src=""images/choice_trial_14.png"" style=""width: 408px; height: 417px; margin-right: 200px;""><img src=""images/choice_trial_8.png"" style=""width: 408px; height: 417px;""></div></div>","f","delaylearn","learning","trial","610533112a76014519194fea","FMpUyQOdradjF3dRgdlmjnjMOGE3","3","images/choice_trial_14.png","images/choice_trial_8.png","images/pattern_1.png","f","f","7000","14","8","1","0","20","1","1","14","140","","","","",""
"html-keyboard-response","107","203164","0.0-46.0-1.0","","null","<div style=""display: flex; flex-direction: column; align-items: center; margin-top: -40px;""><img src=""images/pattern_1.png"" style=""width: 234px; height: 230px; margin-top: -50px;""><div style=""display: flex; justify-content: space-between; margin-top: 33px;""><img src=""images/choice_trial_14.png"" style=""width: 408px; height: 417px; margin-right: 608px;""></div></div>","null","delaylearn","learning","display_response","610533112a76014519194fea","FMpUyQOdradjF3dRgdlmjnjMOGE3","","","","","","","","","","","","","","","","","chosen stimuli: images/choice_trial_14.png","","","",""
"html-keyboard-response","108","210168","0.0-46.0-2.0","","null","","null","delaylearn","learning","feedback_duration_window","610533112a76014519194fea","FMpUyQOdradjF3dRgdlmjnjMOGE3","","","","","","","","","","","","","","","","","","7000","","",""
"html-keyboard-response","109","211677","0.0-46.0-3.0","","null","<div style='margin:auto;width: auto; font-size: 150%'><span style='font-weight: bold; font-size: 100px; color: green;'>+10 points!</span><br><br></div>","null","delaylearn","learning","feedback_image_window","610533112a76014519194fea","FMpUyQOdradjF3dRgdlmjnjMOGE3","","","","","","","","","","","","","","","","","","","","",""
"html-keyboard-response","110","213453","0.0-47.0","","null","<div style=""font-size:100px;"">+</div>","null","delaylearn","learning","ITI","610533112a76014519194fea","FMpUyQOdradjF3dRgdlmjnjMOGE3","","","","","","","","","","","","","","","","","","","1773","",""
"html-keyboard-response","111","215151","0.0-48.0-0.0","","1683.8999999985099","<div style=""display: flex; flex-direction: column; align-items: center; margin-top: -40px;""><img src=""images/pattern_6.png"" style=""width: 234px; height: 230px; margin-top: -50px;""><div style=""display: flex; justify-content: space-between; margin-top: 33px;""><img src=""images/choice_trial_3.png"" style=""width: 408px; height: 417px; margin-right: 200px;""><img src=""images/choice_trial_16.png"" style=""width: 408px; height: 417px;""></div></div>","j","delaylearn","learning","trial","610533112a76014519194fea","FMpUyQOdradjF3dRgdlmjnjMOGE3","3","images/choice_trial_3.png","images/choice_trial_16.png","images/pattern_6.png","j","j","750","3","16","5","1","21","1","1","16","150","","","","",""
"html-keyboard-response","112","216161","0.0-48.0-1.0","","null","<div style=""display: flex; flex-direction: column; align-items: center; margin-top: -40px;""><img src=""images/pattern_6.png"" style=""width: 234px; height: 230px; margin-top: -50px;""><div style=""display: flex; justify-content: space-between; margin-top: 33px;""><img src=""images/choice_trial_16.png"" style=""width: 408px; height: 417px; margin-left:608px;""></div></div>","null","delaylearn","learning","display_response","610533112a76014519194fea","FMpUyQOdradjF3dRgdlmjnjMOGE3","","","","","","","","","","","","","","","","","chosen stimuli: images/choice_trial_16.png","","","",""
"html-keyboard-response","113","216916","0.0-48.0-2.0","","null","","null","delaylearn","learning","feedback_duration_window","610533112a76014519194fea","FMpUyQOdradjF3dRgdlmjnjMOGE3","","","","","","","","","","","","","","","","","","750","","",""
"html-keyboard-response","114","218425","0.0-48.0-3.0","","null","<div style='margin:auto;width: auto; font-size: 150%'><span style='font-weight: bold; font-size: 100px; color: green;'>+10 points!</span><br><br></div>","null","delaylearn","learning","feedback_image_window","610533112a76014519194fea","FMpUyQOdradjF3dRgdlmjnjMOGE3","","","","","","","","","","","","","","","","","","","","",""
"html-keyboard-response","115","220399","0.0-49.0","","null","<div style=""font-size:100px;"">+</div>","null","delaylearn","learning","ITI","610533112a76014519194fea","FMpUyQOdradjF3dRgdlmjnjMOGE3","","","","","","","","","","","","","","","","","","","1968","",""
"html-keyboard-response","116","221453","0.0-50.0-0.0","","1040.7000000011176","<div style=""display: flex; flex-direction: column; align-items: center; margin-top: -40px;""><img src=""images/pattern_4.png"" style=""width: 234px; height: 230px; margin-top: -50px;""><div style=""display: flex; justify-content: space-between; margin-top: 33px;""><img src=""images/choice_trial_15.png"" style=""width: 408px; height: 417px; margin-right: 200px;""><img src=""images/choice_trial_9.png"" style=""width: 408px; height: 417px;""></div></div>","f","delaylearn","learning","trial","610533112a76014519194fea","FMpUyQOdradjF3dRgdlmjnjMOGE3","3","images/choice_trial_15.png","images/choice_trial_9.png","images/pattern_4.png","f","f","7000","15","9","3","0","22","1","1","15","160","","","","",""
"html-keyboard-response","117","222462","0.0-50.0-1.0","","null","<div style=""display: flex; flex-direction: column; align-items: center; margin-top: -40px;""><img src=""images/pattern_4.png"" style=""width: 234px; height: 230px; margin-top: -50px;""><div style=""display: flex; justify-content: space-between; margin-top: 33px;""><img src=""images/choice_trial_15.png"" style=""width: 408px; height: 417px; margin-right: 608px;""></div></div>","null","delaylearn","learning","display_response","610533112a76014519194fea","FMpUyQOdradjF3dRgdlmjnjMOGE3","","","","","","","","","","","","","","","","","chosen stimuli: images/choice_trial_15.png","","","",""
"html-keyboard-response","118","229469","0.0-50.0-2.0","","null","","null","delaylearn","learning","feedback_duration_window","610533112a76014519194fea","FMpUyQOdradjF3dRgdlmjnjMOGE3","","","","","","","","","","","","","","","","","","7000","","",""
"html-keyboard-response","119","230979","0.0-50.0-3.0","","null","<div style='margin:auto;width: auto; font-size: 150%'><span style='font-weight: bold; font-size: 100px; color: green;'>+10 points!</span><br><br></div>","null","delaylearn","learning","feedback_image_window","610533112a76014519194fea","FMpUyQOdradjF3dRgdlmjnjMOGE3","","","","","","","","","","","","","","","","","","","","",""
"html-keyboard-response","120","231485","0.0-51.0-0.0","","null","","null","","","mood_trial_fixation","","","","","","","","","","","","","","","","","","","","","","",""
"lmdlab-html-vas-response","121","235194","0.0-51.0-1.0","","2689","How happy are you right now?","0.25587462356930507","delaylearn","learning","mood_trial","610533112a76014519194fea","FMpUyQOdradjF3dRgdlmjnjMOGE3","","","","","","","","","","","","","","","","","","","","[""Very unhappy"",""Very happy""]",""
"html-keyboard-response","122","237412","0.0-52.0","","null","<div style=""font-size:100px;"">+</div>","null","delaylearn","learning","ITI","610533112a76014519194fea","FMpUyQOdradjF3dRgdlmjnjMOGE3","","","","","","","","","","","","","","","","","","","2212","",""
"html-keyboard-response","123","238759","0.0-53.0-0.0","","1329.699999999255","<div style=""display: flex; flex-direction: column; align-items: center; margin-top: -40px;""><img src=""images/pattern_7.png"" style=""width: 234px; height: 230px; margin-top: -50px;""><div style=""display: flex; justify-content: space-between; margin-top: 33px;""><img src=""images/choice_trial_12.png"" style=""width: 408px; height: 417px; margin-right: 200px;""><img src=""images/choice_trial_6.png"" style=""width: 408px; height: 417px;""></div></div>","j","delaylearn","learning","trial","610533112a76014519194fea","FMpUyQOdradjF3dRgdlmjnjMOGE3","3","images/choice_trial_12.png","images/choice_trial_6.png","images/pattern_7.png","j","j","750","12","6","6","1","23","1","1","6","170","","","","",""
"html-keyboard-response","124","239765","0.0-53.0-1.0","","null","<div style=""display: flex; flex-direction: column; align-items: center; margin-top: -40px;""><img src=""images/pattern_7.png"" style=""width: 234px; height: 230px; margin-top: -50px;""><div style=""display: flex; justify-content: space-between; margin-top: 33px;""><img src=""images/choice_trial_6.png"" style=""width: 408px; height: 417px; margin-left:608px;""></div></div>","null","delaylearn","learning","display_response","610533112a76014519194fea","FMpUyQOdradjF3dRgdlmjnjMOGE3","","","","","","","","","","","","","","","","","chosen stimuli: images/choice_trial_6.png","","","",""
"html-keyboard-response","125","240521","0.0-53.0-2.0","","null","","null","delaylearn","learning","feedback_duration_window","610533112a76014519194fea","FMpUyQOdradjF3dRgdlmjnjMOGE3","","","","","","","","","","","","","","","","","","750","","",""
"html-keyboard-response","126","242030","0.0-53.0-3.0","","null","<div style='margin:auto;width: auto; font-size: 150%'><span style='font-weight: bold; font-size: 100px; color: green;'>+10 points!</span><br><br></div>","null","delaylearn","learning","feedback_image_window","610533112a76014519194fea","FMpUyQOdradjF3dRgdlmjnjMOGE3","","","","","","","","","","","","","","","","","","","","",""
"html-keyboard-response","127","244303","0.0-54.0","","null","<div style=""font-size:100px;"">+</div>","null","delaylearn","learning","ITI","610533112a76014519194fea","FMpUyQOdradjF3dRgdlmjnjMOGE3","","","","","","","","","","","","","","","","","","","2267","",""
"html-keyboard-response","128","245108","0.0-55.0-0.0","","791.5999999996275","<div style=""display: flex; flex-direction: column; align-items: center; margin-top: -40px;""><img src=""images/pattern_1.png"" style=""width: 234px; height: 230px; margin-top: -50px;""><div style=""display: flex; justify-content: space-between; margin-top: 33px;""><img src=""images/choice_trial_8.png"" style=""width: 408px; height: 417px; margin-right: 200px;""><img src=""images/choice_trial_14.png"" style=""width: 408px; height: 417px;""></div></div>","j","delaylearn","learning","trial","610533112a76014519194fea","FMpUyQOdradjF3dRgdlmjnjMOGE3","3","images/choice_trial_8.png","images/choice_trial_14.png","images/pattern_1.png","f","j","7000","8","14","1","1","24","1","0","14","170","","","","",""
"html-keyboard-response","129","246117","0.0-55.0-1.0","","null","<div style=""display: flex; flex-direction: column; align-items: center; margin-top: -40px;""><img src=""images/pattern_1.png"" style=""width: 234px; height: 230px; margin-top: -50px;""><div style=""display: flex; justify-content: space-between; margin-top: 33px;""><img src=""images/choice_trial_14.png"" style=""width: 408px; height: 417px; margin-left:608px;""></div></div>","null","delaylearn","learning","display_response","610533112a76014519194fea","FMpUyQOdradjF3dRgdlmjnjMOGE3","","","","","","","","","","","","","","","","","chosen stimuli: images/choice_trial_14.png","","","",""
"html-keyboard-response","130","253124","0.0-55.0-2.0","","null","","null","delaylearn","learning","feedback_duration_window","610533112a76014519194fea","FMpUyQOdradjF3dRgdlmjnjMOGE3","","","","","","","","","","","","","","","","","","7000","","",""
"html-keyboard-response","131","254631","0.0-55.0-3.0","","null","<div style='margin:auto;width: auto; font-size: 150%'><span style='font-weight: bold; font-size: 100px; color: red;'>0 points!</span><br><br></div>","null","delaylearn","learning","feedback_image_window","610533112a76014519194fea","FMpUyQOdradjF3dRgdlmjnjMOGE3","","","","","","","","","","","","","","","","","","","","",""
"html-keyboard-response","132","256856","0.0-56.0","","null","<div style=""font-size:100px;"">+</div>","null","delaylearn","learning","ITI","610533112a76014519194fea","FMpUyQOdradjF3dRgdlmjnjMOGE3","","","","","","","","","","","","","","","","","","","2220","",""
"html-keyboard-response","133","258676","0.0-57.0-0.0","","1805.199999999255","<div style=""display: flex; flex-direction: column; align-items: center; margin-top: -40px;""><img src=""images/pattern_5.png"" style=""width: 234px; height: 230px; margin-top: -50px;""><div style=""display: flex; justify-content: space-between; margin-top: 33px;""><img src=""images/choice_trial_2.png"" style=""width: 408px; height: 417px; margin-right: 200px;""><img src=""images/choice_trial_11.png"" style=""width: 408px; height: 417px;""></div></div>","j","delaylearn","learning","trial","610533112a76014519194fea","FMpUyQOdradjF3dRgdlmjnjMOGE3","3","images/choice_trial_2.png","images/choice_trial_11.png","images/pattern_5.png","j","j","750","2","11","4","1","25","1","1","11","180","","","","",""
"html-keyboard-response","134","259684","0.0-57.0-1.0","","null","<div style=""display: flex; flex-direction: column; align-items: center; margin-top: -40px;""><img src=""images/pattern_5.png"" style=""width: 234px; height: 230px; margin-top: -50px;""><div style=""display: flex; justify-content: space-between; margin-top: 33px;""><img src=""images/choice_trial_11.png"" style=""width: 408px; height: 417px; margin-left:608px;""></div></div>","null","delaylearn","learning","display_response","610533112a76014519194fea","FMpUyQOdradjF3dRgdlmjnjMOGE3","","","","","","","","","","","","","","","","","chosen stimuli: images/choice_trial_11.png","","","",""
"html-keyboard-response","135","260442","0.0-57.0-2.0","","null","","null","delaylearn","learning","feedback_duration_window","610533112a76014519194fea","FMpUyQOdradjF3dRgdlmjnjMOGE3","","","","","","","","","","","","","","","","","","750","","",""
"html-keyboard-response","136","261950","0.0-57.0-3.0","","null","<div style='margin:auto;width: auto; font-size: 150%'><span style='font-weight: bold; font-size: 100px; color: green;'>+10 points!</span><br><br></div>","null","delaylearn","learning","feedback_image_window","610533112a76014519194fea","FMpUyQOdradjF3dRgdlmjnjMOGE3","","","","","","","","","","","","","","","","","","","","",""
"html-keyboard-response","137","263526","0.0-58.0","","null","<div style=""font-size:100px;"">+</div>","null","delaylearn","learning","ITI","610533112a76014519194fea","FMpUyQOdradjF3dRgdlmjnjMOGE3","","","","","","","","","","","","","","","","","","","1572","",""
"html-keyboard-response","138","264886","0.0-59.0-0.0","","1346.8999999985099","<div style=""display: flex; flex-direction: column; align-items: center; margin-top: -40px;""><img src=""images/pattern_3.png"" style=""width: 234px; height: 230px; margin-top: -50px;""><div style=""display: flex; justify-content: space-between; margin-top: 33px;""><img src=""images/choice_trial_10.png"" style=""width: 408px; height: 417px; margin-right: 200px;""><img src=""images/choice_trial_13.png"" style=""width: 408px; height: 417px;""></div></div>","j","delaylearn","learning","trial","610533112a76014519194fea","FMpUyQOdradjF3dRgdlmjnjMOGE3","3","images/choice_trial_10.png","images/choice_trial_13.png","images/pattern_3.png","j","j","7000","10","13","2","1","26","1","1","13","190","","","","",""
"html-keyboard-response","139","265892","0.0-59.0-1.0","","null","<div style=""display: flex; flex-direction: column; align-items: center; margin-top: -40px;""><img src=""images/pattern_3.png"" style=""width: 234px; height: 230px; margin-top: -50px;""><div style=""display: flex; justify-content: space-between; margin-top: 33px;""><img src=""images/choice_trial_13.png"" style=""width: 408px; height: 417px; margin-left:608px;""></div></div>","null","delaylearn","learning","display_response","610533112a76014519194fea","FMpUyQOdradjF3dRgdlmjnjMOGE3","","","","","","","","","","","","","","","","","chosen stimuli: images/choice_trial_13.png","","","",""
"html-keyboard-response","140","272900","0.0-59.0-2.0","","null","","null","delaylearn","learning","feedback_duration_window","610533112a76014519194fea","FMpUyQOdradjF3dRgdlmjnjMOGE3","","","","","","","","","","","","","","","","","","7000","","",""
"html-keyboard-response","141","274409","0.0-59.0-3.0","","null","<div style='margin:auto;width: auto; font-size: 150%'><span style='font-weight: bold; font-size: 100px; color: green;'>+10 points!</span><br><br></div>","null","delaylearn","learning","feedback_image_window","610533112a76014519194fea","FMpUyQOdradjF3dRgdlmjnjMOGE3","","","","","","","","","","","","","","","","","","","","",""
"lmdlab-html-vas-response","142","279710","0.0-60.0-0.0","","3772","*How <b><u>confident</u></b> are you feeling about your answers at this moment?*","0.7116068506859845","rewlearn","rate_confidence","","610533112a76014519194fea","FMpUyQOdradjF3dRgdlmjnjMOGE3","","","","","","","","","","","","","","","","","","","","[""No confidence"",""Complete confidence""]",""
"lmdlab-rest-trial-limit","143","289724","0.0-60.0-1.0","","8498.89999999851","<div style=""font-size:40px;""><b>Please take a break!</b><br><br><br><br><p>Great work: you earned 190 points.<br><br><br><p>You have completed part(s) 1 of 5.<br><br><br><br>When you are ready to continue<br><br><br>please click the button.</p><br><br>","0","delaylearn","learning","break","610533112a76014519194fea","FMpUyQOdradjF3dRgdlmjnjMOGE3","","","","","","","","","","","","","","","","","","","","","0"
"html-keyboard-response","144","292734","0.0-60.0-2.0","","null","<div style=""font-size:100px;"">+</div>","null","delaylearn","learning","pre_fixation","610533112a76014519194fea","","","","","","","","","","","","","","","","","","","","","",""
"lmdlab-html-vas-response","145","296821","0.0-60.0-3.0-0.0","","3064","How happy are you right now?","0.3437658387989504","delaylearn","learning","mood_baseline","610533112a76014519194fea","FMpUyQOdradjF3dRgdlmjnjMOGE3","","","","","","","","","","","","","","","","","","","","[""Very unhappy"",""Very happy""]",""
"html-keyboard-response","146","298327","0.0-60.0-3.0-1.0","","null","","null","","","mood_baseline_fixation","","","","","","","","","","","","","","","","","","","","","","",""
"html-keyboard-response","147","300585","0.0-61.0","","null","<div style=""font-size:100px;"">+</div>","null","delaylearn","learning","ITI","610533112a76014519194fea","FMpUyQOdradjF3dRgdlmjnjMOGE3","","","","","","","","","","","","","","","","","","","2252","",""
"html-keyboard-response","148","301697","0.0-62.0-0.0","","1099.699999999255","<div style=""display: flex; flex-direction: column; align-items: center; margin-top: -40px;""><img src=""images/pattern_7.png"" style=""width: 234px; height: 230px; margin-top: -50px;""><div style=""display: flex; justify-content: space-between; margin-top: 33px;""><img src=""images/choice_trial_12.png"" style=""width: 408px; height: 417px; margin-right: 200px;""><img src=""images/choice_trial_6.png"" style=""width: 408px; height: 417px;""></div></div>","j","delaylearn","learning","trial","610533112a76014519194fea","FMpUyQOdradjF3dRgdlmjnjMOGE3","3","images/choice_trial_12.png","images/choice_trial_6.png","images/pattern_7.png","j","j","750","12","6","6","1","27","1","1","6","200","","","","",""
"html-keyboard-response","149","302705","0.0-62.0-1.0","","null","<div style=""display: flex; flex-direction: column; align-items: center; margin-top: -40px;""><img src=""images/pattern_7.png"" style=""width: 234px; height: 230px; margin-top: -50px;""><div style=""display: flex; justify-content: space-between; margin-top: 33px;""><img src=""images/choice_trial_6.png"" style=""width: 408px; height: 417px; margin-left:608px;""></div></div>","null","delaylearn","learning","display_response","610533112a76014519194fea","FMpUyQOdradjF3dRgdlmjnjMOGE3","","","","","","","","","","","","","","","","","chosen stimuli: images/choice_trial_6.png","","","",""
"html-keyboard-response","150","303462","0.0-62.0-2.0","","null","","null","delaylearn","learning","feedback_duration_window","610533112a76014519194fea","FMpUyQOdradjF3dRgdlmjnjMOGE3","","","","","","","","","","","","","","","","","","750","","",""
"html-keyboard-response","151","304972","0.0-62.0-3.0","","null","<div style='margin:auto;width: auto; font-size: 150%'><span style='font-weight: bold; font-size: 100px; color: green;'>+10 points!</span><br><br></div>","null","delaylearn","learning","feedback_image_window","610533112a76014519194fea","FMpUyQOdradjF3dRgdlmjnjMOGE3","","","","","","","","","","","","","","","","","","","","",""
"html-keyboard-response","152","305476","0.0-63.0-0.0","","null","","null","","","mood_trial_fixation","","","","","","","","","","","","","","","","","","","","","","",""
"lmdlab-html-vas-response","153","310232","0.0-63.0-1.0","","3733","How happy are you right now?","0.2754060047314485","delaylearn","learning","mood_trial","610533112a76014519194fea","FMpUyQOdradjF3dRgdlmjnjMOGE3","","","","","","","","","","","","","","","","","","","","[""Very unhappy"",""Very happy""]",""
"html-keyboard-response","154","312685","0.0-64.0","","null","<div style=""font-size:100px;"">+</div>","null","delaylearn","learning","ITI","610533112a76014519194fea","FMpUyQOdradjF3dRgdlmjnjMOGE3","","","","","","","","","","","","","","","","","","","2447","",""
"html-keyboard-response","155","313526","0.0-65.0-0.0","","825","<div style=""display: flex; flex-direction: column; align-items: center; margin-top: -40px;""><img src=""images/pattern_1.png"" style=""width: 234px; height: 230px; margin-top: -50px;""><div style=""display: flex; justify-content: space-between; margin-top: 33px;""><img src=""images/choice_trial_14.png"" style=""width: 408px; height: 417px; margin-right: 200px;""><img src=""images/choice_trial_8.png"" style=""width: 408px; height: 417px;""></div></div>","f","delaylearn","learning","trial","610533112a76014519194fea","FMpUyQOdradjF3dRgdlmjnjMOGE3","3","images/choice_trial_14.png","images/choice_trial_8.png","images/pattern_1.png","f","f","7000","14","8","1","0","28","1","1","14","210","","","","",""
"html-keyboard-response","156","314534","0.0-65.0-1.0","","null","<div style=""display: flex; flex-direction: column; align-items: center; margin-top: -40px;""><img src=""images/pattern_1.png"" style=""width: 234px; height: 230px; margin-top: -50px;""><div style=""display: flex; justify-content: space-between; margin-top: 33px;""><img src=""images/choice_trial_14.png"" style=""width: 408px; height: 417px; margin-right: 608px;""></div></div>","null","delaylearn","learning","display_response","610533112a76014519194fea","FMpUyQOdradjF3dRgdlmjnjMOGE3","","","","","","","","","","","","","","","","","chosen stimuli: images/choice_trial_14.png","","","",""
"html-keyboard-response","157","321539","0.0-65.0-2.0","","null","","null","delaylearn","learning","feedback_duration_window","610533112a76014519194fea","FMpUyQOdradjF3dRgdlmjnjMOGE3","","","","","","","","","","","","","","","","","","7000","","",""
"html-keyboard-response","158","323044","0.0-65.0-3.0","","null","<div style='margin:auto;width: auto; font-size: 150%'><span style='font-weight: bold; font-size: 100px; color: green;'>+10 points!</span><br><br></div>","null","delaylearn","learning","feedback_image_window","610533112a76014519194fea","FMpUyQOdradjF3dRgdlmjnjMOGE3","","","","","","","","","","","","","","","","","","","","",""
"html-keyboard-response","159","324806","0.0-66.0","","null","<div style=""font-size:100px;"">+</div>","null","delaylearn","learning","ITI","610533112a76014519194fea","FMpUyQOdradjF3dRgdlmjnjMOGE3","","","","","","","","","","","","","","","","","","","1757","",""
"html-keyboard-response","160","325811","0.0-67.0-0.0","","993.0999999996275","<div style=""display: flex; flex-direction: column; align-items: center; margin-top: -40px;""><img src=""images/pattern_5.png"" style=""width: 234px; height: 230px; margin-top: -50px;""><div style=""display: flex; justify-content: space-between; margin-top: 33px;""><img src=""images/choice_trial_11.png"" style=""width: 408px; height: 417px; margin-right: 200px;""><img src=""images/choice_trial_2.png"" style=""width: 408px; height: 417px;""></div></div>","f","delaylearn","learning","trial","610533112a76014519194fea","FMpUyQOdradjF3dRgdlmjnjMOGE3","3","images/choice_trial_11.png","images/choice_trial_2.png","images/pattern_5.png","f","f","750","11","2","4","0","29","1","1","11","220","","","","",""
"html-keyboard-response","161","326817","0.0-67.0-1.0","","null","<div style=""display: flex; flex-direction: column; align-items: center; margin-top: -40px;""><img src=""images/pattern_5.png"" style=""width: 234px; height: 230px; margin-top: -50px;""><div style=""display: flex; justify-content: space-between; margin-top: 33px;""><img src=""images/choice_trial_11.png"" style=""width: 408px; height: 417px; margin-right: 608px;""></div></div>","null","delaylearn","learning","display_response","610533112a76014519194fea","FMpUyQOdradjF3dRgdlmjnjMOGE3","","","","","","","","","","","","","","","","","chosen stimuli: images/choice_trial_11.png","","","",""
"html-keyboard-response","162","327572","0.0-67.0-2.0","","null","","null","delaylearn","learning","feedback_duration_window","610533112a76014519194fea","FMpUyQOdradjF3dRgdlmjnjMOGE3","","","","","","","","","","","","","","","","","","750","","",""
"html-keyboard-response","163","329080","0.0-67.0-3.0","","null","<div style='margin:auto;width: auto; font-size: 150%'><span style='font-weight: bold; font-size: 100px; color: green;'>+10 points!</span><br><br></div>","null","delaylearn","learning","feedback_image_window","610533112a76014519194fea","FMpUyQOdradjF3dRgdlmjnjMOGE3","","","","","","","","","","","","","","","","","","","","",""
"html-keyboard-response","164","330687","0.0-68.0","","null","<div style=""font-size:100px;"">+</div>","null","delaylearn","learning","ITI","610533112a76014519194fea","FMpUyQOdradjF3dRgdlmjnjMOGE3","","","","","","","","","","","","","","","","","","","1602","",""
"html-keyboard-response","165","331661","0.0-69.0-0.0","","959.0999999996275","<div style=""display: flex; flex-direction: column; align-items: center; margin-top: -40px;""><img src=""images/pattern_6.png"" style=""width: 234px; height: 230px; margin-top: -50px;""><div style=""display: flex; justify-content: space-between; margin-top: 33px;""><img src=""images/choice_trial_3.png"" style=""width: 408px; height: 417px; margin-right: 200px;""><img src=""images/choice_trial_16.png"" style=""width: 408px; height: 417px;""></div></div>","j","delaylearn","learning","trial","610533112a76014519194fea","FMpUyQOdradjF3dRgdlmjnjMOGE3","3","images/choice_trial_3.png","images/choice_trial_16.png","images/pattern_6.png","j","j","750","3","16","5","1","30","1","1","16","230","","","","",""
"html-keyboard-response","166","332671","0.0-69.0-1.0","","null","<div style=""display: flex; flex-direction: column; align-items: center; margin-top: -40px;""><img src=""images/pattern_6.png"" style=""width: 234px; height: 230px; margin-top: -50px;""><div style=""display: flex; justify-content: space-between; margin-top: 33px;""><img src=""images/choice_trial_16.png"" style=""width: 408px; height: 417px; margin-left:608px;""></div></div>","null","delaylearn","learning","display_response","610533112a76014519194fea","FMpUyQOdradjF3dRgdlmjnjMOGE3","","","","","","","","","","","","","","","","","chosen stimuli: images/choice_trial_16.png","","","",""
"html-keyboard-response","167","333427","0.0-69.0-2.0","","null","","null","delaylearn","learning","feedback_duration_window","610533112a76014519194fea","FMpUyQOdradjF3dRgdlmjnjMOGE3","","","","","","","","","","","","","","","","","","750","","",""
"html-keyboard-response","168","334935","0.0-69.0-3.0","","null","<div style='margin:auto;width: auto; font-size: 150%'><span style='font-weight: bold; font-size: 100px; color: green;'>+10 points!</span><br><br></div>","null","delaylearn","learning","feedback_image_window","610533112a76014519194fea","FMpUyQOdradjF3dRgdlmjnjMOGE3","","","","","","","","","","","","","","","","","","","","",""
"html-keyboard-response","169","335442","0.0-70.0-0.0","","null","","null","","","mood_trial_fixation","","","","","","","","","","","","","","","","","","","","","","",""
"lmdlab-html-vas-response","170","341087","0.0-70.0-1.0","","4623","How happy are you right now?","0.33074491802418815","delaylearn","learning","mood_trial","610533112a76014519194fea","FMpUyQOdradjF3dRgdlmjnjMOGE3","","","","","","","","","","","","","","","","","","","","[""Very unhappy"",""Very happy""]",""
"html-keyboard-response","171","343081","0.0-71.0","","null","<div style=""font-size:100px;"">+</div>","null","delaylearn","learning","ITI","610533112a76014519194fea","FMpUyQOdradjF3dRgdlmjnjMOGE3","","","","","","","","","","","","","","","","","","","1991","",""
"html-keyboard-response","172","344031","0.0-72.0-0.0","","937.1999999992549","<div style=""display: flex; flex-direction: column; align-items: center; margin-top: -40px;""><img src=""images/pattern_4.png"" style=""width: 234px; height: 230px; margin-top: -50px;""><div style=""display: flex; justify-content: space-between; margin-top: 33px;""><img src=""images/choice_trial_9.png"" style=""width: 408px; height: 417px; margin-right: 200px;""><img src=""images/choice_trial_15.png"" style=""width: 408px; height: 417px;""></div></div>","f","delaylearn","learning","trial","610533112a76014519194fea","FMpUyQOdradjF3dRgdlmjnjMOGE3","3","images/choice_trial_9.png","images/choice_trial_15.png","images/pattern_4.png","j","j","7000","9","15","3","1","31","0","0","9","230","","","","",""
"html-keyboard-response","173","345040","0.0-72.0-1.0","","null","<div style=""display: flex; flex-direction: column; align-items: center; margin-top: -40px;""><img src=""images/pattern_4.png"" style=""width: 234px; height: 230px; margin-top: -50px;""><div style=""display: flex; justify-content: space-between; margin-top: 33px;""><img src=""images/choice_trial_9.png"" style=""width: 408px; height: 417px; margin-right: 608px;""></div></div>","null","delaylearn","learning","display_response","610533112a76014519194fea","FMpUyQOdradjF3dRgdlmjnjMOGE3","","","","","","","","","","","","","","","","","chosen stimuli: images/choice_trial_9.png","","","",""
"html-keyboard-response","174","352046","0.0-72.0-2.0","","null","","null","delaylearn","learning","feedback_duration_window","610533112a76014519194fea","FMpUyQOdradjF3dRgdlmjnjMOGE3","","","","","","","","","","","","","","","","","","7000","","",""
"html-keyboard-response","175","353553","0.0-72.0-3.0","","null","<div style='margin:auto;width: auto; font-size: 150%'><span style='font-weight: bold; font-size: 100px; color: red;'>0 points!</span><br><br></div>","null","delaylearn","learning","feedback_image_window","610533112a76014519194fea","FMpUyQOdradjF3dRgdlmjnjMOGE3","","","","","","","","","","","","","","","","","","","","",""
"html-keyboard-response","176","355530","0.0-73.0","","null","<div style=""font-size:100px;"">+</div>","null","delaylearn","learning","ITI","610533112a76014519194fea","FMpUyQOdradjF3dRgdlmjnjMOGE3","","","","","","","","","","","","","","","","","","","1971","",""
"html-keyboard-response","177","356347","0.0-74.0-0.0","","801.9000000003725","<div style=""display: flex; flex-direction: column; align-items: center; margin-top: -40px;""><img src=""images/pattern_3.png"" style=""width: 234px; height: 230px; margin-top: -50px;""><div style=""display: flex; justify-content: space-between; margin-top: 33px;""><img src=""images/choice_trial_10.png"" style=""width: 408px; height: 417px; margin-right: 200px;""><img src=""images/choice_trial_13.png"" style=""width: 408px; height: 417px;""></div></div>","j","delaylearn","learning","trial","610533112a76014519194fea","FMpUyQOdradjF3dRgdlmjnjMOGE3","3","images/choice_trial_10.png","images/choice_trial_13.png","images/pattern_3.png","j","j","7000","10","13","2","1","32","1","1","13","240","","","","",""
"html-keyboard-response","178","357353","0.0-74.0-1.0","","null","<div style=""display: flex; flex-direction: column; align-items: center; margin-top: -40px;""><img src=""images/pattern_3.png"" style=""width: 234px; height: 230px; margin-top: -50px;""><div style=""display: flex; justify-content: space-between; margin-top: 33px;""><img src=""images/choice_trial_13.png"" style=""width: 408px; height: 417px; margin-left:608px;""></div></div>","null","delaylearn","learning","display_response","610533112a76014519194fea","FMpUyQOdradjF3dRgdlmjnjMOGE3","","","","","","","","","","","","","","","","","chosen stimuli: images/choice_trial_13.png","","","",""
"html-keyboard-response","179","364361","0.0-74.0-2.0","","null","","null","delaylearn","learning","feedback_duration_window","610533112a76014519194fea","FMpUyQOdradjF3dRgdlmjnjMOGE3","","","","","","","","","","","","","","","","","","7000","","",""
"html-keyboard-response","180","365869","0.0-74.0-3.0","","null","<div style='margin:auto;width: auto; font-size: 150%'><span style='font-weight: bold; font-size: 100px; color: green;'>+10 points!</span><br><br></div>","null","delaylearn","learning","feedback_image_window","610533112a76014519194fea","FMpUyQOdradjF3dRgdlmjnjMOGE3","","","","","","","","","","","","","","","","","","","","",""
"html-keyboard-response","181","368053","0.0-75.0","","null","<div style=""font-size:100px;"">+</div>","null","delaylearn","learning","ITI","610533112a76014519194fea","FMpUyQOdradjF3dRgdlmjnjMOGE3","","","","","","","","","","","","","","","","","","","2178","",""
"html-keyboard-response","182","368953","0.0-76.0-0.0","","885.8999999985099","<div style=""display: flex; flex-direction: column; align-items: center; margin-top: -40px;""><img src=""images/pattern_5.png"" style=""width: 234px; height: 230px; margin-top: -50px;""><div style=""display: flex; justify-content: space-between; margin-top: 33px;""><img src=""images/choice_trial_11.png"" style=""width: 408px; height: 417px; margin-right: 200px;""><img src=""images/choice_trial_2.png"" style=""width: 408px; height: 417px;""></div></div>","f","delaylearn","learning","trial","610533112a76014519194fea","FMpUyQOdradjF3dRgdlmjnjMOGE3","3","images/choice_trial_11.png","images/choice_trial_2.png","images/pattern_5.png","j","f","750","11","2","4","0","33","1","0","11","240","","","","",""
"html-keyboard-response","183","369961","0.0-76.0-1.0","","null","<div style=""display: flex; flex-direction: column; align-items: center; margin-top: -40px;""><img src=""images/pattern_5.png"" style=""width: 234px; height: 230px; margin-top: -50px;""><div style=""display: flex; justify-content: space-between; margin-top: 33px;""><img src=""images/choice_trial_11.png"" style=""width: 408px; height: 417px; margin-right: 608px;""></div></div>","null","delaylearn","learning","display_response","610533112a76014519194fea","FMpUyQOdradjF3dRgdlmjnjMOGE3","","","","","","","","","","","","","","","","","chosen stimuli: images/choice_trial_11.png","","","",""
"html-keyboard-response","184","370716","0.0-76.0-2.0","","null","","null","delaylearn","learning","feedback_duration_window","610533112a76014519194fea","FMpUyQOdradjF3dRgdlmjnjMOGE3","","","","","","","","","","","","","","","","","","750","","",""
"html-keyboard-response","185","372225","0.0-76.0-3.0","","null","<div style='margin:auto;width: auto; font-size: 150%'><span style='font-weight: bold; font-size: 100px; color: red;'>0 points!</span><br><br></div>","null","delaylearn","learning","feedback_image_window","610533112a76014519194fea","FMpUyQOdradjF3dRgdlmjnjMOGE3","","","","","","","","","","","","","","","","","","","","",""
"html-keyboard-response","186","374223","0.0-77.0","","null","<div style=""font-size:100px;"">+</div>","null","delaylearn","learning","ITI","610533112a76014519194fea","FMpUyQOdradjF3dRgdlmjnjMOGE3","","","","","","","","","","","","","","","","","","","1994","",""
"html-keyboard-response","187","374986","0.0-78.0-0.0","","750.9000000003725","<div style=""display: flex; flex-direction: column; align-items: center; margin-top: -40px;""><img src=""images/pattern_1.png"" style=""width: 234px; height: 230px; margin-top: -50px;""><div style=""display: flex; justify-content: space-between; margin-top: 33px;""><img src=""images/choice_trial_14.png"" style=""width: 408px; height: 417px; margin-right: 200px;""><img src=""images/choice_trial_8.png"" style=""width: 408px; height: 417px;""></div></div>","f","delaylearn","learning","trial","610533112a76014519194fea","FMpUyQOdradjF3dRgdlmjnjMOGE3","3","images/choice_trial_14.png","images/choice_trial_8.png","images/pattern_1.png","f","f","7000","14","8","1","0","34","1","1","14","250","","","","",""
"html-keyboard-response","188","375995","0.0-78.0-1.0","","null","<div style=""display: flex; flex-direction: column; align-items: center; margin-top: -40px;""><img src=""images/pattern_1.png"" style=""width: 234px; height: 230px; margin-top: -50px;""><div style=""display: flex; justify-content: space-between; margin-top: 33px;""><img src=""images/choice_trial_14.png"" style=""width: 408px; height: 417px; margin-right: 608px;""></div></div>","null","delaylearn","learning","display_response","610533112a76014519194fea","FMpUyQOdradjF3dRgdlmjnjMOGE3","","","","","","","","","","","","","","","","","chosen stimuli: images/choice_trial_14.png","","","",""
"html-keyboard-response","189","383001","0.0-78.0-2.0","","null","","null","delaylearn","learning","feedback_duration_window","610533112a76014519194fea","FMpUyQOdradjF3dRgdlmjnjMOGE3","","","","","","","","","","","","","","","","","","7000","","",""
"html-keyboard-response","190","384509","0.0-78.0-3.0","","null","<div style='margin:auto;width: auto; font-size: 150%'><span style='font-weight: bold; font-size: 100px; color: green;'>+10 points!</span><br><br></div>","null","delaylearn","learning","feedback_image_window","610533112a76014519194fea","FMpUyQOdradjF3dRgdlmjnjMOGE3","","","","","","","","","","","","","","","","","","","","",""
"html-keyboard-response","191","385015","0.0-79.0-0.0","","null","","null","","","mood_trial_fixation","","","","","","","","","","","","","","","","","","","","","","",""
"lmdlab-html-vas-response","192","389393","0.0-79.0-1.0","","3358","How happy are you right now?","0.23634324240716167","delaylearn","learning","mood_trial","610533112a76014519194fea","FMpUyQOdradjF3dRgdlmjnjMOGE3","","","","","","","","","","","","","","","","","","","","[""Very unhappy"",""Very happy""]",""
"html-keyboard-response","193","391831","0.0-80.0","","null","<div style=""font-size:100px;"">+</div>","null","delaylearn","learning","ITI","610533112a76014519194fea","FMpUyQOdradjF3dRgdlmjnjMOGE3","","","","","","","","","","","","","","","","","","","2435","",""
"html-keyboard-response","194","392808","0.0-81.0-0.0","","966.8000000007451","<div style=""display: flex; flex-direction: column; align-items: center; margin-top: -40px;""><img src=""images/pattern_6.png"" style=""width: 234px; height: 230px; margin-top: -50px;""><div style=""display: flex; justify-content: space-between; margin-top: 33px;""><img src=""images/choice_trial_16.png"" style=""width: 408px; height: 417px; margin-right: 200px;""><img src=""images/choice_trial_3.png"" style=""width: 408px; height: 417px;""></div></div>","f","delaylearn","learning","trial","610533112a76014519194fea","FMpUyQOdradjF3dRgdlmjnjMOGE3","3","images/choice_trial_16.png","images/choice_trial_3.png","images/pattern_6.png","j","f","750","16","3","5","0","35","1","0","16","250","","","","",""
"html-keyboard-response","195","393815","0.0-81.0-1.0","","null","<div style=""display: flex; flex-direction: column; align-items: center; margin-top: -40px;""><img src=""images/pattern_6.png"" style=""width: 234px; height: 230px; margin-top: -50px;""><div style=""display: flex; justify-content: space-between; margin-top: 33px;""><img src=""images/choice_trial_16.png"" style=""width: 408px; height: 417px; margin-right: 608px;""></div></div>","null","delaylearn","learning","display_response","610533112a76014519194fea","FMpUyQOdradjF3dRgdlmjnjMOGE3","","","","","","","","","","","","","","","","","chosen stimuli: images/choice_trial_16.png","","","",""
"html-keyboard-response","196","394570","0.0-81.0-2.0","","null","","null","delaylearn","learning","feedback_duration_window","610533112a76014519194fea","FMpUyQOdradjF3dRgdlmjnjMOGE3","","","","","","","","","","","","","","","","","","750","","",""
"html-keyboard-response","197","396079","0.0-81.0-3.0","","null","<div style='margin:auto;width: auto; font-size: 150%'><span style='font-weight: bold; font-size: 100px; color: red;'>0 points!</span><br><br></div>","null","delaylearn","learning","feedback_image_window","610533112a76014519194fea","FMpUyQOdradjF3dRgdlmjnjMOGE3","","","","","","","","","","","","","","","","","","","","",""
"html-keyboard-response","198","398162","0.0-82.0","","null","<div style=""font-size:100px;"">+</div>","null","delaylearn","learning","ITI","610533112a76014519194fea","FMpUyQOdradjF3dRgdlmjnjMOGE3","","","","","","","","","","","","","","","","","","","2079","",""
"html-keyboard-response","199","398962","0.0-83.0-0.0","","791.2000000011176","<div style=""display: flex; flex-direction: column; align-items: center; margin-top: -40px;""><img src=""images/pattern_3.png"" style=""width: 234px; height: 230px; margin-top: -50px;""><div style=""display: flex; justify-content: space-between; margin-top: 33px;""><img src=""images/choice_trial_10.png"" style=""width: 408px; height: 417px; margin-right: 200px;""><img src=""images/choice_trial_13.png"" style=""width: 408px; height: 417px;""></div></div>","j","delaylearn","learning","trial","610533112a76014519194fea","FMpUyQOdradjF3dRgdlmjnjMOGE3","3","images/choice_trial_10.png","images/choice_trial_13.png","images/pattern_3.png","j","j","7000","10","13","2","1","36","1","1","13","260","","","","",""
"html-keyboard-response","200","399971","0.0-83.0-1.0","","null","<div style=""display: flex; flex-direction: column; align-items: center; margin-top: -40px;""><img src=""images/pattern_3.png"" style=""width: 234px; height: 230px; margin-top: -50px;""><div style=""display: flex; justify-content: space-between; margin-top: 33px;""><img src=""images/choice_trial_13.png"" style=""width: 408px; height: 417px; margin-left:608px;""></div></div>","null","delaylearn","learning","display_response","610533112a76014519194fea","FMpUyQOdradjF3dRgdlmjnjMOGE3","","","","","","","","","","","","","","","","","chosen stimuli: images/choice_trial_13.png","","","",""
"html-keyboard-response","201","406975","0.0-83.0-2.0","","null","","null","delaylearn","learning","feedback_duration_window","610533112a76014519194fea","FMpUyQOdradjF3dRgdlmjnjMOGE3","","","","","","","","","","","","","","","","","","7000","","",""
"html-keyboard-response","202","408482","0.0-83.0-3.0","","null","<div style='margin:auto;width: auto; font-size: 150%'><span style='font-weight: bold; font-size: 100px; color: green;'>+10 points!</span><br><br></div>","null","delaylearn","learning","feedback_image_window","610533112a76014519194fea","FMpUyQOdradjF3dRgdlmjnjMOGE3","","","","","","","","","","","","","","","","","","","","",""
"html-keyboard-response","203","410153","0.0-84.0","","null","<div style=""font-size:100px;"">+</div>","null","delaylearn","learning","ITI","610533112a76014519194fea","FMpUyQOdradjF3dRgdlmjnjMOGE3","","","","","","","","","","","","","","","","","","","1663","",""
"html-keyboard-response","204","411078","0.0-85.0-0.0","","913.2000000011176","<div style=""display: flex; flex-direction: column; align-items: center; margin-top: -40px;""><img src=""images/pattern_4.png"" style=""width: 234px; height: 230px; margin-top: -50px;""><div style=""display: flex; justify-content: space-between; margin-top: 33px;""><img src=""images/choice_trial_9.png"" style=""width: 408px; height: 417px; margin-right: 200px;""><img src=""images/choice_trial_15.png"" style=""width: 408px; height: 417px;""></div></div>","j","delaylearn","learning","trial","610533112a76014519194fea","FMpUyQOdradjF3dRgdlmjnjMOGE3","3","images/choice_trial_9.png","images/choice_trial_15.png","images/pattern_4.png","f","j","7000","9","15","3","1","37","1","0","15","260","","","","",""
"html-keyboard-response","205","412087","0.0-85.0-1.0","","null","<div style=""display: flex; flex-direction: column; align-items: center; margin-top: -40px;""><img src=""images/pattern_4.png"" style=""width: 234px; height: 230px; margin-top: -50px;""><div style=""display: flex; justify-content: space-between; margin-top: 33px;""><img src=""images/choice_trial_15.png"" style=""width: 408px; height: 417px; margin-left:608px;""></div></div>","null","delaylearn","learning","display_response","610533112a76014519194fea","FMpUyQOdradjF3dRgdlmjnjMOGE3","","","","","","","","","","","","","","","","","chosen stimuli: images/choice_trial_15.png","","","",""
"html-keyboard-response","206","419094","0.0-85.0-2.0","","null","","null","delaylearn","learning","feedback_duration_window","610533112a76014519194fea","FMpUyQOdradjF3dRgdlmjnjMOGE3","","","","","","","","","","","","","","","","","","7000","","",""
"html-keyboard-response","207","420604","0.0-85.0-3.0","","null","<div style='margin:auto;width: auto; font-size: 150%'><span style='font-weight: bold; font-size: 100px; color: red;'>0 points!</span><br><br></div>","null","delaylearn","learning","feedback_image_window","610533112a76014519194fea","FMpUyQOdradjF3dRgdlmjnjMOGE3","","","","","","","","","","","","","","","","","","","","",""
"html-keyboard-response","208","422624","0.0-86.0","","null","<div style=""font-size:100px;"">+</div>","null","delaylearn","learning","ITI","610533112a76014519194fea","FMpUyQOdradjF3dRgdlmjnjMOGE3","","","","","","","","","","","","","","","","","","","2014","",""
"html-keyboard-response","209","423809","0.0-87.0-0.0","","1170.199999999255","<div style=""display: flex; flex-direction: column; align-items: center; margin-top: -40px;""><img src=""images/pattern_7.png"" style=""width: 234px; height: 230px; margin-top: -50px;""><div style=""display: flex; justify-content: space-between; margin-top: 33px;""><img src=""images/choice_trial_6.png"" style=""width: 408px; height: 417px; margin-right: 200px;""><img src=""images/choice_trial_12.png"" style=""width: 408px; height: 417px;""></div></div>","f","delaylearn","learning","trial","610533112a76014519194fea","FMpUyQOdradjF3dRgdlmjnjMOGE3","3","images/choice_trial_6.png","images/choice_trial_12.png","images/pattern_7.png","f","f","750","6","12","6","0","38","1","1","6","270","","","","",""
"html-keyboard-response","210","424817","0.0-87.0-1.0","","null","<div style=""display: flex; flex-direction: column; align-items: center; margin-top: -40px;""><img src=""images/pattern_7.png"" style=""width: 234px; height: 230px; margin-top: -50px;""><div style=""display: flex; justify-content: space-between; margin-top: 33px;""><img src=""images/choice_trial_6.png"" style=""width: 408px; height: 417px; margin-right: 608px;""></div></div>","null","delaylearn","learning","display_response","610533112a76014519194fea","FMpUyQOdradjF3dRgdlmjnjMOGE3","","","","","","","","","","","","","","","","","chosen stimuli: images/choice_trial_6.png","","","",""
"html-keyboard-response","211","425571","0.0-87.0-2.0","","null","","null","delaylearn","learning","feedback_duration_window","610533112a76014519194fea","FMpUyQOdradjF3dRgdlmjnjMOGE3","","","","","","","","","","","","","","","","","","750","","",""
"html-keyboard-response","212","427080","0.0-87.0-3.0","","null","<div style='margin:auto;width: auto; font-size: 150%'><span style='font-weight: bold; font-size: 100px; color: green;'>+10 points!</span><br><br></div>","null","delaylearn","learning","feedback_image_window","610533112a76014519194fea","FMpUyQOdradjF3dRgdlmjnjMOGE3","","","","","","","","","","","","","","","","","","","","",""
"html-keyboard-response","213","428771","0.0-88.0","","null","<div style=""font-size:100px;"">+</div>","null","delaylearn","learning","ITI","610533112a76014519194fea","FMpUyQOdradjF3dRgdlmjnjMOGE3","","","","","","","","","","","","","","","","","","","1685","",""
"html-keyboard-response","214","429710","0.0-89.0-0.0","","924.5999999996275","<div style=""display: flex; flex-direction: column; align-items: center; margin-top: -40px;""><img src=""images/pattern_1.png"" style=""width: 234px; height: 230px; margin-top: -50px;""><div style=""display: flex; justify-content: space-between; margin-top: 33px;""><img src=""images/choice_trial_14.png"" style=""width: 408px; height: 417px; margin-right: 200px;""><img src=""images/choice_trial_8.png"" style=""width: 408px; height: 417px;""></div></div>","f","delaylearn","learning","trial","610533112a76014519194fea","FMpUyQOdradjF3dRgdlmjnjMOGE3","3","images/choice_trial_14.png","images/choice_trial_8.png","images/pattern_1.png","f","f","7000","14","8","1","0","39","1","1","14","280","","","","",""
"html-keyboard-response","215","430720","0.0-89.0-1.0","","null","<div style=""display: flex; flex-direction: column; align-items: center; margin-top: -40px;""><img src=""images/pattern_1.png"" style=""width: 234px; height: 230px; margin-top: -50px;""><div style=""display: flex; justify-content: space-between; margin-top: 33px;""><img src=""images/choice_trial_14.png"" style=""width: 408px; height: 417px; margin-right: 608px;""></div></div>","null","delaylearn","learning","display_response","610533112a76014519194fea","FMpUyQOdradjF3dRgdlmjnjMOGE3","","","","","","","","","","","","","","","","","chosen stimuli: images/choice_trial_14.png","","","",""
"html-keyboard-response","216","437727","0.0-89.0-2.0","","null","","null","delaylearn","learning","feedback_duration_window","610533112a76014519194fea","FMpUyQOdradjF3dRgdlmjnjMOGE3","","","","","","","","","","","","","","","","","","7000","","",""
"html-keyboard-response","217","439237","0.0-89.0-3.0","","null","<div style='margin:auto;width: auto; font-size: 150%'><span style='font-weight: bold; font-size: 100px; color: green;'>+10 points!</span><br><br></div>","null","delaylearn","learning","feedback_image_window","610533112a76014519194fea","FMpUyQOdradjF3dRgdlmjnjMOGE3","","","","","","","","","","","","","","","","","","","","",""
"html-keyboard-response","218","439742","0.0-90.0-0.0","","null","","null","","","mood_trial_fixation","","","","","","","","","","","","","","","","","","","","","","",""
"lmdlab-html-vas-response","219","443379","0.0-90.0-1.0","","2617","How happy are you right now?","0.22983278201978052","delaylearn","learning","mood_trial","610533112a76014519194fea","FMpUyQOdradjF3dRgdlmjnjMOGE3","","","","","","","","","","","","","","","","","","","","[""Very unhappy"",""Very happy""]",""
"html-keyboard-response","220","445008","0.0-91.0","","null","<div style=""font-size:100px;"">+</div>","null","delaylearn","learning","ITI","610533112a76014519194fea","FMpUyQOdradjF3dRgdlmjnjMOGE3","","","","","","","","","","","","","","","","","","","1624","",""
