"trial_type","trial_index","time_elapsed","internal_node_id","participant","rt","stimulus","response","exp_name","exp_stage","test_part","subjectID","databaseID","counterbal","choice_stimuli_1","choice_stimuli_2","pattern_stimuli","rewarded_answer","correct_answer","feedback_duration_times","stim_left","stim_right","pair","leftright_counter","trial","response_correct","response_rewarded","chosen_stim","counter","displayed_choice","feedback_durations","ITI_duration","labels","rest_warning"
"pavlovia","0","522","0.0-0.0","","","","","","","","","","","","","","","","","","","","","","","","","","","","","",""
"html-keyboard-response","1","3536","0.0-1.0","","null","<div style=""font-size:100px;"">+</div>","null","delaylearn","learning","pre_fixation","5feb9a64d42dc5c4926ffe03","","","","","","","","","","","","","","","","","","","","","",""
"html-keyboard-response","2","4952","0.0-2.0-0.0","","1412.699999999255","<div style=""display: flex; flex-direction: column; align-items: center; margin-top: -40px;""><img src=""images/demo_images/pattern_1.png"" style=""width: 234px; height: 230px; margin-top: -50px;""><div style=""display: flex; justify-content: space-between; margin-top: 33px;""><img src=""images/demo_images/choice_trial_2.png"" style=""width: 408px; height: 417px; margin-right: 200px;""><img src=""images/demo_images/choice_trial_1.png"" style=""width: 408px; height: 417px;""></div></div>","j","delaylearn","learning","trial","5feb9a64d42dc5c4926ffe03","4ZoiaWCqZ2ZuKIM6Z9hR73OcHrS2","2","images/demo_images/choice_trial_2.png","images/demo_images/choice_trial_1.png","images/demo_images/pattern_1.png","j","j","3000","2","1","20","1","1","1","1","1","10","","","","",""
"html-keyboard-response","3","5957","0.0-2.0-1.0","","null","<div style=""display: flex; flex-direction: column; align-items: center; margin-top: -40px;""><img src=""images/demo_images/pattern_1.png"" style=""width: 234px; height: 230px; margin-top: -50px;""><div style=""display: flex; justify-content: space-between; margin-top: 33px;""><img src=""images/demo_images/choice_trial_1.png"" style=""width: 408px; height: 417px; margin-left:608px;""></div></div>","null","delaylearn","learning","display_response","5feb9a64d42dc5c4926ffe03","4ZoiaWCqZ2ZuKIM6Z9hR73OcHrS2","","","","","","","","","","","","","","","","","chosen stimuli: images/demo_images/choice_trial_1.png","","","",""
"html-keyboard-response","4","8967","0.0-2.0-2.0","","null","","null","delaylearn","learning","feedback_duration_window","5feb9a64d42dc5c4926ffe03","4ZoiaWCqZ2ZuKIM6Z9hR73OcHrS2","","","","","","","","","","","","","","","","","","3000","","",""
"html-keyboard-response","5","10470","0.0-2.0-3.0","","null","<div style='margin:auto;width: auto; font-size: 150%'><span style='font-weight: bold; font-size: 100px; color: green;'>+10 points!</span><br><br></div>","null","delaylearn","learning","feedback_image_window","5feb9a64d42dc5c4926ffe03","4ZoiaWCqZ2ZuKIM6Z9hR73OcHrS2","","","","","","","","","","","","","","","","","","","","",""
"html-keyboard-response","6","12647","0.0-3.0","","null","<div style=""font-size:100px;"">+</div>","null","delaylearn","learning","ITI","5feb9a64d42dc5c4926ffe03","4ZoiaWCqZ2ZuKIM6Z9hR73OcHrS2","","","","","","","","","","","","","","","","","","","2162","",""
"html-keyboard-response","7","14219","0.0-4.0-0.0","","1569.1000000014901","<div style=""display: flex; flex-direction: column; align-items: center; margin-top: -40px;""><img src=""images/demo_images/pattern_1.png"" style=""width: 234px; height: 230px; margin-top: -50px;""><div style=""display: flex; justify-content: space-between; margin-top: 33px;""><img src=""images/demo_images/choice_trial_2.png"" style=""width: 408px; height: 417px; margin-right: 200px;""><img src=""images/demo_images/choice_trial_1.png"" style=""width: 408px; height: 417px;""></div></div>","j","delaylearn","learning","trial","5feb9a64d42dc5c4926ffe03","4ZoiaWCqZ2ZuKIM6Z9hR73OcHrS2","2","images/demo_images/choice_trial_2.png","images/demo_images/choice_trial_1.png","images/demo_images/pattern_1.png","j","j","3000","2","1","20","1","2","1","1","1","20","","","","",""
"html-keyboard-response","8","15232","0.0-4.0-1.0","","null","<div style=""display: flex; flex-direction: column; align-items: center; margin-top: -40px;""><img src=""images/demo_images/pattern_1.png"" style=""width: 234px; height: 230px; margin-top: -50px;""><div style=""display: flex; justify-content: space-between; margin-top: 33px;""><img src=""images/demo_images/choice_trial_1.png"" style=""width: 408px; height: 417px; margin-left:608px;""></div></div>","null","delaylearn","learning","display_response","5feb9a64d42dc5c4926ffe03","4ZoiaWCqZ2ZuKIM6Z9hR73OcHrS2","","","","","","","","","","","","","","","","","chosen stimuli: images/demo_images/choice_trial_1.png","","","",""
"html-keyboard-response","9","18243","0.0-4.0-2.0","","null","","null","delaylearn","learning","feedback_duration_window","5feb9a64d42dc5c4926ffe03","4ZoiaWCqZ2ZuKIM6Z9hR73OcHrS2","","","","","","","","","","","","","","","","","","3000","","",""
"html-keyboard-response","10","19760","0.0-4.0-3.0","","null","<div style='margin:auto;width: auto; font-size: 150%'><span style='font-weight: bold; font-size: 100px; color: green;'>+10 points!</span><br><br></div>","null","delaylearn","learning","feedback_image_window","5feb9a64d42dc5c4926ffe03","4ZoiaWCqZ2ZuKIM6Z9hR73OcHrS2","","","","","","","","","","","","","","","","","","","","",""
"html-keyboard-response","11","21886","0.0-5.0","","null","<div style=""font-size:100px;"">+</div>","null","delaylearn","learning","ITI","5feb9a64d42dc5c4926ffe03","4ZoiaWCqZ2ZuKIM6Z9hR73OcHrS2","","","","","","","","","","","","","","","","","","","2111","",""
"html-keyboard-response","12","23092","0.0-6.0-0.0","","1204.300000000745","<div style=""display: flex; flex-direction: column; align-items: center; margin-top: -40px;""><img src=""images/demo_images/pattern_1.png"" style=""width: 234px; height: 230px; margin-top: -50px;""><div style=""display: flex; justify-content: space-between; margin-top: 33px;""><img src=""images/demo_images/choice_trial_1.png"" style=""width: 408px; height: 417px; margin-right: 200px;""><img src=""images/demo_images/choice_trial_2.png"" style=""width: 408px; height: 417px;""></div></div>","f","delaylearn","learning","trial","5feb9a64d42dc5c4926ffe03","4ZoiaWCqZ2ZuKIM6Z9hR73OcHrS2","2","images/demo_images/choice_trial_1.png","images/demo_images/choice_trial_2.png","images/demo_images/pattern_1.png","j","f","3000","1","2","20","0","3","1","0","1","20","","","","",""
"html-keyboard-response","13","24094","0.0-6.0-1.0","","null","<div style=""display: flex; flex-direction: column; align-items: center; margin-top: -40px;""><img src=""images/demo_images/pattern_1.png"" style=""width: 234px; height: 230px; margin-top: -50px;""><div style=""display: flex; justify-content: space-between; margin-top: 33px;""><img src=""images/demo_images/choice_trial_1.png"" style=""width: 408px; height: 417px; margin-right: 608px;""></div></div>","null","delaylearn","learning","display_response","5feb9a64d42dc5c4926ffe03","4ZoiaWCqZ2ZuKIM6Z9hR73OcHrS2","","","","","","","","","","","","","","","","","chosen stimuli: images/demo_images/choice_trial_1.png","","","",""
"html-keyboard-response","14","27109","0.0-6.0-2.0","","null","","null","delaylearn","learning","feedback_duration_window","5feb9a64d42dc5c4926ffe03","4ZoiaWCqZ2ZuKIM6Z9hR73OcHrS2","","","","","","","","","","","","","","","","","","3000","","",""
"html-keyboard-response","15","28620","0.0-6.0-3.0","","null","<div style='margin:auto;width: auto; font-size: 150%'><span style='font-weight: bold; font-size: 100px; color: red;'>0 points!</span><br><br></div>","null","delaylearn","learning","feedback_image_window","5feb9a64d42dc5c4926ffe03","4ZoiaWCqZ2ZuKIM6Z9hR73OcHrS2","","","","","","","","","","","","","","","","","","","","",""
"html-keyboard-response","16","30684","0.0-7.0","","null","<div style=""font-size:100px;"">+</div>","null","delaylearn","learning","ITI","5feb9a64d42dc5c4926ffe03","4ZoiaWCqZ2ZuKIM6Z9hR73OcHrS2","","","","","","","","","","","","","","","","","","","2049","",""
"html-keyboard-response","17","32319","0.0-8.0-0.0","","1632","<div style=""display: flex; flex-direction: column; align-items: center; margin-top: -40px;""><img src=""images/demo_images/pattern_1.png"" style=""width: 234px; height: 230px; margin-top: -50px;""><div style=""display: flex; justify-content: space-between; margin-top: 33px;""><img src=""images/demo_images/choice_trial_1.png"" style=""width: 408px; height: 417px; margin-right: 200px;""><img src=""images/demo_images/choice_trial_2.png"" style=""width: 408px; height: 417px;""></div></div>","f","delaylearn","learning","trial","5feb9a64d42dc5c4926ffe03","4ZoiaWCqZ2ZuKIM6Z9hR73OcHrS2","2","images/demo_images/choice_trial_1.png","images/demo_images/choice_trial_2.png","images/demo_images/pattern_1.png","f","f","3000","1","2","20","0","4","1","1","1","30","","","","",""
"html-keyboard-response","18","33322","0.0-8.0-1.0","","null","<div style=""display: flex; flex-direction: column; align-items: center; margin-top: -40px;""><img src=""images/demo_images/pattern_1.png"" style=""width: 234px; height: 230px; margin-top: -50px;""><div style=""display: flex; justify-content: space-between; margin-top: 33px;""><img src=""images/demo_images/choice_trial_1.png"" style=""width: 408px; height: 417px; margin-right: 608px;""></div></div>","null","delaylearn","learning","display_response","5feb9a64d42dc5c4926ffe03","4ZoiaWCqZ2ZuKIM6Z9hR73OcHrS2","","","","","","","","","","","","","","","","","chosen stimuli: images/demo_images/choice_trial_1.png","","","",""
"html-keyboard-response","19","36335","0.0-8.0-2.0","","null","","null","delaylearn","learning","feedback_duration_window","5feb9a64d42dc5c4926ffe03","4ZoiaWCqZ2ZuKIM6Z9hR73OcHrS2","","","","","","","","","","","","","","","","","","3000","","",""
"html-keyboard-response","20","37842","0.0-8.0-3.0","","null","<div style='margin:auto;width: auto; font-size: 150%'><span style='font-weight: bold; font-size: 100px; color: green;'>+10 points!</span><br><br></div>","null","delaylearn","learning","feedback_image_window","5feb9a64d42dc5c4926ffe03","4ZoiaWCqZ2ZuKIM6Z9hR73OcHrS2","","","","","","","","","","","","","","","","","","","","",""
"html-keyboard-response","21","38355","0.0-9.0-0.0","","null","","null","","","mood_trial_fixation","","","","","","","","","","","","","","","","","","","","","","",""
"lmdlab-html-vas-response","22","44364","0.0-9.0-1.0","","4986","How happy are you right now?","0.9475549204529694","delaylearn","learning","mood_trial","5feb9a64d42dc5c4926ffe03","4ZoiaWCqZ2ZuKIM6Z9hR73OcHrS2","","","","","","","","","","","","","","","","","","","","[""Very unhappy"",""Very happy""]",""
"html-keyboard-response","23","46481","0.0-10.0","","null","<div style=""font-size:100px;"">+</div>","null","delaylearn","learning","ITI","5feb9a64d42dc5c4926ffe03","4ZoiaWCqZ2ZuKIM6Z9hR73OcHrS2","","","","","","","","","","","","","","","","","","","2112","",""
"html-keyboard-response","24","47671","0.0-11.0-0.0","","1188","<div style=""display: flex; flex-direction: column; align-items: center; margin-top: -40px;""><img src=""images/demo_images/pattern_1.png"" style=""width: 234px; height: 230px; margin-top: -50px;""><div style=""display: flex; justify-content: space-between; margin-top: 33px;""><img src=""images/demo_images/choice_trial_2.png"" style=""width: 408px; height: 417px; margin-right: 200px;""><img src=""images/demo_images/choice_trial_1.png"" style=""width: 408px; height: 417px;""></div></div>","j","delaylearn","learning","trial","5feb9a64d42dc5c4926ffe03","4ZoiaWCqZ2ZuKIM6Z9hR73OcHrS2","2","images/demo_images/choice_trial_2.png","images/demo_images/choice_trial_1.png","images/demo_images/pattern_1.png","j","j","3000","2","1","20","1","5","1","1","1","40","","","","",""
"html-keyboard-response","25","48687","0.0-11.0-1.0","","null","<div style=""display: flex; flex-direction: column; align-items: center; margin-top: -40px;""><img src=""images/demo_images/pattern_1.png"" style=""width: 234px; height: 230px; margin-top: -50px;""><div style=""display: flex; justify-content: space-between; margin-top: 33px;""><img src=""images/demo_images/choice_trial_1.png"" style=""width: 408px; height: 417px; margin-left:608px;""></div></div>","null","delaylearn","learning","display_response","5feb9a64d42dc5c4926ffe03","4ZoiaWCqZ2ZuKIM6Z9hR73OcHrS2","","","","","","","","","","","","","","","","","chosen stimuli: images/demo_images/choice_trial_1.png","","","",""
"html-keyboard-response","26","51689","0.0-11.0-2.0","","null","","null","delaylearn","learning","feedback_duration_window","5feb9a64d42dc5c4926ffe03","4ZoiaWCqZ2ZuKIM6Z9hR73OcHrS2","","","","","","","","","","","","","","","","","","3000","","",""
"html-keyboard-response","27","53199","0.0-11.0-3.0","","null","<div style='margin:auto;width: auto; font-size: 150%'><span style='font-weight: bold; font-size: 100px; color: green;'>+10 points!</span><br><br></div>","null","delaylearn","learning","feedback_image_window","5feb9a64d42dc5c4926ffe03","4ZoiaWCqZ2ZuKIM6Z9hR73OcHrS2","","","","","","","","","","","","","","","","","","","","",""
"html-keyboard-response","28","55272","0.0-12.0","","null","<div style=""font-size:100px;"">+</div>","null","delaylearn","learning","ITI","5feb9a64d42dc5c4926ffe03","4ZoiaWCqZ2ZuKIM6Z9hR73OcHrS2","","","","","","","","","","","","","","","","","","","2059","",""
"html-keyboard-response","29","56207","0.0-13.0-0.0","","932.6000000014901","<div style=""display: flex; flex-direction: column; align-items: center; margin-top: -40px;""><img src=""images/demo_images/pattern_1.png"" style=""width: 234px; height: 230px; margin-top: -50px;""><div style=""display: flex; justify-content: space-between; margin-top: 33px;""><img src=""images/demo_images/choice_trial_1.png"" style=""width: 408px; height: 417px; margin-right: 200px;""><img src=""images/demo_images/choice_trial_2.png"" style=""width: 408px; height: 417px;""></div></div>","f","delaylearn","learning","trial","5feb9a64d42dc5c4926ffe03","4ZoiaWCqZ2ZuKIM6Z9hR73OcHrS2","2","images/demo_images/choice_trial_1.png","images/demo_images/choice_trial_2.png","images/demo_images/pattern_1.png","f","f","3000","1","2","20","0","6","1","1","1","50","","","","",""
"html-keyboard-response","30","57214","0.0-13.0-1.0","","null","<div style=""display: flex; flex-direction: column; align-items: center; margin-top: -40px;""><img src=""images/demo_images/pattern_1.png"" style=""width: 234px; height: 230px; margin-top: -50px;""><div style=""display: flex; justify-content: space-between; margin-top: 33px;""><img src=""images/demo_images/choice_trial_1.png"" style=""width: 408px; height: 417px; margin-right: 608px;""></div></div>","null","delaylearn","learning","display_response","5feb9a64d42dc5c4926ffe03","4ZoiaWCqZ2ZuKIM6Z9hR73OcHrS2","","","","","","","","","","","","","","","","","chosen stimuli: images/demo_images/choice_trial_1.png","","","",""
"html-keyboard-response","31","60216","0.0-13.0-2.0","","null","","null","delaylearn","learning","feedback_duration_window","5feb9a64d42dc5c4926ffe03","4ZoiaWCqZ2ZuKIM6Z9hR73OcHrS2","","","","","","","","","","","","","","","","","","3000","","",""
"html-keyboard-response","32","61726","0.0-13.0-3.0","","null","<div style='margin:auto;width: auto; font-size: 150%'><span style='font-weight: bold; font-size: 100px; color: green;'>+10 points!</span><br><br></div>","null","delaylearn","learning","feedback_image_window","5feb9a64d42dc5c4926ffe03","4ZoiaWCqZ2ZuKIM6Z9hR73OcHrS2","","","","","","","","","","","","","","","","","","","","",""
"html-keyboard-response","33","63542","0.0-14.0","","null","<div style=""font-size:100px;"">+</div>","null","delaylearn","learning","ITI","5feb9a64d42dc5c4926ffe03","4ZoiaWCqZ2ZuKIM6Z9hR73OcHrS2","","","","","","","","","","","","","","","","","","","1805","",""
"html-keyboard-response","34","64455","0.0-15.0-0.0","","910.7999999970198","<div style=""display: flex; flex-direction: column; align-items: center; margin-top: -40px;""><img src=""images/demo_images/pattern_1.png"" style=""width: 234px; height: 230px; margin-top: -50px;""><div style=""display: flex; justify-content: space-between; margin-top: 33px;""><img src=""images/demo_images/choice_trial_2.png"" style=""width: 408px; height: 417px; margin-right: 200px;""><img src=""images/demo_images/choice_trial_1.png"" style=""width: 408px; height: 417px;""></div></div>","j","delaylearn","learning","trial","5feb9a64d42dc5c4926ffe03","4ZoiaWCqZ2ZuKIM6Z9hR73OcHrS2","2","images/demo_images/choice_trial_2.png","images/demo_images/choice_trial_1.png","images/demo_images/pattern_1.png","j","j","3000","2","1","20","1","7","1","1","1","60","","","","",""
"html-keyboard-response","35","65464","0.0-15.0-1.0","","null","<div style=""display: flex; flex-direction: column; align-items: center; margin-top: -40px;""><img src=""images/demo_images/pattern_1.png"" style=""width: 234px; height: 230px; margin-top: -50px;""><div style=""display: flex; justify-content: space-between; margin-top: 33px;""><img src=""images/demo_images/choice_trial_1.png"" style=""width: 408px; height: 417px; margin-left:608px;""></div></div>","null","delaylearn","learning","display_response","5feb9a64d42dc5c4926ffe03","4ZoiaWCqZ2ZuKIM6Z9hR73OcHrS2","","","","","","","","","","","","","","","","","chosen stimuli: images/demo_images/choice_trial_1.png","","","",""
"html-keyboard-response","36","68467","0.0-15.0-2.0","","null","","null","delaylearn","learning","feedback_duration_window","5feb9a64d42dc5c4926ffe03","4ZoiaWCqZ2ZuKIM6Z9hR73OcHrS2","","","","","","","","","","","","","","","","","","3000","","",""
"html-keyboard-response","37","69975","0.0-15.0-3.0","","null","<div style='margin:auto;width: auto; font-size: 150%'><span style='font-weight: bold; font-size: 100px; color: green;'>+10 points!</span><br><br></div>","null","delaylearn","learning","feedback_image_window","5feb9a64d42dc5c4926ffe03","4ZoiaWCqZ2ZuKIM6Z9hR73OcHrS2","","","","","","","","","","","","","","","","","","","","",""
"html-keyboard-response","38","72101","0.0-16.0","","null","<div style=""font-size:100px;"">+</div>","null","delaylearn","learning","ITI","5feb9a64d42dc5c4926ffe03","4ZoiaWCqZ2ZuKIM6Z9hR73OcHrS2","","","","","","","","","","","","","","","","","","","2123","",""
"html-keyboard-response","39","72800","0.0-17.0-0.0","","696.1000000014901","<div style=""display: flex; flex-direction: column; align-items: center; margin-top: -40px;""><img src=""images/demo_images/pattern_1.png"" style=""width: 234px; height: 230px; margin-top: -50px;""><div style=""display: flex; justify-content: space-between; margin-top: 33px;""><img src=""images/demo_images/choice_trial_1.png"" style=""width: 408px; height: 417px; margin-right: 200px;""><img src=""images/demo_images/choice_trial_2.png"" style=""width: 408px; height: 417px;""></div></div>","f","delaylearn","learning","trial","5feb9a64d42dc5c4926ffe03","4ZoiaWCqZ2ZuKIM6Z9hR73OcHrS2","2","images/demo_images/choice_trial_1.png","images/demo_images/choice_trial_2.png","images/demo_images/pattern_1.png","f","f","3000","1","2","20","0","8","1","1","1","70","","","","",""
"html-keyboard-response","40","73810","0.0-17.0-1.0","","null","<div style=""display: flex; flex-direction: column; align-items: center; margin-top: -40px;""><img src=""images/demo_images/pattern_1.png"" style=""width: 234px; height: 230px; margin-top: -50px;""><div style=""display: flex; justify-content: space-between; margin-top: 33px;""><img src=""images/demo_images/choice_trial_1.png"" style=""width: 408px; height: 417px; margin-right: 608px;""></div></div>","null","delaylearn","learning","display_response","5feb9a64d42dc5c4926ffe03","4ZoiaWCqZ2ZuKIM6Z9hR73OcHrS2","","","","","","","","","","","","","","","","","chosen stimuli: images/demo_images/choice_trial_1.png","","","",""
"html-keyboard-response","41","76820","0.0-17.0-2.0","","null","","null","delaylearn","learning","feedback_duration_window","5feb9a64d42dc5c4926ffe03","4ZoiaWCqZ2ZuKIM6Z9hR73OcHrS2","","","","","","","","","","","","","","","","","","3000","","",""
"html-keyboard-response","42","78324","0.0-17.0-3.0","","null","<div style='margin:auto;width: auto; font-size: 150%'><span style='font-weight: bold; font-size: 100px; color: green;'>+10 points!</span><br><br></div>","null","delaylearn","learning","feedback_image_window","5feb9a64d42dc5c4926ffe03","4ZoiaWCqZ2ZuKIM6Z9hR73OcHrS2","","","","","","","","","","","","","","","","","","","","",""
"html-button-response","43","81403","0.0-18.0","","3076.900000002235","
  <div style=""display: flex; align-items: center; justify-content: center; height: 80vh;"">
  <div>
          <img src=""images/inst_demo_finish.png"" style=""width: 80vw; height:auto;"">
          <br><br>
      </div>
      <br><br>
  </div>","0","","","","","","","","","","","","","","","","","","","","","","","","","",""
"html-keyboard-response","44","84003","0.0-19.0","","2598.900000002235","
  <div style=""display: flex; align-items: center; justify-content: center; height: 80vh;"">
  <div>
          <img src=""images/inst_6.png"" style=""width: 80vw; height:auto;"">
          <br><br>
      </div>
      <br><br>
  </div>","f","","","","","","","","","","","","","","","","","","","","","","","","","",""
"html-keyboard-response","45","87013","0.0-20.0","","null","<div style=""font-size:100px;"">+</div>","null","delaylearn","learning","pre_fixation","5feb9a64d42dc5c4926ffe03","","","","","","","","","","","","","","","","","","","","","",""
"html-keyboard-response","46","89450","0.0-21.0","","null","<div style=""font-size:100px;"">+</div>","null","delaylearn","learning","ITI","5feb9a64d42dc5c4926ffe03","4ZoiaWCqZ2ZuKIM6Z9hR73OcHrS2","","","","","","","","","","","","","","","","","","","2430","",""
"html-keyboard-response","47","91110","0.0-22.0-0.0","","1658.0999999977648","<div style=""display: flex; flex-direction: column; align-items: center; margin-top: -40px;""><img src=""images/pattern_3.png"" style=""width: 234px; height: 230px; margin-top: -50px;""><div style=""display: flex; justify-content: space-between; margin-top: 33px;""><img src=""images/choice_trial_12.png"" style=""width: 408px; height: 417px; margin-right: 200px;""><img src=""images/choice_trial_14.png"" style=""width: 408px; height: 417px;""></div></div>","j","delaylearn","learning","trial","5feb9a64d42dc5c4926ffe03","4ZoiaWCqZ2ZuKIM6Z9hR73OcHrS2","2","images/choice_trial_12.png","images/choice_trial_14.png","images/pattern_3.png","f","f","7000","12","14","2","0","9","0","0","14","70","","","","",""
"html-keyboard-response","48","92118","0.0-22.0-1.0","","null","<div style=""display: flex; flex-direction: column; align-items: center; margin-top: -40px;""><img src=""images/pattern_3.png"" style=""width: 234px; height: 230px; margin-top: -50px;""><div style=""display: flex; justify-content: space-between; margin-top: 33px;""><img src=""images/choice_trial_14.png"" style=""width: 408px; height: 417px; margin-left:608px;""></div></div>","null","delaylearn","learning","display_response","5feb9a64d42dc5c4926ffe03","4ZoiaWCqZ2ZuKIM6Z9hR73OcHrS2","","","","","","","","","","","","","","","","","chosen stimuli: images/choice_trial_14.png","","","",""
"html-keyboard-response","49","99123","0.0-22.0-2.0","","null","","null","delaylearn","learning","feedback_duration_window","5feb9a64d42dc5c4926ffe03","4ZoiaWCqZ2ZuKIM6Z9hR73OcHrS2","","","","","","","","","","","","","","","","","","7000","","",""
"html-keyboard-response","50","100632","0.0-22.0-3.0","","null","<div style='margin:auto;width: auto; font-size: 150%'><span style='font-weight: bold; font-size: 100px; color: red;'>0 points!</span><br><br></div>","null","delaylearn","learning","feedback_image_window","5feb9a64d42dc5c4926ffe03","4ZoiaWCqZ2ZuKIM6Z9hR73OcHrS2","","","","","","","","","","","","","","","","","","","","",""
"html-keyboard-response","51","102264","0.0-23.0","","null","<div style=""font-size:100px;"">+</div>","null","delaylearn","learning","ITI","5feb9a64d42dc5c4926ffe03","4ZoiaWCqZ2ZuKIM6Z9hR73OcHrS2","","","","","","","","","","","","","","","","","","","1627","",""
"html-keyboard-response","52","104159","0.0-24.0-0.0","","1892.800000000745","<div style=""display: flex; flex-direction: column; align-items: center; margin-top: -40px;""><img src=""images/pattern_7.png"" style=""width: 234px; height: 230px; margin-top: -50px;""><div style=""display: flex; justify-content: space-between; margin-top: 33px;""><img src=""images/choice_trial_15.png"" style=""width: 408px; height: 417px; margin-right: 200px;""><img src=""images/choice_trial_8.png"" style=""width: 408px; height: 417px;""></div></div>","f","delaylearn","learning","trial","5feb9a64d42dc5c4926ffe03","4ZoiaWCqZ2ZuKIM6Z9hR73OcHrS2","2","images/choice_trial_15.png","images/choice_trial_8.png","images/pattern_7.png","j","j","750","15","8","6","1","10","0","0","15","70","","","","",""
"html-keyboard-response","53","105166","0.0-24.0-1.0","","null","<div style=""display: flex; flex-direction: column; align-items: center; margin-top: -40px;""><img src=""images/pattern_7.png"" style=""width: 234px; height: 230px; margin-top: -50px;""><div style=""display: flex; justify-content: space-between; margin-top: 33px;""><img src=""images/choice_trial_15.png"" style=""width: 408px; height: 417px; margin-right: 608px;""></div></div>","null","delaylearn","learning","display_response","5feb9a64d42dc5c4926ffe03","4ZoiaWCqZ2ZuKIM6Z9hR73OcHrS2","","","","","","","","","","","","","","","","","chosen stimuli: images/choice_trial_15.png","","","",""
"html-keyboard-response","54","105926","0.0-24.0-2.0","","null","","null","delaylearn","learning","feedback_duration_window","5feb9a64d42dc5c4926ffe03","4ZoiaWCqZ2ZuKIM6Z9hR73OcHrS2","","","","","","","","","","","","","","","","","","750","","",""
"html-keyboard-response","55","107429","0.0-24.0-3.0","","null","<div style='margin:auto;width: auto; font-size: 150%'><span style='font-weight: bold; font-size: 100px; color: red;'>0 points!</span><br><br></div>","null","delaylearn","learning","feedback_image_window","5feb9a64d42dc5c4926ffe03","4ZoiaWCqZ2ZuKIM6Z9hR73OcHrS2","","","","","","","","","","","","","","","","","","","","",""
"html-keyboard-response","56","109593","0.0-25.0","","null","<div style=""font-size:100px;"">+</div>","null","delaylearn","learning","ITI","5feb9a64d42dc5c4926ffe03","4ZoiaWCqZ2ZuKIM6Z9hR73OcHrS2","","","","","","","","","","","","","","","","","","","2154","",""
"html-keyboard-response","57","111199","0.0-26.0-0.0","","1602.9000000022352","<div style=""display: flex; flex-direction: column; align-items: center; margin-top: -40px;""><img src=""images/pattern_4.png"" style=""width: 234px; height: 230px; margin-top: -50px;""><div style=""display: flex; justify-content: space-between; margin-top: 33px;""><img src=""images/choice_trial_4.png"" style=""width: 408px; height: 417px; margin-right: 200px;""><img src=""images/choice_trial_16.png"" style=""width: 408px; height: 417px;""></div></div>","j","delaylearn","learning","trial","5feb9a64d42dc5c4926ffe03","4ZoiaWCqZ2ZuKIM6Z9hR73OcHrS2","2","images/choice_trial_4.png","images/choice_trial_16.png","images/pattern_4.png","f","f","7000","4","16","3","0","11","0","0","16","70","","","","",""
"html-keyboard-response","58","112207","0.0-26.0-1.0","","null","<div style=""display: flex; flex-direction: column; align-items: center; margin-top: -40px;""><img src=""images/pattern_4.png"" style=""width: 234px; height: 230px; margin-top: -50px;""><div style=""display: flex; justify-content: space-between; margin-top: 33px;""><img src=""images/choice_trial_16.png"" style=""width: 408px; height: 417px; margin-left:608px;""></div></div>","null","delaylearn","learning","display_response","5feb9a64d42dc5c4926ffe03","4ZoiaWCqZ2ZuKIM6Z9hR73OcHrS2","","","","","","","","","","","","","","","","","chosen stimuli: images/choice_trial_16.png","","","",""
"html-keyboard-response","59","119209","0.0-26.0-2.0","","null","","null","delaylearn","learning","feedback_duration_window","5feb9a64d42dc5c4926ffe03","4ZoiaWCqZ2ZuKIM6Z9hR73OcHrS2","","","","","","","","","","","","","","","","","","7000","","",""
"html-keyboard-response","60","120718","0.0-26.0-3.0","","null","<div style='margin:auto;width: auto; font-size: 150%'><span style='font-weight: bold; font-size: 100px; color: red;'>0 points!</span><br><br></div>","null","delaylearn","learning","feedback_image_window","5feb9a64d42dc5c4926ffe03","4ZoiaWCqZ2ZuKIM6Z9hR73OcHrS2","","","","","","","","","","","","","","","","","","","","",""
"html-keyboard-response","61","122645","0.0-27.0","","null","<div style=""font-size:100px;"">+</div>","null","delaylearn","learning","ITI","5feb9a64d42dc5c4926ffe03","4ZoiaWCqZ2ZuKIM6Z9hR73OcHrS2","","","","","","","","","","","","","","","","","","","1917","",""
"html-keyboard-response","62","124479","0.0-28.0-0.0","","1831.6000000014901","<div style=""display: flex; flex-direction: column; align-items: center; margin-top: -40px;""><img src=""images/pattern_5.png"" style=""width: 234px; height: 230px; margin-top: -50px;""><div style=""display: flex; justify-content: space-between; margin-top: 33px;""><img src=""images/choice_trial_9.png"" style=""width: 408px; height: 417px; margin-right: 200px;""><img src=""images/choice_trial_2.png"" style=""width: 408px; height: 417px;""></div></div>","f","delaylearn","learning","trial","5feb9a64d42dc5c4926ffe03","4ZoiaWCqZ2ZuKIM6Z9hR73OcHrS2","2","images/choice_trial_9.png","images/choice_trial_2.png","images/pattern_5.png","j","j","750","9","2","4","1","12","0","0","9","70","","","","",""
"html-keyboard-response","63","125492","0.0-28.0-1.0","","null","<div style=""display: flex; flex-direction: column; align-items: center; margin-top: -40px;""><img src=""images/pattern_5.png"" style=""width: 234px; height: 230px; margin-top: -50px;""><div style=""display: flex; justify-content: space-between; margin-top: 33px;""><img src=""images/choice_trial_9.png"" style=""width: 408px; height: 417px; margin-right: 608px;""></div></div>","null","delaylearn","learning","display_response","5feb9a64d42dc5c4926ffe03","4ZoiaWCqZ2ZuKIM6Z9hR73OcHrS2","","","","","","","","","","","","","","","","","chosen stimuli: images/choice_trial_9.png","","","",""
"html-keyboard-response","64","126251","0.0-28.0-2.0","","null","","null","delaylearn","learning","feedback_duration_window","5feb9a64d42dc5c4926ffe03","4ZoiaWCqZ2ZuKIM6Z9hR73OcHrS2","","","","","","","","","","","","","","","","","","750","","",""
"html-keyboard-response","65","127759","0.0-28.0-3.0","","null","<div style='margin:auto;width: auto; font-size: 150%'><span style='font-weight: bold; font-size: 100px; color: red;'>0 points!</span><br><br></div>","null","delaylearn","learning","feedback_image_window","5feb9a64d42dc5c4926ffe03","4ZoiaWCqZ2ZuKIM6Z9hR73OcHrS2","","","","","","","","","","","","","","","","","","","","",""
"html-keyboard-response","66","129328","0.0-29.0","","null","<div style=""font-size:100px;"">+</div>","null","delaylearn","learning","ITI","5feb9a64d42dc5c4926ffe03","4ZoiaWCqZ2ZuKIM6Z9hR73OcHrS2","","","","","","","","","","","","","","","","","","","1558","",""
"html-keyboard-response","67","131259","0.0-30.0-0.0","","1927.699999999255","<div style=""display: flex; flex-direction: column; align-items: center; margin-top: -40px;""><img src=""images/pattern_6.png"" style=""width: 234px; height: 230px; margin-top: -50px;""><div style=""display: flex; justify-content: space-between; margin-top: 33px;""><img src=""images/choice_trial_11.png"" style=""width: 408px; height: 417px; margin-right: 200px;""><img src=""images/choice_trial_5.png"" style=""width: 408px; height: 417px;""></div></div>","f","delaylearn","learning","trial","5feb9a64d42dc5c4926ffe03","4ZoiaWCqZ2ZuKIM6Z9hR73OcHrS2","2","images/choice_trial_11.png","images/choice_trial_5.png","images/pattern_6.png","j","f","750","11","5","5","0","13","1","0","11","70","","","","",""
"html-keyboard-response","68","132265","0.0-30.0-1.0","","null","<div style=""display: flex; flex-direction: column; align-items: center; margin-top: -40px;""><img src=""images/pattern_6.png"" style=""width: 234px; height: 230px; margin-top: -50px;""><div style=""display: flex; justify-content: space-between; margin-top: 33px;""><img src=""images/choice_trial_11.png"" style=""width: 408px; height: 417px; margin-right: 608px;""></div></div>","null","delaylearn","learning","display_response","5feb9a64d42dc5c4926ffe03","4ZoiaWCqZ2ZuKIM6Z9hR73OcHrS2","","","","","","","","","","","","","","","","","chosen stimuli: images/choice_trial_11.png","","","",""
"html-keyboard-response","69","133025","0.0-30.0-2.0","","null","","null","delaylearn","learning","feedback_duration_window","5feb9a64d42dc5c4926ffe03","4ZoiaWCqZ2ZuKIM6Z9hR73OcHrS2","","","","","","","","","","","","","","","","","","750","","",""
"html-keyboard-response","70","134534","0.0-30.0-3.0","","null","<div style='margin:auto;width: auto; font-size: 150%'><span style='font-weight: bold; font-size: 100px; color: red;'>0 points!</span><br><br></div>","null","delaylearn","learning","feedback_image_window","5feb9a64d42dc5c4926ffe03","4ZoiaWCqZ2ZuKIM6Z9hR73OcHrS2","","","","","","","","","","","","","","","","","","","","",""
"html-keyboard-response","71","135050","0.0-31.0-0.0","","null","","null","","","mood_trial_fixation","","","","","","","","","","","","","","","","","","","","","","",""
"lmdlab-html-vas-response","72","140060","0.0-31.0-1.0","","4003","How happy are you right now?","0.8626783812403558","delaylearn","learning","mood_trial","5feb9a64d42dc5c4926ffe03","4ZoiaWCqZ2ZuKIM6Z9hR73OcHrS2","","","","","","","","","","","","","","","","","","","","[""Very unhappy"",""Very happy""]",""
"html-keyboard-response","73","142175","0.0-32.0","","null","<div style=""font-size:100px;"">+</div>","null","delaylearn","learning","ITI","5feb9a64d42dc5c4926ffe03","4ZoiaWCqZ2ZuKIM6Z9hR73OcHrS2","","","","","","","","","","","","","","","","","","","2110","",""
"html-keyboard-response","74","143624","0.0-33.0-0.0","","1446.5","<div style=""display: flex; flex-direction: column; align-items: center; margin-top: -40px;""><img src=""images/pattern_1.png"" style=""width: 234px; height: 230px; margin-top: -50px;""><div style=""display: flex; justify-content: space-between; margin-top: 33px;""><img src=""images/choice_trial_10.png"" style=""width: 408px; height: 417px; margin-right: 200px;""><img src=""images/choice_trial_3.png"" style=""width: 408px; height: 417px;""></div></div>","f","delaylearn","learning","trial","5feb9a64d42dc5c4926ffe03","4ZoiaWCqZ2ZuKIM6Z9hR73OcHrS2","2","images/choice_trial_10.png","images/choice_trial_3.png","images/pattern_1.png","j","j","7000","10","3","1","1","14","0","0","10","70","","","","",""
"html-keyboard-response","75","144632","0.0-33.0-1.0","","null","<div style=""display: flex; flex-direction: column; align-items: center; margin-top: -40px;""><img src=""images/pattern_1.png"" style=""width: 234px; height: 230px; margin-top: -50px;""><div style=""display: flex; justify-content: space-between; margin-top: 33px;""><img src=""images/choice_trial_10.png"" style=""width: 408px; height: 417px; margin-right: 608px;""></div></div>","null","delaylearn","learning","display_response","5feb9a64d42dc5c4926ffe03","4ZoiaWCqZ2ZuKIM6Z9hR73OcHrS2","","","","","","","","","","","","","","","","","chosen stimuli: images/choice_trial_10.png","","","",""
"html-keyboard-response","76","151636","0.0-33.0-2.0","","null","","null","delaylearn","learning","feedback_duration_window","5feb9a64d42dc5c4926ffe03","4ZoiaWCqZ2ZuKIM6Z9hR73OcHrS2","","","","","","","","","","","","","","","","","","7000","","",""
"html-keyboard-response","77","153140","0.0-33.0-3.0","","null","<div style='margin:auto;width: auto; font-size: 150%'><span style='font-weight: bold; font-size: 100px; color: red;'>0 points!</span><br><br></div>","null","delaylearn","learning","feedback_image_window","5feb9a64d42dc5c4926ffe03","4ZoiaWCqZ2ZuKIM6Z9hR73OcHrS2","","","","","","","","","","","","","","","","","","","","",""
"html-keyboard-response","78","154902","0.0-34.0","","null","<div style=""font-size:100px;"">+</div>","null","delaylearn","learning","ITI","5feb9a64d42dc5c4926ffe03","4ZoiaWCqZ2ZuKIM6Z9hR73OcHrS2","","","","","","","","","","","","","","","","","","","1759","",""
"html-keyboard-response","79","156650","0.0-35.0-0.0","","1745.699999999255","<div style=""display: flex; flex-direction: column; align-items: center; margin-top: -40px;""><img src=""images/pattern_3.png"" style=""width: 234px; height: 230px; margin-top: -50px;""><div style=""display: flex; justify-content: space-between; margin-top: 33px;""><img src=""images/choice_trial_14.png"" style=""width: 408px; height: 417px; margin-right: 200px;""><img src=""images/choice_trial_12.png"" style=""width: 408px; height: 417px;""></div></div>","j","delaylearn","learning","trial","5feb9a64d42dc5c4926ffe03","4ZoiaWCqZ2ZuKIM6Z9hR73OcHrS2","2","images/choice_trial_14.png","images/choice_trial_12.png","images/pattern_3.png","f","j","7000","14","12","2","1","15","1","0","12","70","","","","",""
"html-keyboard-response","80","157666","0.0-35.0-1.0","","null","<div style=""display: flex; flex-direction: column; align-items: center; margin-top: -40px;""><img src=""images/pattern_3.png"" style=""width: 234px; height: 230px; margin-top: -50px;""><div style=""display: flex; justify-content: space-between; margin-top: 33px;""><img src=""images/choice_trial_12.png"" style=""width: 408px; height: 417px; margin-left:608px;""></div></div>","null","delaylearn","learning","display_response","5feb9a64d42dc5c4926ffe03","4ZoiaWCqZ2ZuKIM6Z9hR73OcHrS2","","","","","","","","","","","","","","","","","chosen stimuli: images/choice_trial_12.png","","","",""
"html-keyboard-response","81","164670","0.0-35.0-2.0","","null","","null","delaylearn","learning","feedback_duration_window","5feb9a64d42dc5c4926ffe03","4ZoiaWCqZ2ZuKIM6Z9hR73OcHrS2","","","","","","","","","","","","","","","","","","7000","","",""
"html-keyboard-response","82","166185","0.0-35.0-3.0","","null","<div style='margin:auto;width: auto; font-size: 150%'><span style='font-weight: bold; font-size: 100px; color: red;'>0 points!</span><br><br></div>","null","delaylearn","learning","feedback_image_window","5feb9a64d42dc5c4926ffe03","4ZoiaWCqZ2ZuKIM6Z9hR73OcHrS2","","","","","","","","","","","","","","","","","","","","",""
"html-keyboard-response","83","167833","0.0-36.0","","null","<div style=""font-size:100px;"">+</div>","null","delaylearn","learning","ITI","5feb9a64d42dc5c4926ffe03","4ZoiaWCqZ2ZuKIM6Z9hR73OcHrS2","","","","","","","","","","","","","","","","","","","1638","",""
"html-keyboard-response","84","169610","0.0-37.0-0.0","","1775.699999999255","<div style=""display: flex; flex-direction: column; align-items: center; margin-top: -40px;""><img src=""images/pattern_5.png"" style=""width: 234px; height: 230px; margin-top: -50px;""><div style=""display: flex; justify-content: space-between; margin-top: 33px;""><img src=""images/choice_trial_2.png"" style=""width: 408px; height: 417px; margin-right: 200px;""><img src=""images/choice_trial_9.png"" style=""width: 408px; height: 417px;""></div></div>","f","delaylearn","learning","trial","5feb9a64d42dc5c4926ffe03","4ZoiaWCqZ2ZuKIM6Z9hR73OcHrS2","2","images/choice_trial_2.png","images/choice_trial_9.png","images/pattern_5.png","f","f","750","2","9","4","0","16","1","1","2","80","","","","",""
"html-keyboard-response","85","170619","0.0-37.0-1.0","","null","<div style=""display: flex; flex-direction: column; align-items: center; margin-top: -40px;""><img src=""images/pattern_5.png"" style=""width: 234px; height: 230px; margin-top: -50px;""><div style=""display: flex; justify-content: space-between; margin-top: 33px;""><img src=""images/choice_trial_2.png"" style=""width: 408px; height: 417px; margin-right: 608px;""></div></div>","null","delaylearn","learning","display_response","5feb9a64d42dc5c4926ffe03","4ZoiaWCqZ2ZuKIM6Z9hR73OcHrS2","","","","","","","","","","","","","","","","","chosen stimuli: images/choice_trial_2.png","","","",""
"html-keyboard-response","86","171382","0.0-37.0-2.0","","null","","null","delaylearn","learning","feedback_duration_window","5feb9a64d42dc5c4926ffe03","4ZoiaWCqZ2ZuKIM6Z9hR73OcHrS2","","","","","","","","","","","","","","","","","","750","","",""
"html-keyboard-response","87","172891","0.0-37.0-3.0","","null","<div style='margin:auto;width: auto; font-size: 150%'><span style='font-weight: bold; font-size: 100px; color: green;'>+10 points!</span><br><br></div>","null","delaylearn","learning","feedback_image_window","5feb9a64d42dc5c4926ffe03","4ZoiaWCqZ2ZuKIM6Z9hR73OcHrS2","","","","","","","","","","","","","","","","","","","","",""
"html-keyboard-response","88","173404","0.0-38.0-0.0","","null","","null","","","mood_trial_fixation","","","","","","","","","","","","","","","","","","","","","","",""
"lmdlab-html-vas-response","89","177732","0.0-38.0-1.0","","3314","How happy are you right now?","0.8433882586920346","delaylearn","learning","mood_trial","5feb9a64d42dc5c4926ffe03","4ZoiaWCqZ2ZuKIM6Z9hR73OcHrS2","","","","","","","","","","","","","","","","","","","","[""Very unhappy"",""Very happy""]",""
"html-keyboard-response","90","179413","0.0-39.0","","null","<div style=""font-size:100px;"">+</div>","null","delaylearn","learning","ITI","5feb9a64d42dc5c4926ffe03","4ZoiaWCqZ2ZuKIM6Z9hR73OcHrS2","","","","","","","","","","","","","","","","","","","1671","",""
"html-keyboard-response","91","181900","0.0-40.0-0.0","","2485.300000000745","<div style=""display: flex; flex-direction: column; align-items: center; margin-top: -40px;""><img src=""images/pattern_6.png"" style=""width: 234px; height: 230px; margin-top: -50px;""><div style=""display: flex; justify-content: space-between; margin-top: 33px;""><img src=""images/choice_trial_11.png"" style=""width: 408px; height: 417px; margin-right: 200px;""><img src=""images/choice_trial_5.png"" style=""width: 408px; height: 417px;""></div></div>","j","delaylearn","learning","trial","5feb9a64d42dc5c4926ffe03","4ZoiaWCqZ2ZuKIM6Z9hR73OcHrS2","2","images/choice_trial_11.png","images/choice_trial_5.png","images/pattern_6.png","f","f","750","11","5","5","0","17","0","0","5","80","","","","",""
"html-keyboard-response","92","182906","0.0-40.0-1.0","","null","<div style=""display: flex; flex-direction: column; align-items: center; margin-top: -40px;""><img src=""images/pattern_6.png"" style=""width: 234px; height: 230px; margin-top: -50px;""><div style=""display: flex; justify-content: space-between; margin-top: 33px;""><img src=""images/choice_trial_5.png"" style=""width: 408px; height: 417px; margin-left:608px;""></div></div>","null","delaylearn","learning","display_response","5feb9a64d42dc5c4926ffe03","4ZoiaWCqZ2ZuKIM6Z9hR73OcHrS2","","","","","","","","","","","","","","","","","chosen stimuli: images/choice_trial_5.png","","","",""
"html-keyboard-response","93","183668","0.0-40.0-2.0","","null","","null","delaylearn","learning","feedback_duration_window","5feb9a64d42dc5c4926ffe03","4ZoiaWCqZ2ZuKIM6Z9hR73OcHrS2","","","","","","","","","","","","","","","","","","750","","",""
"html-keyboard-response","94","185171","0.0-40.0-3.0","","null","<div style='margin:auto;width: auto; font-size: 150%'><span style='font-weight: bold; font-size: 100px; color: red;'>0 points!</span><br><br></div>","null","delaylearn","learning","feedback_image_window","5feb9a64d42dc5c4926ffe03","4ZoiaWCqZ2ZuKIM6Z9hR73OcHrS2","","","","","","","","","","","","","","","","","","","","",""
"html-keyboard-response","95","187068","0.0-41.0","","null","<div style=""font-size:100px;"">+</div>","null","delaylearn","learning","ITI","5feb9a64d42dc5c4926ffe03","4ZoiaWCqZ2ZuKIM6Z9hR73OcHrS2","","","","","","","","","","","","","","","","","","","1885","",""
"html-keyboard-response","96","189082","0.0-42.0-0.0","","2011.300000000745","<div style=""display: flex; flex-direction: column; align-items: center; margin-top: -40px;""><img src=""images/pattern_4.png"" style=""width: 234px; height: 230px; margin-top: -50px;""><div style=""display: flex; justify-content: space-between; margin-top: 33px;""><img src=""images/choice_trial_16.png"" style=""width: 408px; height: 417px; margin-right: 200px;""><img src=""images/choice_trial_4.png"" style=""width: 408px; height: 417px;""></div></div>","j","delaylearn","learning","trial","5feb9a64d42dc5c4926ffe03","4ZoiaWCqZ2ZuKIM6Z9hR73OcHrS2","2","images/choice_trial_16.png","images/choice_trial_4.png","images/pattern_4.png","j","j","7000","16","4","3","1","18","1","1","4","90","","","","",""
"html-keyboard-response","97","190087","0.0-42.0-1.0","","null","<div style=""display: flex; flex-direction: column; align-items: center; margin-top: -40px;""><img src=""images/pattern_4.png"" style=""width: 234px; height: 230px; margin-top: -50px;""><div style=""display: flex; justify-content: space-between; margin-top: 33px;""><img src=""images/choice_trial_4.png"" style=""width: 408px; height: 417px; margin-left:608px;""></div></div>","null","delaylearn","learning","display_response","5feb9a64d42dc5c4926ffe03","4ZoiaWCqZ2ZuKIM6Z9hR73OcHrS2","","","","","","","","","","","","","","","","","chosen stimuli: images/choice_trial_4.png","","","",""
"html-keyboard-response","98","197098","0.0-42.0-2.0","","null","","null","delaylearn","learning","feedback_duration_window","5feb9a64d42dc5c4926ffe03","4ZoiaWCqZ2ZuKIM6Z9hR73OcHrS2","","","","","","","","","","","","","","","","","","7000","","",""
"html-keyboard-response","99","198605","0.0-42.0-3.0","","null","<div style='margin:auto;width: auto; font-size: 150%'><span style='font-weight: bold; font-size: 100px; color: green;'>+10 points!</span><br><br></div>","null","delaylearn","learning","feedback_image_window","5feb9a64d42dc5c4926ffe03","4ZoiaWCqZ2ZuKIM6Z9hR73OcHrS2","","","","","","","","","","","","","","","","","","","","",""
"html-keyboard-response","100","200747","0.0-43.0","","null","<div style=""font-size:100px;"">+</div>","null","delaylearn","learning","ITI","5feb9a64d42dc5c4926ffe03","4ZoiaWCqZ2ZuKIM6Z9hR73OcHrS2","","","","","","","","","","","","","","","","","","","2127","",""
"html-keyboard-response","101","202914","0.0-44.0-0.0","","2164.199999999255","<div style=""display: flex; flex-direction: column; align-items: center; margin-top: -40px;""><img src=""images/pattern_7.png"" style=""width: 234px; height: 230px; margin-top: -50px;""><div style=""display: flex; justify-content: space-between; margin-top: 33px;""><img src=""images/choice_trial_8.png"" style=""width: 408px; height: 417px; margin-right: 200px;""><img src=""images/choice_trial_15.png"" style=""width: 408px; height: 417px;""></div></div>","f","delaylearn","learning","trial","5feb9a64d42dc5c4926ffe03","4ZoiaWCqZ2ZuKIM6Z9hR73OcHrS2","2","images/choice_trial_8.png","images/choice_trial_15.png","images/pattern_7.png","j","f","750","8","15","6","0","19","1","0","8","90","","","","",""
"html-keyboard-response","102","203917","0.0-44.0-1.0","","null","<div style=""display: flex; flex-direction: column; align-items: center; margin-top: -40px;""><img src=""images/pattern_7.png"" style=""width: 234px; height: 230px; margin-top: -50px;""><div style=""display: flex; justify-content: space-between; margin-top: 33px;""><img src=""images/choice_trial_8.png"" style=""width: 408px; height: 417px; margin-right: 608px;""></div></div>","null","delaylearn","learning","display_response","5feb9a64d42dc5c4926ffe03","4ZoiaWCqZ2ZuKIM6Z9hR73OcHrS2","","","","","","","","","","","","","","","","","chosen stimuli: images/choice_trial_8.png","","","",""
"html-keyboard-response","103","204675","0.0-44.0-2.0","","null","","null","delaylearn","learning","feedback_duration_window","5feb9a64d42dc5c4926ffe03","4ZoiaWCqZ2ZuKIM6Z9hR73OcHrS2","","","","","","","","","","","","","","","","","","750","","",""
"html-keyboard-response","104","206178","0.0-44.0-3.0","","null","<div style='margin:auto;width: auto; font-size: 150%'><span style='font-weight: bold; font-size: 100px; color: red;'>0 points!</span><br><br></div>","null","delaylearn","learning","feedback_image_window","5feb9a64d42dc5c4926ffe03","4ZoiaWCqZ2ZuKIM6Z9hR73OcHrS2","","","","","","","","","","","","","","","","","","","","",""
"html-keyboard-response","105","208321","0.0-45.0","","null","<div style=""font-size:100px;"">+</div>","null","delaylearn","learning","ITI","5feb9a64d42dc5c4926ffe03","4ZoiaWCqZ2ZuKIM6Z9hR73OcHrS2","","","","","","","","","","","","","","","","","","","2128","",""
"html-keyboard-response","106","210651","0.0-46.0-0.0","","2327.699999999255","<div style=""display: flex; flex-direction: column; align-items: center; margin-top: -40px;""><img src=""images/pattern_1.png"" style=""width: 234px; height: 230px; margin-top: -50px;""><div style=""display: flex; justify-content: space-between; margin-top: 33px;""><img src=""images/choice_trial_3.png"" style=""width: 408px; height: 417px; margin-right: 200px;""><img src=""images/choice_trial_10.png"" style=""width: 408px; height: 417px;""></div></div>","j","delaylearn","learning","trial","5feb9a64d42dc5c4926ffe03","4ZoiaWCqZ2ZuKIM6Z9hR73OcHrS2","2","images/choice_trial_3.png","images/choice_trial_10.png","images/pattern_1.png","f","f","7000","3","10","1","0","20","0","0","10","90","","","","",""
"html-keyboard-response","107","211660","0.0-46.0-1.0","","null","<div style=""display: flex; flex-direction: column; align-items: center; margin-top: -40px;""><img src=""images/pattern_1.png"" style=""width: 234px; height: 230px; margin-top: -50px;""><div style=""display: flex; justify-content: space-between; margin-top: 33px;""><img src=""images/choice_trial_10.png"" style=""width: 408px; height: 417px; margin-left:608px;""></div></div>","null","delaylearn","learning","display_response","5feb9a64d42dc5c4926ffe03","4ZoiaWCqZ2ZuKIM6Z9hR73OcHrS2","","","","","","","","","","","","","","","","","chosen stimuli: images/choice_trial_10.png","","","",""
"html-keyboard-response","108","218671","0.0-46.0-2.0","","null","","null","delaylearn","learning","feedback_duration_window","5feb9a64d42dc5c4926ffe03","4ZoiaWCqZ2ZuKIM6Z9hR73OcHrS2","","","","","","","","","","","","","","","","","","7000","","",""
"html-keyboard-response","109","220175","0.0-46.0-3.0","","null","<div style='margin:auto;width: auto; font-size: 150%'><span style='font-weight: bold; font-size: 100px; color: red;'>0 points!</span><br><br></div>","null","delaylearn","learning","feedback_image_window","5feb9a64d42dc5c4926ffe03","4ZoiaWCqZ2ZuKIM6Z9hR73OcHrS2","","","","","","","","","","","","","","","","","","","","",""
"html-keyboard-response","110","222673","0.0-47.0","","null","<div style=""font-size:100px;"">+</div>","null","delaylearn","learning","ITI","5feb9a64d42dc5c4926ffe03","4ZoiaWCqZ2ZuKIM6Z9hR73OcHrS2","","","","","","","","","","","","","","","","","","","2484","",""
"html-keyboard-response","111","225446","0.0-48.0-0.0","","2769.900000002235","<div style=""display: flex; flex-direction: column; align-items: center; margin-top: -40px;""><img src=""images/pattern_6.png"" style=""width: 234px; height: 230px; margin-top: -50px;""><div style=""display: flex; justify-content: space-between; margin-top: 33px;""><img src=""images/choice_trial_5.png"" style=""width: 408px; height: 417px; margin-right: 200px;""><img src=""images/choice_trial_11.png"" style=""width: 408px; height: 417px;""></div></div>","f","delaylearn","learning","trial","5feb9a64d42dc5c4926ffe03","4ZoiaWCqZ2ZuKIM6Z9hR73OcHrS2","2","images/choice_trial_5.png","images/choice_trial_11.png","images/pattern_6.png","j","j","750","5","11","5","1","21","0","0","5","90","","","","",""
"html-keyboard-response","112","226454","0.0-48.0-1.0","","null","<div style=""display: flex; flex-direction: column; align-items: center; margin-top: -40px;""><img src=""images/pattern_6.png"" style=""width: 234px; height: 230px; margin-top: -50px;""><div style=""display: flex; justify-content: space-between; margin-top: 33px;""><img src=""images/choice_trial_5.png"" style=""width: 408px; height: 417px; margin-right: 608px;""></div></div>","null","delaylearn","learning","display_response","5feb9a64d42dc5c4926ffe03","4ZoiaWCqZ2ZuKIM6Z9hR73OcHrS2","","","","","","","","","","","","","","","","","chosen stimuli: images/choice_trial_5.png","","","",""
"html-keyboard-response","113","227216","0.0-48.0-2.0","","null","","null","delaylearn","learning","feedback_duration_window","5feb9a64d42dc5c4926ffe03","4ZoiaWCqZ2ZuKIM6Z9hR73OcHrS2","","","","","","","","","","","","","","","","","","750","","",""
"html-keyboard-response","114","228724","0.0-48.0-3.0","","null","<div style='margin:auto;width: auto; font-size: 150%'><span style='font-weight: bold; font-size: 100px; color: red;'>0 points!</span><br><br></div>","null","delaylearn","learning","feedback_image_window","5feb9a64d42dc5c4926ffe03","4ZoiaWCqZ2ZuKIM6Z9hR73OcHrS2","","","","","","","","","","","","","","","","","","","","",""
"html-keyboard-response","115","230653","0.0-49.0","","null","<div style=""font-size:100px;"">+</div>","null","delaylearn","learning","ITI","5feb9a64d42dc5c4926ffe03","4ZoiaWCqZ2ZuKIM6Z9hR73OcHrS2","","","","","","","","","","","","","","","","","","","1927","",""
"html-keyboard-response","116","232714","0.0-50.0-0.0","","2057.60000000149","<div style=""display: flex; flex-direction: column; align-items: center; margin-top: -40px;""><img src=""images/pattern_4.png"" style=""width: 234px; height: 230px; margin-top: -50px;""><div style=""display: flex; justify-content: space-between; margin-top: 33px;""><img src=""images/choice_trial_4.png"" style=""width: 408px; height: 417px; margin-right: 200px;""><img src=""images/choice_trial_16.png"" style=""width: 408px; height: 417px;""></div></div>","f","delaylearn","learning","trial","5feb9a64d42dc5c4926ffe03","4ZoiaWCqZ2ZuKIM6Z9hR73OcHrS2","2","images/choice_trial_4.png","images/choice_trial_16.png","images/pattern_4.png","f","f","7000","4","16","3","0","22","1","1","4","100","","","","",""
"html-keyboard-response","117","233729","0.0-50.0-1.0","","null","<div style=""display: flex; flex-direction: column; align-items: center; margin-top: -40px;""><img src=""images/pattern_4.png"" style=""width: 234px; height: 230px; margin-top: -50px;""><div style=""display: flex; justify-content: space-between; margin-top: 33px;""><img src=""images/choice_trial_4.png"" style=""width: 408px; height: 417px; margin-right: 608px;""></div></div>","null","delaylearn","learning","display_response","5feb9a64d42dc5c4926ffe03","4ZoiaWCqZ2ZuKIM6Z9hR73OcHrS2","","","","","","","","","","","","","","","","","chosen stimuli: images/choice_trial_4.png","","","",""
"html-keyboard-response","118","240739","0.0-50.0-2.0","","null","","null","delaylearn","learning","feedback_duration_window","5feb9a64d42dc5c4926ffe03","4ZoiaWCqZ2ZuKIM6Z9hR73OcHrS2","","","","","","","","","","","","","","","","","","7000","","",""
"html-keyboard-response","119","242244","0.0-50.0-3.0","","null","<div style='margin:auto;width: auto; font-size: 150%'><span style='font-weight: bold; font-size: 100px; color: green;'>+10 points!</span><br><br></div>","null","delaylearn","learning","feedback_image_window","5feb9a64d42dc5c4926ffe03","4ZoiaWCqZ2ZuKIM6Z9hR73OcHrS2","","","","","","","","","","","","","","","","","","","","",""
"html-keyboard-response","120","242754","0.0-51.0-0.0","","null","","null","","","mood_trial_fixation","","","","","","","","","","","","","","","","","","","","","","",""
"lmdlab-html-vas-response","121","249603","0.0-51.0-1.0","","5833","How happy are you right now?","0.8356722096727061","delaylearn","learning","mood_trial","5feb9a64d42dc5c4926ffe03","4ZoiaWCqZ2ZuKIM6Z9hR73OcHrS2","","","","","","","","","","","","","","","","","","","","[""Very unhappy"",""Very happy""]",""
"html-keyboard-response","122","251433","0.0-52.0","","null","<div style=""font-size:100px;"">+</div>","null","delaylearn","learning","ITI","5feb9a64d42dc5c4926ffe03","4ZoiaWCqZ2ZuKIM6Z9hR73OcHrS2","","","","","","","","","","","","","","","","","","","1826","",""
"html-keyboard-response","123","253993","0.0-53.0-0.0","","2558.10000000149","<div style=""display: flex; flex-direction: column; align-items: center; margin-top: -40px;""><img src=""images/pattern_7.png"" style=""width: 234px; height: 230px; margin-top: -50px;""><div style=""display: flex; justify-content: space-between; margin-top: 33px;""><img src=""images/choice_trial_15.png"" style=""width: 408px; height: 417px; margin-right: 200px;""><img src=""images/choice_trial_8.png"" style=""width: 408px; height: 417px;""></div></div>","j","delaylearn","learning","trial","5feb9a64d42dc5c4926ffe03","4ZoiaWCqZ2ZuKIM6Z9hR73OcHrS2","2","images/choice_trial_15.png","images/choice_trial_8.png","images/pattern_7.png","j","j","750","15","8","6","1","23","1","1","8","110","","","","",""
"html-keyboard-response","124","255007","0.0-53.0-1.0","","null","<div style=""display: flex; flex-direction: column; align-items: center; margin-top: -40px;""><img src=""images/pattern_7.png"" style=""width: 234px; height: 230px; margin-top: -50px;""><div style=""display: flex; justify-content: space-between; margin-top: 33px;""><img src=""images/choice_trial_8.png"" style=""width: 408px; height: 417px; margin-left:608px;""></div></div>","null","delaylearn","learning","display_response","5feb9a64d42dc5c4926ffe03","4ZoiaWCqZ2ZuKIM6Z9hR73OcHrS2","","","","","","","","","","","","","","","","","chosen stimuli: images/choice_trial_8.png","","","",""
"html-keyboard-response","125","255763","0.0-53.0-2.0","","null","","null","delaylearn","learning","feedback_duration_window","5feb9a64d42dc5c4926ffe03","4ZoiaWCqZ2ZuKIM6Z9hR73OcHrS2","","","","","","","","","","","","","","","","","","750","","",""
"html-keyboard-response","126","257268","0.0-53.0-3.0","","null","<div style='margin:auto;width: auto; font-size: 150%'><span style='font-weight: bold; font-size: 100px; color: green;'>+10 points!</span><br><br></div>","null","delaylearn","learning","feedback_image_window","5feb9a64d42dc5c4926ffe03","4ZoiaWCqZ2ZuKIM6Z9hR73OcHrS2","","","","","","","","","","","","","","","","","","","","",""
"html-keyboard-response","127","258901","0.0-54.0","","null","<div style=""font-size:100px;"">+</div>","null","delaylearn","learning","ITI","5feb9a64d42dc5c4926ffe03","4ZoiaWCqZ2ZuKIM6Z9hR73OcHrS2","","","","","","","","","","","","","","","","","","","1621","",""
"html-keyboard-response","128","260416","0.0-55.0-0.0","","1511.8999999985099","<div style=""display: flex; flex-direction: column; align-items: center; margin-top: -40px;""><img src=""images/pattern_1.png"" style=""width: 234px; height: 230px; margin-top: -50px;""><div style=""display: flex; justify-content: space-between; margin-top: 33px;""><img src=""images/choice_trial_10.png"" style=""width: 408px; height: 417px; margin-right: 200px;""><img src=""images/choice_trial_3.png"" style=""width: 408px; height: 417px;""></div></div>","j","delaylearn","learning","trial","5feb9a64d42dc5c4926ffe03","4ZoiaWCqZ2ZuKIM6Z9hR73OcHrS2","2","images/choice_trial_10.png","images/choice_trial_3.png","images/pattern_1.png","f","j","7000","10","3","1","1","24","1","0","3","110","","","","",""
"html-keyboard-response","129","261433","0.0-55.0-1.0","","null","<div style=""display: flex; flex-direction: column; align-items: center; margin-top: -40px;""><img src=""images/pattern_1.png"" style=""width: 234px; height: 230px; margin-top: -50px;""><div style=""display: flex; justify-content: space-between; margin-top: 33px;""><img src=""images/choice_trial_3.png"" style=""width: 408px; height: 417px; margin-left:608px;""></div></div>","null","delaylearn","learning","display_response","5feb9a64d42dc5c4926ffe03","4ZoiaWCqZ2ZuKIM6Z9hR73OcHrS2","","","","","","","","","","","","","","","","","chosen stimuli: images/choice_trial_3.png","","","",""
"html-keyboard-response","130","268437","0.0-55.0-2.0","","null","","null","delaylearn","learning","feedback_duration_window","5feb9a64d42dc5c4926ffe03","4ZoiaWCqZ2ZuKIM6Z9hR73OcHrS2","","","","","","","","","","","","","","","","","","7000","","",""
"html-keyboard-response","131","269945","0.0-55.0-3.0","","null","<div style='margin:auto;width: auto; font-size: 150%'><span style='font-weight: bold; font-size: 100px; color: red;'>0 points!</span><br><br></div>","null","delaylearn","learning","feedback_image_window","5feb9a64d42dc5c4926ffe03","4ZoiaWCqZ2ZuKIM6Z9hR73OcHrS2","","","","","","","","","","","","","","","","","","","","",""
"html-keyboard-response","132","272290","0.0-56.0","","null","<div style=""font-size:100px;"">+</div>","null","delaylearn","learning","ITI","5feb9a64d42dc5c4926ffe03","4ZoiaWCqZ2ZuKIM6Z9hR73OcHrS2","","","","","","","","","","","","","","","","","","","2341","",""
"html-keyboard-response","133","274198","0.0-57.0-0.0","","1904.3999999985099","<div style=""display: flex; flex-direction: column; align-items: center; margin-top: -40px;""><img src=""images/pattern_5.png"" style=""width: 234px; height: 230px; margin-top: -50px;""><div style=""display: flex; justify-content: space-between; margin-top: 33px;""><img src=""images/choice_trial_9.png"" style=""width: 408px; height: 417px; margin-right: 200px;""><img src=""images/choice_trial_2.png"" style=""width: 408px; height: 417px;""></div></div>","j","delaylearn","learning","trial","5feb9a64d42dc5c4926ffe03","4ZoiaWCqZ2ZuKIM6Z9hR73OcHrS2","2","images/choice_trial_9.png","images/choice_trial_2.png","images/pattern_5.png","j","j","750","9","2","4","1","25","1","1","2","120","","","","",""
"html-keyboard-response","134","275209","0.0-57.0-1.0","","null","<div style=""display: flex; flex-direction: column; align-items: center; margin-top: -40px;""><img src=""images/pattern_5.png"" style=""width: 234px; height: 230px; margin-top: -50px;""><div style=""display: flex; justify-content: space-between; margin-top: 33px;""><img src=""images/choice_trial_2.png"" style=""width: 408px; height: 417px; margin-left:608px;""></div></div>","null","delaylearn","learning","display_response","5feb9a64d42dc5c4926ffe03","4ZoiaWCqZ2ZuKIM6Z9hR73OcHrS2","","","","","","","","","","","","","","","","","chosen stimuli: images/choice_trial_2.png","","","",""
"html-keyboard-response","135","275968","0.0-57.0-2.0","","null","","null","delaylearn","learning","feedback_duration_window","5feb9a64d42dc5c4926ffe03","4ZoiaWCqZ2ZuKIM6Z9hR73OcHrS2","","","","","","","","","","","","","","","","","","750","","",""
"html-keyboard-response","136","277473","0.0-57.0-3.0","","null","<div style='margin:auto;width: auto; font-size: 150%'><span style='font-weight: bold; font-size: 100px; color: green;'>+10 points!</span><br><br></div>","null","delaylearn","learning","feedback_image_window","5feb9a64d42dc5c4926ffe03","4ZoiaWCqZ2ZuKIM6Z9hR73OcHrS2","","","","","","","","","","","","","","","","","","","","",""
"html-keyboard-response","137","279452","0.0-58.0","","null","<div style=""font-size:100px;"">+</div>","null","delaylearn","learning","ITI","5feb9a64d42dc5c4926ffe03","4ZoiaWCqZ2ZuKIM6Z9hR73OcHrS2","","","","","","","","","","","","","","","","","","","1968","",""
"html-keyboard-response","138","281809","0.0-59.0-0.0","","2355.10000000149","<div style=""display: flex; flex-direction: column; align-items: center; margin-top: -40px;""><img src=""images/pattern_3.png"" style=""width: 234px; height: 230px; margin-top: -50px;""><div style=""display: flex; justify-content: space-between; margin-top: 33px;""><img src=""images/choice_trial_14.png"" style=""width: 408px; height: 417px; margin-right: 200px;""><img src=""images/choice_trial_12.png"" style=""width: 408px; height: 417px;""></div></div>","j","delaylearn","learning","trial","5feb9a64d42dc5c4926ffe03","4ZoiaWCqZ2ZuKIM6Z9hR73OcHrS2","2","images/choice_trial_14.png","images/choice_trial_12.png","images/pattern_3.png","j","j","7000","14","12","2","1","26","1","1","12","130","","","","",""
"html-keyboard-response","139","282824","0.0-59.0-1.0","","null","<div style=""display: flex; flex-direction: column; align-items: center; margin-top: -40px;""><img src=""images/pattern_3.png"" style=""width: 234px; height: 230px; margin-top: -50px;""><div style=""display: flex; justify-content: space-between; margin-top: 33px;""><img src=""images/choice_trial_12.png"" style=""width: 408px; height: 417px; margin-left:608px;""></div></div>","null","delaylearn","learning","display_response","5feb9a64d42dc5c4926ffe03","4ZoiaWCqZ2ZuKIM6Z9hR73OcHrS2","","","","","","","","","","","","","","","","","chosen stimuli: images/choice_trial_12.png","","","",""
"html-keyboard-response","140","289828","0.0-59.0-2.0","","null","","null","delaylearn","learning","feedback_duration_window","5feb9a64d42dc5c4926ffe03","4ZoiaWCqZ2ZuKIM6Z9hR73OcHrS2","","","","","","","","","","","","","","","","","","7000","","",""
"html-keyboard-response","141","291336","0.0-59.0-3.0","","null","<div style='margin:auto;width: auto; font-size: 150%'><span style='font-weight: bold; font-size: 100px; color: green;'>+10 points!</span><br><br></div>","null","delaylearn","learning","feedback_image_window","5feb9a64d42dc5c4926ffe03","4ZoiaWCqZ2ZuKIM6Z9hR73OcHrS2","","","","","","","","","","","","","","","","","","","","",""
"lmdlab-html-vas-response","142","300448","0.0-60.0-0.0","","7597","*How <b><u>confident</u></b> are you feeling about your answers at this moment?*","0.731481411711073","rewlearn","rate_confidence","","5feb9a64d42dc5c4926ffe03","4ZoiaWCqZ2ZuKIM6Z9hR73OcHrS2","","","","","","","","","","","","","","","","","","","","[""No confidence"",""Complete confidence""]",""
"lmdlab-rest-trial-limit","143","310754","0.0-60.0-1.0","","8799.199999999255","<div style=""font-size:40px;""><b>Please take a break!</b><br><br><br><br><p>Great work: you earned 130 points.<br><br><br><p>You have completed part(s) 1 of 5.<br><br><br><br>When you are ready to continue<br><br><br>please click the button.</p><br><br>","0","delaylearn","learning","break","5feb9a64d42dc5c4926ffe03","4ZoiaWCqZ2ZuKIM6Z9hR73OcHrS2","","","","","","","","","","","","","","","","","","","","","0"
"html-keyboard-response","144","313763","0.0-60.0-2.0","","null","<div style=""font-size:100px;"">+</div>","null","delaylearn","learning","pre_fixation","5feb9a64d42dc5c4926ffe03","","","","","","","","","","","","","","","","","","","","","",""
"lmdlab-html-vas-response","145","318027","0.0-60.0-3.0-0.0","","3250","How happy are you right now?","0.8395302341823703","delaylearn","learning","mood_baseline","5feb9a64d42dc5c4926ffe03","4ZoiaWCqZ2ZuKIM6Z9hR73OcHrS2","","","","","","","","","","","","","","","","","","","","[""Very unhappy"",""Very happy""]",""
"html-keyboard-response","146","319530","0.0-60.0-3.0-1.0","","null","","null","","","mood_baseline_fixation","","","","","","","","","","","","","","","","","","","","","","",""
"html-keyboard-response","147","322036","0.0-61.0","","null","<div style=""font-size:100px;"">+</div>","null","delaylearn","learning","ITI","5feb9a64d42dc5c4926ffe03","4ZoiaWCqZ2ZuKIM6Z9hR73OcHrS2","","","","","","","","","","","","","","","","","","","2489","",""
"html-keyboard-response","148","324175","0.0-62.0-0.0","","2136.300000000745","<div style=""display: flex; flex-direction: column; align-items: center; margin-top: -40px;""><img src=""images/pattern_7.png"" style=""width: 234px; height: 230px; margin-top: -50px;""><div style=""display: flex; justify-content: space-between; margin-top: 33px;""><img src=""images/choice_trial_15.png"" style=""width: 408px; height: 417px; margin-right: 200px;""><img src=""images/choice_trial_8.png"" style=""width: 408px; height: 417px;""></div></div>","j","delaylearn","learning","trial","5feb9a64d42dc5c4926ffe03","4ZoiaWCqZ2ZuKIM6Z9hR73OcHrS2","2","images/choice_trial_15.png","images/choice_trial_8.png","images/pattern_7.png","j","j","750","15","8","6","1","27","1","1","8","140","","","","",""
"html-keyboard-response","149","325191","0.0-62.0-1.0","","null","<div style=""display: flex; flex-direction: column; align-items: center; margin-top: -40px;""><img src=""images/pattern_7.png"" style=""width: 234px; height: 230px; margin-top: -50px;""><div style=""display: flex; justify-content: space-between; margin-top: 33px;""><img src=""images/choice_trial_8.png"" style=""width: 408px; height: 417px; margin-left:608px;""></div></div>","null","delaylearn","learning","display_response","5feb9a64d42dc5c4926ffe03","4ZoiaWCqZ2ZuKIM6Z9hR73OcHrS2","","","","","","","","","","","","","","","","","chosen stimuli: images/choice_trial_8.png","","","",""
"html-keyboard-response","150","325955","0.0-62.0-2.0","","null","","null","delaylearn","learning","feedback_duration_window","5feb9a64d42dc5c4926ffe03","4ZoiaWCqZ2ZuKIM6Z9hR73OcHrS2","","","","","","","","","","","","","","","","","","750","","",""
"html-keyboard-response","151","327462","0.0-62.0-3.0","","null","<div style='margin:auto;width: auto; font-size: 150%'><span style='font-weight: bold; font-size: 100px; color: green;'>+10 points!</span><br><br></div>","null","delaylearn","learning","feedback_image_window","5feb9a64d42dc5c4926ffe03","4ZoiaWCqZ2ZuKIM6Z9hR73OcHrS2","","","","","","","","","","","","","","","","","","","","",""
"html-keyboard-response","152","327975","0.0-63.0-0.0","","null","","null","","","mood_trial_fixation","","","","","","","","","","","","","","","","","","","","","","",""
"lmdlab-html-vas-response","153","332835","0.0-63.0-1.0","","3847","How happy are you right now?","0.8376012219275382","delaylearn","learning","mood_trial","5feb9a64d42dc5c4926ffe03","4ZoiaWCqZ2ZuKIM6Z9hR73OcHrS2","","","","","","","","","","","","","","","","","","","","[""Very unhappy"",""Very happy""]",""
"html-keyboard-response","154","334484","0.0-64.0","","null","<div style=""font-size:100px;"">+</div>","null","delaylearn","learning","ITI","5feb9a64d42dc5c4926ffe03","4ZoiaWCqZ2ZuKIM6Z9hR73OcHrS2","","","","","","","","","","","","","","","","","","","1634","",""
"html-keyboard-response","155","336074","0.0-65.0-0.0","","1587.699999999255","<div style=""display: flex; flex-direction: column; align-items: center; margin-top: -40px;""><img src=""images/pattern_1.png"" style=""width: 234px; height: 230px; margin-top: -50px;""><div style=""display: flex; justify-content: space-between; margin-top: 33px;""><img src=""images/choice_trial_3.png"" style=""width: 408px; height: 417px; margin-right: 200px;""><img src=""images/choice_trial_10.png"" style=""width: 408px; height: 417px;""></div></div>","f","delaylearn","learning","trial","5feb9a64d42dc5c4926ffe03","4ZoiaWCqZ2ZuKIM6Z9hR73OcHrS2","2","images/choice_trial_3.png","images/choice_trial_10.png","images/pattern_1.png","f","f","7000","3","10","1","0","28","1","1","3","150","","","","",""
"html-keyboard-response","156","337080","0.0-65.0-1.0","","null","<div style=""display: flex; flex-direction: column; align-items: center; margin-top: -40px;""><img src=""images/pattern_1.png"" style=""width: 234px; height: 230px; margin-top: -50px;""><div style=""display: flex; justify-content: space-between; margin-top: 33px;""><img src=""images/choice_trial_3.png"" style=""width: 408px; height: 417px; margin-right: 608px;""></div></div>","null","delaylearn","learning","display_response","5feb9a64d42dc5c4926ffe03","4ZoiaWCqZ2ZuKIM6Z9hR73OcHrS2","","","","","","","","","","","","","","","","","chosen stimuli: images/choice_trial_3.png","","","",""
"html-keyboard-response","157","344087","0.0-65.0-2.0","","null","","null","delaylearn","learning","feedback_duration_window","5feb9a64d42dc5c4926ffe03","4ZoiaWCqZ2ZuKIM6Z9hR73OcHrS2","","","","","","","","","","","","","","","","","","7000","","",""
"html-keyboard-response","158","345597","0.0-65.0-3.0","","null","<div style='margin:auto;width: auto; font-size: 150%'><span style='font-weight: bold; font-size: 100px; color: green;'>+10 points!</span><br><br></div>","null","delaylearn","learning","feedback_image_window","5feb9a64d42dc5c4926ffe03","4ZoiaWCqZ2ZuKIM6Z9hR73OcHrS2","","","","","","","","","","","","","","","","","","","","",""
"html-keyboard-response","159","347167","0.0-66.0","","null","<div style=""font-size:100px;"">+</div>","null","delaylearn","learning","ITI","5feb9a64d42dc5c4926ffe03","4ZoiaWCqZ2ZuKIM6Z9hR73OcHrS2","","","","","","","","","","","","","","","","","","","1555","",""
"html-keyboard-response","160","349172","0.0-67.0-0.0","","2002.5999999977648","<div style=""display: flex; flex-direction: column; align-items: center; margin-top: -40px;""><img src=""images/pattern_5.png"" style=""width: 234px; height: 230px; margin-top: -50px;""><div style=""display: flex; justify-content: space-between; margin-top: 33px;""><img src=""images/choice_trial_2.png"" style=""width: 408px; height: 417px; margin-right: 200px;""><img src=""images/choice_trial_9.png"" style=""width: 408px; height: 417px;""></div></div>","f","delaylearn","learning","trial","5feb9a64d42dc5c4926ffe03","4ZoiaWCqZ2ZuKIM6Z9hR73OcHrS2","2","images/choice_trial_2.png","images/choice_trial_9.png","images/pattern_5.png","f","f","750","2","9","4","0","29","1","1","2","160","","","","",""
"html-keyboard-response","161","350180","0.0-67.0-1.0","","null","<div style=""display: flex; flex-direction: column; align-items: center; margin-top: -40px;""><img src=""images/pattern_5.png"" style=""width: 234px; height: 230px; margin-top: -50px;""><div style=""display: flex; justify-content: space-between; margin-top: 33px;""><img src=""images/choice_trial_2.png"" style=""width: 408px; height: 417px; margin-right: 608px;""></div></div>","null","delaylearn","learning","display_response","5feb9a64d42dc5c4926ffe03","4ZoiaWCqZ2ZuKIM6Z9hR73OcHrS2","","","","","","","","","","","","","","","","","chosen stimuli: images/choice_trial_2.png","","","",""
"html-keyboard-response","162","350943","0.0-67.0-2.0","","null","","null","delaylearn","learning","feedback_duration_window","5feb9a64d42dc5c4926ffe03","4ZoiaWCqZ2ZuKIM6Z9hR73OcHrS2","","","","","","","","","","","","","","","","","","750","","",""
"html-keyboard-response","163","352450","0.0-67.0-3.0","","null","<div style='margin:auto;width: auto; font-size: 150%'><span style='font-weight: bold; font-size: 100px; color: green;'>+10 points!</span><br><br></div>","null","delaylearn","learning","feedback_image_window","5feb9a64d42dc5c4926ffe03","4ZoiaWCqZ2ZuKIM6Z9hR73OcHrS2","","","","","","","","","","","","","","","","","","","","",""
"html-keyboard-response","164","354962","0.0-68.0","","null","<div style=""font-size:100px;"">+</div>","null","delaylearn","learning","ITI","5feb9a64d42dc5c4926ffe03","4ZoiaWCqZ2ZuKIM6Z9hR73OcHrS2","","","","","","","","","","","","","","","","","","","2495","",""
"html-keyboard-response","165","357281","0.0-69.0-0.0","","2316.39999999851","<div style=""display: flex; flex-direction: column; align-items: center; margin-top: -40px;""><img src=""images/pattern_6.png"" style=""width: 234px; height: 230px; margin-top: -50px;""><div style=""display: flex; justify-content: space-between; margin-top: 33px;""><img src=""images/choice_trial_5.png"" style=""width: 408px; height: 417px; margin-right: 200px;""><img src=""images/choice_trial_11.png"" style=""width: 408px; height: 417px;""></div></div>","j","delaylearn","learning","trial","5feb9a64d42dc5c4926ffe03","4ZoiaWCqZ2ZuKIM6Z9hR73OcHrS2","2","images/choice_trial_5.png","images/choice_trial_11.png","images/pattern_6.png","j","j","750","5","11","5","1","30","1","1","11","170","","","","",""
"html-keyboard-response","166","358291","0.0-69.0-1.0","","null","<div style=""display: flex; flex-direction: column; align-items: center; margin-top: -40px;""><img src=""images/pattern_6.png"" style=""width: 234px; height: 230px; margin-top: -50px;""><div style=""display: flex; justify-content: space-between; margin-top: 33px;""><img src=""images/choice_trial_11.png"" style=""width: 408px; height: 417px; margin-left:608px;""></div></div>","null","delaylearn","learning","display_response","5feb9a64d42dc5c4926ffe03","4ZoiaWCqZ2ZuKIM6Z9hR73OcHrS2","","","","","","","","","","","","","","","","","chosen stimuli: images/choice_trial_11.png","","","",""
"html-keyboard-response","167","359055","0.0-69.0-2.0","","null","","null","delaylearn","learning","feedback_duration_window","5feb9a64d42dc5c4926ffe03","4ZoiaWCqZ2ZuKIM6Z9hR73OcHrS2","","","","","","","","","","","","","","","","","","750","","",""
"html-keyboard-response","168","360562","0.0-69.0-3.0","","null","<div style='margin:auto;width: auto; font-size: 150%'><span style='font-weight: bold; font-size: 100px; color: green;'>+10 points!</span><br><br></div>","null","delaylearn","learning","feedback_image_window","5feb9a64d42dc5c4926ffe03","4ZoiaWCqZ2ZuKIM6Z9hR73OcHrS2","","","","","","","","","","","","","","","","","","","","",""
"html-keyboard-response","169","361077","0.0-70.0-0.0","","null","","null","","","mood_trial_fixation","","","","","","","","","","","","","","","","","","","","","","",""
"lmdlab-html-vas-response","170","366123","0.0-70.0-1.0","","4032","How happy are you right now?","0.8260271483985454","delaylearn","learning","mood_trial","5feb9a64d42dc5c4926ffe03","4ZoiaWCqZ2ZuKIM6Z9hR73OcHrS2","","","","","","","","","","","","","","","","","","","","[""Very unhappy"",""Very happy""]",""
"html-keyboard-response","171","367649","0.0-71.0","","null","<div style=""font-size:100px;"">+</div>","null","delaylearn","learning","ITI","5feb9a64d42dc5c4926ffe03","4ZoiaWCqZ2ZuKIM6Z9hR73OcHrS2","","","","","","","","","","","","","","","","","","","1514","",""
"html-keyboard-response","172","370450","0.0-72.0-0.0","","2798.39999999851","<div style=""display: flex; flex-direction: column; align-items: center; margin-top: -40px;""><img src=""images/pattern_4.png"" style=""width: 234px; height: 230px; margin-top: -50px;""><div style=""display: flex; justify-content: space-between; margin-top: 33px;""><img src=""images/choice_trial_16.png"" style=""width: 408px; height: 417px; margin-right: 200px;""><img src=""images/choice_trial_4.png"" style=""width: 408px; height: 417px;""></div></div>","j","delaylearn","learning","trial","5feb9a64d42dc5c4926ffe03","4ZoiaWCqZ2ZuKIM6Z9hR73OcHrS2","2","images/choice_trial_16.png","images/choice_trial_4.png","images/pattern_4.png","j","j","7000","16","4","3","1","31","1","1","4","180","","","","",""
"html-keyboard-response","173","371464","0.0-72.0-1.0","","null","<div style=""display: flex; flex-direction: column; align-items: center; margin-top: -40px;""><img src=""images/pattern_4.png"" style=""width: 234px; height: 230px; margin-top: -50px;""><div style=""display: flex; justify-content: space-between; margin-top: 33px;""><img src=""images/choice_trial_4.png"" style=""width: 408px; height: 417px; margin-left:608px;""></div></div>","null","delaylearn","learning","display_response","5feb9a64d42dc5c4926ffe03","4ZoiaWCqZ2ZuKIM6Z9hR73OcHrS2","","","","","","","","","","","","","","","","","chosen stimuli: images/choice_trial_4.png","","","",""
"html-keyboard-response","174","378481","0.0-72.0-2.0","","null","","null","delaylearn","learning","feedback_duration_window","5feb9a64d42dc5c4926ffe03","4ZoiaWCqZ2ZuKIM6Z9hR73OcHrS2","","","","","","","","","","","","","","","","","","7000","","",""
"html-keyboard-response","175","379987","0.0-72.0-3.0","","null","<div style='margin:auto;width: auto; font-size: 150%'><span style='font-weight: bold; font-size: 100px; color: green;'>+10 points!</span><br><br></div>","null","delaylearn","learning","feedback_image_window","5feb9a64d42dc5c4926ffe03","4ZoiaWCqZ2ZuKIM6Z9hR73OcHrS2","","","","","","","","","","","","","","","","","","","","",""
"html-keyboard-response","176","381871","0.0-73.0","","null","<div style=""font-size:100px;"">+</div>","null","delaylearn","learning","ITI","5feb9a64d42dc5c4926ffe03","4ZoiaWCqZ2ZuKIM6Z9hR73OcHrS2","","","","","","","","","","","","","","","","","","","1882","",""
"html-keyboard-response","177","383586","0.0-74.0-0.0","","1711.199999999255","<div style=""display: flex; flex-direction: column; align-items: center; margin-top: -40px;""><img src=""images/pattern_3.png"" style=""width: 234px; height: 230px; margin-top: -50px;""><div style=""display: flex; justify-content: space-between; margin-top: 33px;""><img src=""images/choice_trial_14.png"" style=""width: 408px; height: 417px; margin-right: 200px;""><img src=""images/choice_trial_12.png"" style=""width: 408px; height: 417px;""></div></div>","j","delaylearn","learning","trial","5feb9a64d42dc5c4926ffe03","4ZoiaWCqZ2ZuKIM6Z9hR73OcHrS2","2","images/choice_trial_14.png","images/choice_trial_12.png","images/pattern_3.png","j","j","7000","14","12","2","1","32","1","1","12","190","","","","",""
"html-keyboard-response","178","384593","0.0-74.0-1.0","","null","<div style=""display: flex; flex-direction: column; align-items: center; margin-top: -40px;""><img src=""images/pattern_3.png"" style=""width: 234px; height: 230px; margin-top: -50px;""><div style=""display: flex; justify-content: space-between; margin-top: 33px;""><img src=""images/choice_trial_12.png"" style=""width: 408px; height: 417px; margin-left:608px;""></div></div>","null","delaylearn","learning","display_response","5feb9a64d42dc5c4926ffe03","4ZoiaWCqZ2ZuKIM6Z9hR73OcHrS2","","","","","","","","","","","","","","","","","chosen stimuli: images/choice_trial_12.png","","","",""
"html-keyboard-response","179","391601","0.0-74.0-2.0","","null","","null","delaylearn","learning","feedback_duration_window","5feb9a64d42dc5c4926ffe03","4ZoiaWCqZ2ZuKIM6Z9hR73OcHrS2","","","","","","","","","","","","","","","","","","7000","","",""
"html-keyboard-response","180","393107","0.0-74.0-3.0","","null","<div style='margin:auto;width: auto; font-size: 150%'><span style='font-weight: bold; font-size: 100px; color: green;'>+10 points!</span><br><br></div>","null","delaylearn","learning","feedback_image_window","5feb9a64d42dc5c4926ffe03","4ZoiaWCqZ2ZuKIM6Z9hR73OcHrS2","","","","","","","","","","","","","","","","","","","","",""
"html-keyboard-response","181","395345","0.0-75.0","","null","<div style=""font-size:100px;"">+</div>","null","delaylearn","learning","ITI","5feb9a64d42dc5c4926ffe03","4ZoiaWCqZ2ZuKIM6Z9hR73OcHrS2","","","","","","","","","","","","","","","","","","","2227","",""
"html-keyboard-response","182","397232","0.0-76.0-0.0","","1885","<div style=""display: flex; flex-direction: column; align-items: center; margin-top: -40px;""><img src=""images/pattern_5.png"" style=""width: 234px; height: 230px; margin-top: -50px;""><div style=""display: flex; justify-content: space-between; margin-top: 33px;""><img src=""images/choice_trial_2.png"" style=""width: 408px; height: 417px; margin-right: 200px;""><img src=""images/choice_trial_9.png"" style=""width: 408px; height: 417px;""></div></div>","f","delaylearn","learning","trial","5feb9a64d42dc5c4926ffe03","4ZoiaWCqZ2ZuKIM6Z9hR73OcHrS2","2","images/choice_trial_2.png","images/choice_trial_9.png","images/pattern_5.png","j","f","750","2","9","4","0","33","1","0","2","190","","","","",""
"html-keyboard-response","183","398247","0.0-76.0-1.0","","null","<div style=""display: flex; flex-direction: column; align-items: center; margin-top: -40px;""><img src=""images/pattern_5.png"" style=""width: 234px; height: 230px; margin-top: -50px;""><div style=""display: flex; justify-content: space-between; margin-top: 33px;""><img src=""images/choice_trial_2.png"" style=""width: 408px; height: 417px; margin-right: 608px;""></div></div>","null","delaylearn","learning","display_response","5feb9a64d42dc5c4926ffe03","4ZoiaWCqZ2ZuKIM6Z9hR73OcHrS2","","","","","","","","","","","","","","","","","chosen stimuli: images/choice_trial_2.png","","","",""
"html-keyboard-response","184","399007","0.0-76.0-2.0","","null","","null","delaylearn","learning","feedback_duration_window","5feb9a64d42dc5c4926ffe03","4ZoiaWCqZ2ZuKIM6Z9hR73OcHrS2","","","","","","","","","","","","","","","","","","750","","",""
"html-keyboard-response","185","400509","0.0-76.0-3.0","","null","<div style='margin:auto;width: auto; font-size: 150%'><span style='font-weight: bold; font-size: 100px; color: red;'>0 points!</span><br><br></div>","null","delaylearn","learning","feedback_image_window","5feb9a64d42dc5c4926ffe03","4ZoiaWCqZ2ZuKIM6Z9hR73OcHrS2","","","","","","","","","","","","","","","","","","","","",""
"html-keyboard-response","186","402656","0.0-77.0","","null","<div style=""font-size:100px;"">+</div>","null","delaylearn","learning","ITI","5feb9a64d42dc5c4926ffe03","4ZoiaWCqZ2ZuKIM6Z9hR73OcHrS2","","","","","","","","","","","","","","","","","","","2130","",""
"html-keyboard-response","187","404059","0.0-78.0-0.0","","1399.0999999977648","<div style=""display: flex; flex-direction: column; align-items: center; margin-top: -40px;""><img src=""images/pattern_1.png"" style=""width: 234px; height: 230px; margin-top: -50px;""><div style=""display: flex; justify-content: space-between; margin-top: 33px;""><img src=""images/choice_trial_3.png"" style=""width: 408px; height: 417px; margin-right: 200px;""><img src=""images/choice_trial_10.png"" style=""width: 408px; height: 417px;""></div></div>","f","delaylearn","learning","trial","5feb9a64d42dc5c4926ffe03","4ZoiaWCqZ2ZuKIM6Z9hR73OcHrS2","2","images/choice_trial_3.png","images/choice_trial_10.png","images/pattern_1.png","f","f","7000","3","10","1","0","34","1","1","3","200","","","","",""
"html-keyboard-response","188","405065","0.0-78.0-1.0","","null","<div style=""display: flex; flex-direction: column; align-items: center; margin-top: -40px;""><img src=""images/pattern_1.png"" style=""width: 234px; height: 230px; margin-top: -50px;""><div style=""display: flex; justify-content: space-between; margin-top: 33px;""><img src=""images/choice_trial_3.png"" style=""width: 408px; height: 417px; margin-right: 608px;""></div></div>","null","delaylearn","learning","display_response","5feb9a64d42dc5c4926ffe03","4ZoiaWCqZ2ZuKIM6Z9hR73OcHrS2","","","","","","","","","","","","","","","","","chosen stimuli: images/choice_trial_3.png","","","",""
"html-keyboard-response","189","412068","0.0-78.0-2.0","","null","","null","delaylearn","learning","feedback_duration_window","5feb9a64d42dc5c4926ffe03","4ZoiaWCqZ2ZuKIM6Z9hR73OcHrS2","","","","","","","","","","","","","","","","","","7000","","",""
"html-keyboard-response","190","413575","0.0-78.0-3.0","","null","<div style='margin:auto;width: auto; font-size: 150%'><span style='font-weight: bold; font-size: 100px; color: green;'>+10 points!</span><br><br></div>","null","delaylearn","learning","feedback_image_window","5feb9a64d42dc5c4926ffe03","4ZoiaWCqZ2ZuKIM6Z9hR73OcHrS2","","","","","","","","","","","","","","","","","","","","",""
"html-keyboard-response","191","414089","0.0-79.0-0.0","","null","","null","","","mood_trial_fixation","","","","","","","","","","","","","","","","","","","","","","",""
"lmdlab-html-vas-response","192","419057","0.0-79.0-1.0","","3954","How happy are you right now?","0.8260271483985454","delaylearn","learning","mood_trial","5feb9a64d42dc5c4926ffe03","4ZoiaWCqZ2ZuKIM6Z9hR73OcHrS2","","","","","","","","","","","","","","","","","","","","[""Very unhappy"",""Very happy""]",""
"html-keyboard-response","193","421351","0.0-80.0","","null","<div style=""font-size:100px;"">+</div>","null","delaylearn","learning","ITI","5feb9a64d42dc5c4926ffe03","4ZoiaWCqZ2ZuKIM6Z9hR73OcHrS2","","","","","","","","","","","","","","","","","","","2286","",""
"html-keyboard-response","194","424049","0.0-81.0-0.0","","2694.60000000149","<div style=""display: flex; flex-direction: column; align-items: center; margin-top: -40px;""><img src=""images/pattern_6.png"" style=""width: 234px; height: 230px; margin-top: -50px;""><div style=""display: flex; justify-content: space-between; margin-top: 33px;""><img src=""images/choice_trial_11.png"" style=""width: 408px; height: 417px; margin-right: 200px;""><img src=""images/choice_trial_5.png"" style=""width: 408px; height: 417px;""></div></div>","j","delaylearn","learning","trial","5feb9a64d42dc5c4926ffe03","4ZoiaWCqZ2ZuKIM6Z9hR73OcHrS2","2","images/choice_trial_11.png","images/choice_trial_5.png","images/pattern_6.png","j","f","750","11","5","5","0","35","0","1","5","210","","","","",""
"html-keyboard-response","195","425053","0.0-81.0-1.0","","null","<div style=""display: flex; flex-direction: column; align-items: center; margin-top: -40px;""><img src=""images/pattern_6.png"" style=""width: 234px; height: 230px; margin-top: -50px;""><div style=""display: flex; justify-content: space-between; margin-top: 33px;""><img src=""images/choice_trial_5.png"" style=""width: 408px; height: 417px; margin-left:608px;""></div></div>","null","delaylearn","learning","display_response","5feb9a64d42dc5c4926ffe03","4ZoiaWCqZ2ZuKIM6Z9hR73OcHrS2","","","","","","","","","","","","","","","","","chosen stimuli: images/choice_trial_5.png","","","",""
"html-keyboard-response","196","425812","0.0-81.0-2.0","","null","","null","delaylearn","learning","feedback_duration_window","5feb9a64d42dc5c4926ffe03","4ZoiaWCqZ2ZuKIM6Z9hR73OcHrS2","","","","","","","","","","","","","","","","","","750","","",""
"html-keyboard-response","197","427320","0.0-81.0-3.0","","null","<div style='margin:auto;width: auto; font-size: 150%'><span style='font-weight: bold; font-size: 100px; color: green;'>+10 points!</span><br><br></div>","null","delaylearn","learning","feedback_image_window","5feb9a64d42dc5c4926ffe03","4ZoiaWCqZ2ZuKIM6Z9hR73OcHrS2","","","","","","","","","","","","","","","","","","","","",""
"html-keyboard-response","198","429729","0.0-82.0","","null","<div style=""font-size:100px;"">+</div>","null","delaylearn","learning","ITI","5feb9a64d42dc5c4926ffe03","4ZoiaWCqZ2ZuKIM6Z9hR73OcHrS2","","","","","","","","","","","","","","","","","","","2400","",""
"html-keyboard-response","199","431048","0.0-83.0-0.0","","1317.2000000029802","<div style=""display: flex; flex-direction: column; align-items: center; margin-top: -40px;""><img src=""images/pattern_3.png"" style=""width: 234px; height: 230px; margin-top: -50px;""><div style=""display: flex; justify-content: space-between; margin-top: 33px;""><img src=""images/choice_trial_14.png"" style=""width: 408px; height: 417px; margin-right: 200px;""><img src=""images/choice_trial_12.png"" style=""width: 408px; height: 417px;""></div></div>","j","delaylearn","learning","trial","5feb9a64d42dc5c4926ffe03","4ZoiaWCqZ2ZuKIM6Z9hR73OcHrS2","2","images/choice_trial_14.png","images/choice_trial_12.png","images/pattern_3.png","j","j","7000","14","12","2","1","36","1","1","12","220","","","","",""
"html-keyboard-response","200","432062","0.0-83.0-1.0","","null","<div style=""display: flex; flex-direction: column; align-items: center; margin-top: -40px;""><img src=""images/pattern_3.png"" style=""width: 234px; height: 230px; margin-top: -50px;""><div style=""display: flex; justify-content: space-between; margin-top: 33px;""><img src=""images/choice_trial_12.png"" style=""width: 408px; height: 417px; margin-left:608px;""></div></div>","null","delaylearn","learning","display_response","5feb9a64d42dc5c4926ffe03","4ZoiaWCqZ2ZuKIM6Z9hR73OcHrS2","","","","","","","","","","","","","","","","","chosen stimuli: images/choice_trial_12.png","","","",""
"html-keyboard-response","201","439065","0.0-83.0-2.0","","null","","null","delaylearn","learning","feedback_duration_window","5feb9a64d42dc5c4926ffe03","4ZoiaWCqZ2ZuKIM6Z9hR73OcHrS2","","","","","","","","","","","","","","","","","","7000","","",""
"html-keyboard-response","202","440576","0.0-83.0-3.0","","null","<div style='margin:auto;width: auto; font-size: 150%'><span style='font-weight: bold; font-size: 100px; color: green;'>+10 points!</span><br><br></div>","null","delaylearn","learning","feedback_image_window","5feb9a64d42dc5c4926ffe03","4ZoiaWCqZ2ZuKIM6Z9hR73OcHrS2","","","","","","","","","","","","","","","","","","","","",""
"html-keyboard-response","203","442740","0.0-84.0","","null","<div style=""font-size:100px;"">+</div>","null","delaylearn","learning","ITI","5feb9a64d42dc5c4926ffe03","4ZoiaWCqZ2ZuKIM6Z9hR73OcHrS2","","","","","","","","","","","","","","","","","","","2155","",""
"html-keyboard-response","204","445043","0.0-85.0-0.0","","2299.10000000149","<div style=""display: flex; flex-direction: column; align-items: center; margin-top: -40px;""><img src=""images/pattern_4.png"" style=""width: 234px; height: 230px; margin-top: -50px;""><div style=""display: flex; justify-content: space-between; margin-top: 33px;""><img src=""images/choice_trial_16.png"" style=""width: 408px; height: 417px; margin-right: 200px;""><img src=""images/choice_trial_4.png"" style=""width: 408px; height: 417px;""></div></div>","f","delaylearn","learning","trial","5feb9a64d42dc5c4926ffe03","4ZoiaWCqZ2ZuKIM6Z9hR73OcHrS2","2","images/choice_trial_16.png","images/choice_trial_4.png","images/pattern_4.png","f","j","7000","16","4","3","1","37","0","1","16","230","","","","",""
"html-keyboard-response","205","446054","0.0-85.0-1.0","","null","<div style=""display: flex; flex-direction: column; align-items: center; margin-top: -40px;""><img src=""images/pattern_4.png"" style=""width: 234px; height: 230px; margin-top: -50px;""><div style=""display: flex; justify-content: space-between; margin-top: 33px;""><img src=""images/choice_trial_16.png"" style=""width: 408px; height: 417px; margin-right: 608px;""></div></div>","null","delaylearn","learning","display_response","5feb9a64d42dc5c4926ffe03","4ZoiaWCqZ2ZuKIM6Z9hR73OcHrS2","","","","","","","","","","","","","","","","","chosen stimuli: images/choice_trial_16.png","","","",""
"html-keyboard-response","206","453064","0.0-85.0-2.0","","null","","null","delaylearn","learning","feedback_duration_window","5feb9a64d42dc5c4926ffe03","4ZoiaWCqZ2ZuKIM6Z9hR73OcHrS2","","","","","","","","","","","","","","","","","","7000","","",""
"html-keyboard-response","207","454572","0.0-85.0-3.0","","null","<div style='margin:auto;width: auto; font-size: 150%'><span style='font-weight: bold; font-size: 100px; color: green;'>+10 points!</span><br><br></div>","null","delaylearn","learning","feedback_image_window","5feb9a64d42dc5c4926ffe03","4ZoiaWCqZ2ZuKIM6Z9hR73OcHrS2","","","","","","","","","","","","","","","","","","","","",""
"html-keyboard-response","208","456305","0.0-86.0","","null","<div style=""font-size:100px;"">+</div>","null","delaylearn","learning","ITI","5feb9a64d42dc5c4926ffe03","4ZoiaWCqZ2ZuKIM6Z9hR73OcHrS2","","","","","","","","","","","","","","","","","","","1722","",""
"html-keyboard-response","209","457172","0.0-87.0-0.0","","864.5","<div style=""display: flex; flex-direction: column; align-items: center; margin-top: -40px;""><img src=""images/pattern_7.png"" style=""width: 234px; height: 230px; margin-top: -50px;""><div style=""display: flex; justify-content: space-between; margin-top: 33px;""><img src=""images/choice_trial_8.png"" style=""width: 408px; height: 417px; margin-right: 200px;""><img src=""images/choice_trial_15.png"" style=""width: 408px; height: 417px;""></div></div>","f","delaylearn","learning","trial","5feb9a64d42dc5c4926ffe03","4ZoiaWCqZ2ZuKIM6Z9hR73OcHrS2","2","images/choice_trial_8.png","images/choice_trial_15.png","images/pattern_7.png","f","f","750","8","15","6","0","38","1","1","8","240","","","","",""
"html-keyboard-response","210","458181","0.0-87.0-1.0","","null","<div style=""display: flex; flex-direction: column; align-items: center; margin-top: -40px;""><img src=""images/pattern_7.png"" style=""width: 234px; height: 230px; margin-top: -50px;""><div style=""display: flex; justify-content: space-between; margin-top: 33px;""><img src=""images/choice_trial_8.png"" style=""width: 408px; height: 417px; margin-right: 608px;""></div></div>","null","delaylearn","learning","display_response","5feb9a64d42dc5c4926ffe03","4ZoiaWCqZ2ZuKIM6Z9hR73OcHrS2","","","","","","","","","","","","","","","","","chosen stimuli: images/choice_trial_8.png","","","",""
"html-keyboard-response","211","458943","0.0-87.0-2.0","","null","","null","delaylearn","learning","feedback_duration_window","5feb9a64d42dc5c4926ffe03","4ZoiaWCqZ2ZuKIM6Z9hR73OcHrS2","","","","","","","","","","","","","","","","","","750","","",""
"html-keyboard-response","212","460452","0.0-87.0-3.0","","null","<div style='margin:auto;width: auto; font-size: 150%'><span style='font-weight: bold; font-size: 100px; color: green;'>+10 points!</span><br><br></div>","null","delaylearn","learning","feedback_image_window","5feb9a64d42dc5c4926ffe03","4ZoiaWCqZ2ZuKIM6Z9hR73OcHrS2","","","","","","","","","","","","","","","","","","","","",""
"html-keyboard-response","213","462113","0.0-88.0","","null","<div style=""font-size:100px;"">+</div>","null","delaylearn","learning","ITI","5feb9a64d42dc5c4926ffe03","4ZoiaWCqZ2ZuKIM6Z9hR73OcHrS2","","","","","","","","","","","","","","","","","","","1648","",""
"html-keyboard-response","214","463078","0.0-89.0-0.0","","961.1000000014901","<div style=""display: flex; flex-direction: column; align-items: center; margin-top: -40px;""><img src=""images/pattern_1.png"" style=""width: 234px; height: 230px; margin-top: -50px;""><div style=""display: flex; justify-content: space-between; margin-top: 33px;""><img src=""images/choice_trial_3.png"" style=""width: 408px; height: 417px; margin-right: 200px;""><img src=""images/choice_trial_10.png"" style=""width: 408px; height: 417px;""></div></div>","f","delaylearn","learning","trial","5feb9a64d42dc5c4926ffe03","4ZoiaWCqZ2ZuKIM6Z9hR73OcHrS2","2","images/choice_trial_3.png","images/choice_trial_10.png","images/pattern_1.png","f","f","7000","3","10","1","0","39","1","1","3","250","","","","",""
"html-keyboard-response","215","464088","0.0-89.0-1.0","","null","<div style=""display: flex; flex-direction: column; align-items: center; margin-top: -40px;""><img src=""images/pattern_1.png"" style=""width: 234px; height: 230px; margin-top: -50px;""><div style=""display: flex; justify-content: space-between; margin-top: 33px;""><img src=""images/choice_trial_3.png"" style=""width: 408px; height: 417px; margin-right: 608px;""></div></div>","null","delaylearn","learning","display_response","5feb9a64d42dc5c4926ffe03","4ZoiaWCqZ2ZuKIM6Z9hR73OcHrS2","","","","","","","","","","","","","","","","","chosen stimuli: images/choice_trial_3.png","","","",""
"html-keyboard-response","216","471101","0.0-89.0-2.0","","null","","null","delaylearn","learning","feedback_duration_window","5feb9a64d42dc5c4926ffe03","4ZoiaWCqZ2ZuKIM6Z9hR73OcHrS2","","","","","","","","","","","","","","","","","","7000","","",""
"html-keyboard-response","217","472618","0.0-89.0-3.0","","null","<div style='margin:auto;width: auto; font-size: 150%'><span style='font-weight: bold; font-size: 100px; color: green;'>+10 points!</span><br><br></div>","null","delaylearn","learning","feedback_image_window","5feb9a64d42dc5c4926ffe03","4ZoiaWCqZ2ZuKIM6Z9hR73OcHrS2","","","","","","","","","","","","","","","","","","","","",""
"html-keyboard-response","218","473131","0.0-90.0-0.0","","null","","null","","","mood_trial_fixation","","","","","","","","","","","","","","","","","","","","","","",""
"lmdlab-html-vas-response","219","477692","0.0-90.0-1.0","","3547","How happy are you right now?","0.8202401116340491","delaylearn","learning","mood_trial","5feb9a64d42dc5c4926ffe03","4ZoiaWCqZ2ZuKIM6Z9hR73OcHrS2","","","","","","","","","","","","","","","","","","","","[""Very unhappy"",""Very happy""]",""
"html-keyboard-response","220","479978","0.0-91.0","","null","<div style=""font-size:100px;"">+</div>","null","delaylearn","learning","ITI","5feb9a64d42dc5c4926ffe03","4ZoiaWCqZ2ZuKIM6Z9hR73OcHrS2","","","","","","","","","","","","","","","","","","","2274","",""
