"trial_type","trial_index","time_elapsed","internal_node_id","participant","rt","stimulus","response","exp_name","exp_stage","test_part","subjectID","databaseID","counterbal","choice_stimuli_1","choice_stimuli_2","pattern_stimuli","rewarded_answer","correct_answer","feedback_duration_times","stim_left","stim_right","pair","leftright_counter","trial","response_correct","response_rewarded","chosen_stim","counter","displayed_choice","feedback_durations","ITI_duration","labels","rest_warning"
"pavlovia","0","485","0.0-0.0","","","","","","","","","","","","","","","","","","","","","","","","","","","","","",""
"html-keyboard-response","1","3491","0.0-1.0","","null","<div style=""font-size:100px;"">+</div>","null","delaylearn","learning","pre_fixation","63d3f99c57f6b09e77ce7c82","","","","","","","","","","","","","","","","","","","","","",""
"html-keyboard-response","2","4757","0.0-2.0-0.0","","1263","<div style=""display: flex; flex-direction: column; align-items: center; margin-top: -40px;""><img src=""images/demo_images/pattern_1.png"" style=""width: 234px; height: 230px; margin-top: -50px;""><div style=""display: flex; justify-content: space-between; margin-top: 33px;""><img src=""images/demo_images/choice_trial_2.png"" style=""width: 408px; height: 417px; margin-right: 200px;""><img src=""images/demo_images/choice_trial_1.png"" style=""width: 408px; height: 417px;""></div></div>","f","delaylearn","learning","trial","63d3f99c57f6b09e77ce7c82","BMN4zMU9PwdgRSTOmX2osTnrKBC3","1","images/demo_images/choice_trial_2.png","images/demo_images/choice_trial_1.png","images/demo_images/pattern_1.png","j","j","3000","2","1","20","1","1","0","0","2","0","","","","",""
"html-keyboard-response","3","5765","0.0-2.0-1.0","","null","<div style=""display: flex; flex-direction: column; align-items: center; margin-top: -40px;""><img src=""images/demo_images/pattern_1.png"" style=""width: 234px; height: 230px; margin-top: -50px;""><div style=""display: flex; justify-content: space-between; margin-top: 33px;""><img src=""images/demo_images/choice_trial_2.png"" style=""width: 408px; height: 417px; margin-right: 608px;""></div></div>","null","delaylearn","learning","display_response","63d3f99c57f6b09e77ce7c82","BMN4zMU9PwdgRSTOmX2osTnrKBC3","","","","","","","","","","","","","","","","","chosen stimuli: images/demo_images/choice_trial_2.png","","","",""
"html-keyboard-response","4","8772","0.0-2.0-2.0","","null","","null","delaylearn","learning","feedback_duration_window","63d3f99c57f6b09e77ce7c82","BMN4zMU9PwdgRSTOmX2osTnrKBC3","","","","","","","","","","","","","","","","","","3000","","",""
"html-keyboard-response","5","10281","0.0-2.0-3.0","","null","<div style='margin:auto;width: auto; font-size: 150%'><span style='font-weight: bold; font-size: 100px; color: red;'>0 points!</span><br><br></div>","null","delaylearn","learning","feedback_image_window","63d3f99c57f6b09e77ce7c82","BMN4zMU9PwdgRSTOmX2osTnrKBC3","","","","","","","","","","","","","","","","","","","","",""
"html-keyboard-response","6","12012","0.0-3.0","","null","<div style=""font-size:100px;"">+</div>","null","delaylearn","learning","ITI","63d3f99c57f6b09e77ce7c82","BMN4zMU9PwdgRSTOmX2osTnrKBC3","","","","","","","","","","","","","","","","","","","1726","",""
"html-keyboard-response","7","12734","0.0-4.0-0.0","","719","<div style=""display: flex; flex-direction: column; align-items: center; margin-top: -40px;""><img src=""images/demo_images/pattern_1.png"" style=""width: 234px; height: 230px; margin-top: -50px;""><div style=""display: flex; justify-content: space-between; margin-top: 33px;""><img src=""images/demo_images/choice_trial_2.png"" style=""width: 408px; height: 417px; margin-right: 200px;""><img src=""images/demo_images/choice_trial_1.png"" style=""width: 408px; height: 417px;""></div></div>","j","delaylearn","learning","trial","63d3f99c57f6b09e77ce7c82","BMN4zMU9PwdgRSTOmX2osTnrKBC3","1","images/demo_images/choice_trial_2.png","images/demo_images/choice_trial_1.png","images/demo_images/pattern_1.png","j","j","3000","2","1","20","1","2","1","1","1","10","","","","",""
"html-keyboard-response","8","13741","0.0-4.0-1.0","","null","<div style=""display: flex; flex-direction: column; align-items: center; margin-top: -40px;""><img src=""images/demo_images/pattern_1.png"" style=""width: 234px; height: 230px; margin-top: -50px;""><div style=""display: flex; justify-content: space-between; margin-top: 33px;""><img src=""images/demo_images/choice_trial_1.png"" style=""width: 408px; height: 417px; margin-left:608px;""></div></div>","null","delaylearn","learning","display_response","63d3f99c57f6b09e77ce7c82","BMN4zMU9PwdgRSTOmX2osTnrKBC3","","","","","","","","","","","","","","","","","chosen stimuli: images/demo_images/choice_trial_1.png","","","",""
"html-keyboard-response","9","16748","0.0-4.0-2.0","","null","","null","delaylearn","learning","feedback_duration_window","63d3f99c57f6b09e77ce7c82","BMN4zMU9PwdgRSTOmX2osTnrKBC3","","","","","","","","","","","","","","","","","","3000","","",""
"html-keyboard-response","10","18256","0.0-4.0-3.0","","null","<div style='margin:auto;width: auto; font-size: 150%'><span style='font-weight: bold; font-size: 100px; color: green;'>+10 points!</span><br><br></div>","null","delaylearn","learning","feedback_image_window","63d3f99c57f6b09e77ce7c82","BMN4zMU9PwdgRSTOmX2osTnrKBC3","","","","","","","","","","","","","","","","","","","","",""
"html-keyboard-response","11","20000","0.0-5.0","","null","<div style=""font-size:100px;"">+</div>","null","delaylearn","learning","ITI","63d3f99c57f6b09e77ce7c82","BMN4zMU9PwdgRSTOmX2osTnrKBC3","","","","","","","","","","","","","","","","","","","1690","",""
"html-keyboard-response","12","20831","0.0-6.0-0.0","","825","<div style=""display: flex; flex-direction: column; align-items: center; margin-top: -40px;""><img src=""images/demo_images/pattern_1.png"" style=""width: 234px; height: 230px; margin-top: -50px;""><div style=""display: flex; justify-content: space-between; margin-top: 33px;""><img src=""images/demo_images/choice_trial_1.png"" style=""width: 408px; height: 417px; margin-right: 200px;""><img src=""images/demo_images/choice_trial_2.png"" style=""width: 408px; height: 417px;""></div></div>","f","delaylearn","learning","trial","63d3f99c57f6b09e77ce7c82","BMN4zMU9PwdgRSTOmX2osTnrKBC3","1","images/demo_images/choice_trial_1.png","images/demo_images/choice_trial_2.png","images/demo_images/pattern_1.png","j","f","3000","1","2","20","0","3","1","0","1","10","","","","",""
"html-keyboard-response","13","21838","0.0-6.0-1.0","","null","<div style=""display: flex; flex-direction: column; align-items: center; margin-top: -40px;""><img src=""images/demo_images/pattern_1.png"" style=""width: 234px; height: 230px; margin-top: -50px;""><div style=""display: flex; justify-content: space-between; margin-top: 33px;""><img src=""images/demo_images/choice_trial_1.png"" style=""width: 408px; height: 417px; margin-right: 608px;""></div></div>","null","delaylearn","learning","display_response","63d3f99c57f6b09e77ce7c82","BMN4zMU9PwdgRSTOmX2osTnrKBC3","","","","","","","","","","","","","","","","","chosen stimuli: images/demo_images/choice_trial_1.png","","","",""
"html-keyboard-response","14","24845","0.0-6.0-2.0","","null","","null","delaylearn","learning","feedback_duration_window","63d3f99c57f6b09e77ce7c82","BMN4zMU9PwdgRSTOmX2osTnrKBC3","","","","","","","","","","","","","","","","","","3000","","",""
"html-keyboard-response","15","26352","0.0-6.0-3.0","","null","<div style='margin:auto;width: auto; font-size: 150%'><span style='font-weight: bold; font-size: 100px; color: red;'>0 points!</span><br><br></div>","null","delaylearn","learning","feedback_image_window","63d3f99c57f6b09e77ce7c82","BMN4zMU9PwdgRSTOmX2osTnrKBC3","","","","","","","","","","","","","","","","","","","","",""
"html-keyboard-response","16","28770","0.0-7.0","","null","<div style=""font-size:100px;"">+</div>","null","delaylearn","learning","ITI","63d3f99c57f6b09e77ce7c82","BMN4zMU9PwdgRSTOmX2osTnrKBC3","","","","","","","","","","","","","","","","","","","2411","",""
"html-keyboard-response","17","30446","0.0-8.0-0.0","","1672","<div style=""display: flex; flex-direction: column; align-items: center; margin-top: -40px;""><img src=""images/demo_images/pattern_1.png"" style=""width: 234px; height: 230px; margin-top: -50px;""><div style=""display: flex; justify-content: space-between; margin-top: 33px;""><img src=""images/demo_images/choice_trial_1.png"" style=""width: 408px; height: 417px; margin-right: 200px;""><img src=""images/demo_images/choice_trial_2.png"" style=""width: 408px; height: 417px;""></div></div>","j","delaylearn","learning","trial","63d3f99c57f6b09e77ce7c82","BMN4zMU9PwdgRSTOmX2osTnrKBC3","1","images/demo_images/choice_trial_1.png","images/demo_images/choice_trial_2.png","images/demo_images/pattern_1.png","f","f","3000","1","2","20","0","4","0","0","2","10","","","","",""
"html-keyboard-response","18","31454","0.0-8.0-1.0","","null","<div style=""display: flex; flex-direction: column; align-items: center; margin-top: -40px;""><img src=""images/demo_images/pattern_1.png"" style=""width: 234px; height: 230px; margin-top: -50px;""><div style=""display: flex; justify-content: space-between; margin-top: 33px;""><img src=""images/demo_images/choice_trial_2.png"" style=""width: 408px; height: 417px; margin-left:608px;""></div></div>","null","delaylearn","learning","display_response","63d3f99c57f6b09e77ce7c82","BMN4zMU9PwdgRSTOmX2osTnrKBC3","","","","","","","","","","","","","","","","","chosen stimuli: images/demo_images/choice_trial_2.png","","","",""
"html-keyboard-response","19","34461","0.0-8.0-2.0","","null","","null","delaylearn","learning","feedback_duration_window","63d3f99c57f6b09e77ce7c82","BMN4zMU9PwdgRSTOmX2osTnrKBC3","","","","","","","","","","","","","","","","","","3000","","",""
"html-keyboard-response","20","35969","0.0-8.0-3.0","","null","<div style='margin:auto;width: auto; font-size: 150%'><span style='font-weight: bold; font-size: 100px; color: red;'>0 points!</span><br><br></div>","null","delaylearn","learning","feedback_image_window","63d3f99c57f6b09e77ce7c82","BMN4zMU9PwdgRSTOmX2osTnrKBC3","","","","","","","","","","","","","","","","","","","","",""
"html-keyboard-response","21","36477","0.0-9.0-0.0","","null","","null","","","mood_trial_fixation","","","","","","","","","","","","","","","","","","","","","","",""
"lmdlab-html-vas-response","22","42472","0.0-9.0-1.0","","4986","How happy are you right now?","0.2601246105919003","delaylearn","learning","mood_trial","63d3f99c57f6b09e77ce7c82","BMN4zMU9PwdgRSTOmX2osTnrKBC3","","","","","","","","","","","","","","","","","","","","[""Very unhappy"",""Very happy""]",""
"html-keyboard-response","23","44411","0.0-10.0","","null","<div style=""font-size:100px;"">+</div>","null","delaylearn","learning","ITI","63d3f99c57f6b09e77ce7c82","BMN4zMU9PwdgRSTOmX2osTnrKBC3","","","","","","","","","","","","","","","","","","","1931","",""
"html-keyboard-response","24","46071","0.0-11.0-0.0","","1656","<div style=""display: flex; flex-direction: column; align-items: center; margin-top: -40px;""><img src=""images/demo_images/pattern_1.png"" style=""width: 234px; height: 230px; margin-top: -50px;""><div style=""display: flex; justify-content: space-between; margin-top: 33px;""><img src=""images/demo_images/choice_trial_2.png"" style=""width: 408px; height: 417px; margin-right: 200px;""><img src=""images/demo_images/choice_trial_1.png"" style=""width: 408px; height: 417px;""></div></div>","j","delaylearn","learning","trial","63d3f99c57f6b09e77ce7c82","BMN4zMU9PwdgRSTOmX2osTnrKBC3","1","images/demo_images/choice_trial_2.png","images/demo_images/choice_trial_1.png","images/demo_images/pattern_1.png","j","j","3000","2","1","20","1","5","1","1","1","20","","","","",""
"html-keyboard-response","25","47079","0.0-11.0-1.0","","null","<div style=""display: flex; flex-direction: column; align-items: center; margin-top: -40px;""><img src=""images/demo_images/pattern_1.png"" style=""width: 234px; height: 230px; margin-top: -50px;""><div style=""display: flex; justify-content: space-between; margin-top: 33px;""><img src=""images/demo_images/choice_trial_1.png"" style=""width: 408px; height: 417px; margin-left:608px;""></div></div>","null","delaylearn","learning","display_response","63d3f99c57f6b09e77ce7c82","BMN4zMU9PwdgRSTOmX2osTnrKBC3","","","","","","","","","","","","","","","","","chosen stimuli: images/demo_images/choice_trial_1.png","","","",""
"html-keyboard-response","26","50086","0.0-11.0-2.0","","null","","null","delaylearn","learning","feedback_duration_window","63d3f99c57f6b09e77ce7c82","BMN4zMU9PwdgRSTOmX2osTnrKBC3","","","","","","","","","","","","","","","","","","3000","","",""
"html-keyboard-response","27","51595","0.0-11.0-3.0","","null","<div style='margin:auto;width: auto; font-size: 150%'><span style='font-weight: bold; font-size: 100px; color: green;'>+10 points!</span><br><br></div>","null","delaylearn","learning","feedback_image_window","63d3f99c57f6b09e77ce7c82","BMN4zMU9PwdgRSTOmX2osTnrKBC3","","","","","","","","","","","","","","","","","","","","",""
"html-keyboard-response","28","53866","0.0-12.0","","null","<div style=""font-size:100px;"">+</div>","null","delaylearn","learning","ITI","63d3f99c57f6b09e77ce7c82","BMN4zMU9PwdgRSTOmX2osTnrKBC3","","","","","","","","","","","","","","","","","","","2264","",""
"html-keyboard-response","29","54772","0.0-13.0-0.0","","900","<div style=""display: flex; flex-direction: column; align-items: center; margin-top: -40px;""><img src=""images/demo_images/pattern_1.png"" style=""width: 234px; height: 230px; margin-top: -50px;""><div style=""display: flex; justify-content: space-between; margin-top: 33px;""><img src=""images/demo_images/choice_trial_1.png"" style=""width: 408px; height: 417px; margin-right: 200px;""><img src=""images/demo_images/choice_trial_2.png"" style=""width: 408px; height: 417px;""></div></div>","f","delaylearn","learning","trial","63d3f99c57f6b09e77ce7c82","BMN4zMU9PwdgRSTOmX2osTnrKBC3","1","images/demo_images/choice_trial_1.png","images/demo_images/choice_trial_2.png","images/demo_images/pattern_1.png","f","f","3000","1","2","20","0","6","1","1","1","30","","","","",""
"html-keyboard-response","30","55792","0.0-13.0-1.0","","null","<div style=""display: flex; flex-direction: column; align-items: center; margin-top: -40px;""><img src=""images/demo_images/pattern_1.png"" style=""width: 234px; height: 230px; margin-top: -50px;""><div style=""display: flex; justify-content: space-between; margin-top: 33px;""><img src=""images/demo_images/choice_trial_1.png"" style=""width: 408px; height: 417px; margin-right: 608px;""></div></div>","null","delaylearn","learning","display_response","63d3f99c57f6b09e77ce7c82","BMN4zMU9PwdgRSTOmX2osTnrKBC3","","","","","","","","","","","","","","","","","chosen stimuli: images/demo_images/choice_trial_1.png","","","",""
"html-keyboard-response","31","58799","0.0-13.0-2.0","","null","","null","delaylearn","learning","feedback_duration_window","63d3f99c57f6b09e77ce7c82","BMN4zMU9PwdgRSTOmX2osTnrKBC3","","","","","","","","","","","","","","","","","","3000","","",""
"html-keyboard-response","32","60307","0.0-13.0-3.0","","null","<div style='margin:auto;width: auto; font-size: 150%'><span style='font-weight: bold; font-size: 100px; color: green;'>+10 points!</span><br><br></div>","null","delaylearn","learning","feedback_image_window","63d3f99c57f6b09e77ce7c82","BMN4zMU9PwdgRSTOmX2osTnrKBC3","","","","","","","","","","","","","","","","","","","","",""
"html-keyboard-response","33","62455","0.0-14.0","","null","<div style=""font-size:100px;"">+</div>","null","delaylearn","learning","ITI","63d3f99c57f6b09e77ce7c82","BMN4zMU9PwdgRSTOmX2osTnrKBC3","","","","","","","","","","","","","","","","","","","2145","",""
"html-keyboard-response","34","63354","0.0-15.0-0.0","","895","<div style=""display: flex; flex-direction: column; align-items: center; margin-top: -40px;""><img src=""images/demo_images/pattern_1.png"" style=""width: 234px; height: 230px; margin-top: -50px;""><div style=""display: flex; justify-content: space-between; margin-top: 33px;""><img src=""images/demo_images/choice_trial_2.png"" style=""width: 408px; height: 417px; margin-right: 200px;""><img src=""images/demo_images/choice_trial_1.png"" style=""width: 408px; height: 417px;""></div></div>","j","delaylearn","learning","trial","63d3f99c57f6b09e77ce7c82","BMN4zMU9PwdgRSTOmX2osTnrKBC3","1","images/demo_images/choice_trial_2.png","images/demo_images/choice_trial_1.png","images/demo_images/pattern_1.png","j","j","3000","2","1","20","1","7","1","1","1","40","","","","",""
"html-keyboard-response","35","64414","0.0-15.0-1.0","","null","<div style=""display: flex; flex-direction: column; align-items: center; margin-top: -40px;""><img src=""images/demo_images/pattern_1.png"" style=""width: 234px; height: 230px; margin-top: -50px;""><div style=""display: flex; justify-content: space-between; margin-top: 33px;""><img src=""images/demo_images/choice_trial_1.png"" style=""width: 408px; height: 417px; margin-left:608px;""></div></div>","null","delaylearn","learning","display_response","63d3f99c57f6b09e77ce7c82","BMN4zMU9PwdgRSTOmX2osTnrKBC3","","","","","","","","","","","","","","","","","chosen stimuli: images/demo_images/choice_trial_1.png","","","",""
"html-keyboard-response","36","67422","0.0-15.0-2.0","","null","","null","delaylearn","learning","feedback_duration_window","63d3f99c57f6b09e77ce7c82","BMN4zMU9PwdgRSTOmX2osTnrKBC3","","","","","","","","","","","","","","","","","","3000","","",""
"html-keyboard-response","37","68931","0.0-15.0-3.0","","null","<div style='margin:auto;width: auto; font-size: 150%'><span style='font-weight: bold; font-size: 100px; color: green;'>+10 points!</span><br><br></div>","null","delaylearn","learning","feedback_image_window","63d3f99c57f6b09e77ce7c82","BMN4zMU9PwdgRSTOmX2osTnrKBC3","","","","","","","","","","","","","","","","","","","","",""
"html-keyboard-response","38","71393","0.0-16.0","","null","<div style=""font-size:100px;"">+</div>","null","delaylearn","learning","ITI","63d3f99c57f6b09e77ce7c82","BMN4zMU9PwdgRSTOmX2osTnrKBC3","","","","","","","","","","","","","","","","","","","2454","",""
"html-keyboard-response","39","72009","0.0-17.0-0.0","","613","<div style=""display: flex; flex-direction: column; align-items: center; margin-top: -40px;""><img src=""images/demo_images/pattern_1.png"" style=""width: 234px; height: 230px; margin-top: -50px;""><div style=""display: flex; justify-content: space-between; margin-top: 33px;""><img src=""images/demo_images/choice_trial_1.png"" style=""width: 408px; height: 417px; margin-right: 200px;""><img src=""images/demo_images/choice_trial_2.png"" style=""width: 408px; height: 417px;""></div></div>","f","delaylearn","learning","trial","63d3f99c57f6b09e77ce7c82","BMN4zMU9PwdgRSTOmX2osTnrKBC3","1","images/demo_images/choice_trial_1.png","images/demo_images/choice_trial_2.png","images/demo_images/pattern_1.png","f","f","3000","1","2","20","0","8","1","1","1","50","","","","",""
"html-keyboard-response","40","73018","0.0-17.0-1.0","","null","<div style=""display: flex; flex-direction: column; align-items: center; margin-top: -40px;""><img src=""images/demo_images/pattern_1.png"" style=""width: 234px; height: 230px; margin-top: -50px;""><div style=""display: flex; justify-content: space-between; margin-top: 33px;""><img src=""images/demo_images/choice_trial_1.png"" style=""width: 408px; height: 417px; margin-right: 608px;""></div></div>","null","delaylearn","learning","display_response","63d3f99c57f6b09e77ce7c82","BMN4zMU9PwdgRSTOmX2osTnrKBC3","","","","","","","","","","","","","","","","","chosen stimuli: images/demo_images/choice_trial_1.png","","","",""
"html-keyboard-response","41","76025","0.0-17.0-2.0","","null","","null","delaylearn","learning","feedback_duration_window","63d3f99c57f6b09e77ce7c82","BMN4zMU9PwdgRSTOmX2osTnrKBC3","","","","","","","","","","","","","","","","","","3000","","",""
"html-keyboard-response","42","77534","0.0-17.0-3.0","","null","<div style='margin:auto;width: auto; font-size: 150%'><span style='font-weight: bold; font-size: 100px; color: green;'>+10 points!</span><br><br></div>","null","delaylearn","learning","feedback_image_window","63d3f99c57f6b09e77ce7c82","BMN4zMU9PwdgRSTOmX2osTnrKBC3","","","","","","","","","","","","","","","","","","","","",""
"html-button-response","43","80033","0.0-18.0","","2497","
  <div style=""display: flex; align-items: center; justify-content: center; height: 80vh;"">
  <div>
          <img src=""images/inst_demo_finish.png"" style=""width: 80vw; height:auto;"">
          <br><br>
      </div>
      <br><br>
  </div>","0","","","","","","","","","","","","","","","","","","","","","","","","","",""
"html-keyboard-response","44","85097","0.0-19.0","","5059","
  <div style=""display: flex; align-items: center; justify-content: center; height: 80vh;"">
  <div>
          <img src=""images/inst_6.png"" style=""width: 80vw; height:auto;"">
          <br><br>
      </div>
      <br><br>
  </div>","f","","","","","","","","","","","","","","","","","","","","","","","","","",""
"html-keyboard-response","45","88105","0.0-20.0","","null","<div style=""font-size:100px;"">+</div>","null","delaylearn","learning","pre_fixation","63d3f99c57f6b09e77ce7c82","","","","","","","","","","","","","","","","","","","","","",""
"html-keyboard-response","46","89909","0.0-21.0","","null","<div style=""font-size:100px;"">+</div>","null","delaylearn","learning","ITI","63d3f99c57f6b09e77ce7c82","BMN4zMU9PwdgRSTOmX2osTnrKBC3","","","","","","","","","","","","","","","","","","","1794","",""
"html-keyboard-response","47","91714","0.0-22.0-0.0","","1799","<div style=""display: flex; flex-direction: column; align-items: center; margin-top: -40px;""><img src=""images/pattern_3.png"" style=""width: 234px; height: 230px; margin-top: -50px;""><div style=""display: flex; justify-content: space-between; margin-top: 33px;""><img src=""images/choice_trial_5.png"" style=""width: 408px; height: 417px; margin-right: 200px;""><img src=""images/choice_trial_6.png"" style=""width: 408px; height: 417px;""></div></div>","j","delaylearn","learning","trial","63d3f99c57f6b09e77ce7c82","BMN4zMU9PwdgRSTOmX2osTnrKBC3","1","images/choice_trial_5.png","images/choice_trial_6.png","images/pattern_3.png","f","f","7000","5","6","2","0","9","0","0","6","50","","","","",""
"html-keyboard-response","48","92722","0.0-22.0-1.0","","null","<div style=""display: flex; flex-direction: column; align-items: center; margin-top: -40px;""><img src=""images/pattern_3.png"" style=""width: 234px; height: 230px; margin-top: -50px;""><div style=""display: flex; justify-content: space-between; margin-top: 33px;""><img src=""images/choice_trial_6.png"" style=""width: 408px; height: 417px; margin-left:608px;""></div></div>","null","delaylearn","learning","display_response","63d3f99c57f6b09e77ce7c82","BMN4zMU9PwdgRSTOmX2osTnrKBC3","","","","","","","","","","","","","","","","","chosen stimuli: images/choice_trial_6.png","","","",""
"html-keyboard-response","49","99729","0.0-22.0-2.0","","null","","null","delaylearn","learning","feedback_duration_window","63d3f99c57f6b09e77ce7c82","BMN4zMU9PwdgRSTOmX2osTnrKBC3","","","","","","","","","","","","","","","","","","7000","","",""
"html-keyboard-response","50","101239","0.0-22.0-3.0","","null","<div style='margin:auto;width: auto; font-size: 150%'><span style='font-weight: bold; font-size: 100px; color: red;'>0 points!</span><br><br></div>","null","delaylearn","learning","feedback_image_window","63d3f99c57f6b09e77ce7c82","BMN4zMU9PwdgRSTOmX2osTnrKBC3","","","","","","","","","","","","","","","","","","","","",""
"html-keyboard-response","51","103049","0.0-23.0","","null","<div style=""font-size:100px;"">+</div>","null","delaylearn","learning","ITI","63d3f99c57f6b09e77ce7c82","BMN4zMU9PwdgRSTOmX2osTnrKBC3","","","","","","","","","","","","","","","","","","","1808","",""
"html-keyboard-response","52","105219","0.0-24.0-0.0","","2164","<div style=""display: flex; flex-direction: column; align-items: center; margin-top: -40px;""><img src=""images/pattern_7.png"" style=""width: 234px; height: 230px; margin-top: -50px;""><div style=""display: flex; justify-content: space-between; margin-top: 33px;""><img src=""images/choice_trial_14.png"" style=""width: 408px; height: 417px; margin-right: 200px;""><img src=""images/choice_trial_13.png"" style=""width: 408px; height: 417px;""></div></div>","j","delaylearn","learning","trial","63d3f99c57f6b09e77ce7c82","BMN4zMU9PwdgRSTOmX2osTnrKBC3","1","images/choice_trial_14.png","images/choice_trial_13.png","images/pattern_7.png","j","j","750","14","13","6","1","10","1","1","13","60","","","","",""
"html-keyboard-response","53","106227","0.0-24.0-1.0","","null","<div style=""display: flex; flex-direction: column; align-items: center; margin-top: -40px;""><img src=""images/pattern_7.png"" style=""width: 234px; height: 230px; margin-top: -50px;""><div style=""display: flex; justify-content: space-between; margin-top: 33px;""><img src=""images/choice_trial_13.png"" style=""width: 408px; height: 417px; margin-left:608px;""></div></div>","null","delaylearn","learning","display_response","63d3f99c57f6b09e77ce7c82","BMN4zMU9PwdgRSTOmX2osTnrKBC3","","","","","","","","","","","","","","","","","chosen stimuli: images/choice_trial_13.png","","","",""
"html-keyboard-response","54","106983","0.0-24.0-2.0","","null","","null","delaylearn","learning","feedback_duration_window","63d3f99c57f6b09e77ce7c82","BMN4zMU9PwdgRSTOmX2osTnrKBC3","","","","","","","","","","","","","","","","","","750","","",""
"html-keyboard-response","55","108490","0.0-24.0-3.0","","null","<div style='margin:auto;width: auto; font-size: 150%'><span style='font-weight: bold; font-size: 100px; color: green;'>+10 points!</span><br><br></div>","null","delaylearn","learning","feedback_image_window","63d3f99c57f6b09e77ce7c82","BMN4zMU9PwdgRSTOmX2osTnrKBC3","","","","","","","","","","","","","","","","","","","","",""
"html-keyboard-response","56","110511","0.0-25.0","","null","<div style=""font-size:100px;"">+</div>","null","delaylearn","learning","ITI","63d3f99c57f6b09e77ce7c82","BMN4zMU9PwdgRSTOmX2osTnrKBC3","","","","","","","","","","","","","","","","","","","2014","",""
"html-keyboard-response","57","112326","0.0-26.0-0.0","","1810","<div style=""display: flex; flex-direction: column; align-items: center; margin-top: -40px;""><img src=""images/pattern_4.png"" style=""width: 234px; height: 230px; margin-top: -50px;""><div style=""display: flex; justify-content: space-between; margin-top: 33px;""><img src=""images/choice_trial_7.png"" style=""width: 408px; height: 417px; margin-right: 200px;""><img src=""images/choice_trial_8.png"" style=""width: 408px; height: 417px;""></div></div>","f","delaylearn","learning","trial","63d3f99c57f6b09e77ce7c82","BMN4zMU9PwdgRSTOmX2osTnrKBC3","1","images/choice_trial_7.png","images/choice_trial_8.png","images/pattern_4.png","f","f","7000","7","8","3","0","11","1","1","7","70","","","","",""
"html-keyboard-response","58","113334","0.0-26.0-1.0","","null","<div style=""display: flex; flex-direction: column; align-items: center; margin-top: -40px;""><img src=""images/pattern_4.png"" style=""width: 234px; height: 230px; margin-top: -50px;""><div style=""display: flex; justify-content: space-between; margin-top: 33px;""><img src=""images/choice_trial_7.png"" style=""width: 408px; height: 417px; margin-right: 608px;""></div></div>","null","delaylearn","learning","display_response","63d3f99c57f6b09e77ce7c82","BMN4zMU9PwdgRSTOmX2osTnrKBC3","","","","","","","","","","","","","","","","","chosen stimuli: images/choice_trial_7.png","","","",""
"html-keyboard-response","59","120342","0.0-26.0-2.0","","null","","null","delaylearn","learning","feedback_duration_window","63d3f99c57f6b09e77ce7c82","BMN4zMU9PwdgRSTOmX2osTnrKBC3","","","","","","","","","","","","","","","","","","7000","","",""
"html-keyboard-response","60","121850","0.0-26.0-3.0","","null","<div style='margin:auto;width: auto; font-size: 150%'><span style='font-weight: bold; font-size: 100px; color: green;'>+10 points!</span><br><br></div>","null","delaylearn","learning","feedback_image_window","63d3f99c57f6b09e77ce7c82","BMN4zMU9PwdgRSTOmX2osTnrKBC3","","","","","","","","","","","","","","","","","","","","",""
"html-keyboard-response","61","124347","0.0-27.0","","null","<div style=""font-size:100px;"">+</div>","null","delaylearn","learning","ITI","63d3f99c57f6b09e77ce7c82","BMN4zMU9PwdgRSTOmX2osTnrKBC3","","","","","","","","","","","","","","","","","","","2491","",""
"html-keyboard-response","62","126610","0.0-28.0-0.0","","2258","<div style=""display: flex; flex-direction: column; align-items: center; margin-top: -40px;""><img src=""images/pattern_5.png"" style=""width: 234px; height: 230px; margin-top: -50px;""><div style=""display: flex; justify-content: space-between; margin-top: 33px;""><img src=""images/choice_trial_10.png"" style=""width: 408px; height: 417px; margin-right: 200px;""><img src=""images/choice_trial_9.png"" style=""width: 408px; height: 417px;""></div></div>","j","delaylearn","learning","trial","63d3f99c57f6b09e77ce7c82","BMN4zMU9PwdgRSTOmX2osTnrKBC3","1","images/choice_trial_10.png","images/choice_trial_9.png","images/pattern_5.png","j","j","750","10","9","4","1","12","1","1","9","80","","","","",""
"html-keyboard-response","63","127616","0.0-28.0-1.0","","null","<div style=""display: flex; flex-direction: column; align-items: center; margin-top: -40px;""><img src=""images/pattern_5.png"" style=""width: 234px; height: 230px; margin-top: -50px;""><div style=""display: flex; justify-content: space-between; margin-top: 33px;""><img src=""images/choice_trial_9.png"" style=""width: 408px; height: 417px; margin-left:608px;""></div></div>","null","delaylearn","learning","display_response","63d3f99c57f6b09e77ce7c82","BMN4zMU9PwdgRSTOmX2osTnrKBC3","","","","","","","","","","","","","","","","","chosen stimuli: images/choice_trial_9.png","","","",""
"html-keyboard-response","64","128424","0.0-28.0-2.0","","null","","null","delaylearn","learning","feedback_duration_window","63d3f99c57f6b09e77ce7c82","BMN4zMU9PwdgRSTOmX2osTnrKBC3","","","","","","","","","","","","","","","","","","750","","",""
"html-keyboard-response","65","129931","0.0-28.0-3.0","","null","<div style='margin:auto;width: auto; font-size: 150%'><span style='font-weight: bold; font-size: 100px; color: green;'>+10 points!</span><br><br></div>","null","delaylearn","learning","feedback_image_window","63d3f99c57f6b09e77ce7c82","BMN4zMU9PwdgRSTOmX2osTnrKBC3","","","","","","","","","","","","","","","","","","","","",""
"html-keyboard-response","66","131853","0.0-29.0","","null","<div style=""font-size:100px;"">+</div>","null","delaylearn","learning","ITI","63d3f99c57f6b09e77ce7c82","BMN4zMU9PwdgRSTOmX2osTnrKBC3","","","","","","","","","","","","","","","","","","","1916","",""
"html-keyboard-response","67","133562","0.0-30.0-0.0","","1704","<div style=""display: flex; flex-direction: column; align-items: center; margin-top: -40px;""><img src=""images/pattern_6.png"" style=""width: 234px; height: 230px; margin-top: -50px;""><div style=""display: flex; justify-content: space-between; margin-top: 33px;""><img src=""images/choice_trial_11.png"" style=""width: 408px; height: 417px; margin-right: 200px;""><img src=""images/choice_trial_12.png"" style=""width: 408px; height: 417px;""></div></div>","f","delaylearn","learning","trial","63d3f99c57f6b09e77ce7c82","BMN4zMU9PwdgRSTOmX2osTnrKBC3","1","images/choice_trial_11.png","images/choice_trial_12.png","images/pattern_6.png","j","f","750","11","12","5","0","13","1","0","11","80","","","","",""
"html-keyboard-response","68","134567","0.0-30.0-1.0","","null","<div style=""display: flex; flex-direction: column; align-items: center; margin-top: -40px;""><img src=""images/pattern_6.png"" style=""width: 234px; height: 230px; margin-top: -50px;""><div style=""display: flex; justify-content: space-between; margin-top: 33px;""><img src=""images/choice_trial_11.png"" style=""width: 408px; height: 417px; margin-right: 608px;""></div></div>","null","delaylearn","learning","display_response","63d3f99c57f6b09e77ce7c82","BMN4zMU9PwdgRSTOmX2osTnrKBC3","","","","","","","","","","","","","","","","","chosen stimuli: images/choice_trial_11.png","","","",""
"html-keyboard-response","69","135366","0.0-30.0-2.0","","null","","null","delaylearn","learning","feedback_duration_window","63d3f99c57f6b09e77ce7c82","BMN4zMU9PwdgRSTOmX2osTnrKBC3","","","","","","","","","","","","","","","","","","750","","",""
"html-keyboard-response","70","136873","0.0-30.0-3.0","","null","<div style='margin:auto;width: auto; font-size: 150%'><span style='font-weight: bold; font-size: 100px; color: red;'>0 points!</span><br><br></div>","null","delaylearn","learning","feedback_image_window","63d3f99c57f6b09e77ce7c82","BMN4zMU9PwdgRSTOmX2osTnrKBC3","","","","","","","","","","","","","","","","","","","","",""
"html-keyboard-response","71","137382","0.0-31.0-0.0","","null","","null","","","mood_trial_fixation","","","","","","","","","","","","","","","","","","","","","","",""
"lmdlab-html-vas-response","72","141479","0.0-31.0-1.0","","3087","How happy are you right now?","0.27414330218068533","delaylearn","learning","mood_trial","63d3f99c57f6b09e77ce7c82","BMN4zMU9PwdgRSTOmX2osTnrKBC3","","","","","","","","","","","","","","","","","","","","[""Very unhappy"",""Very happy""]",""
"html-keyboard-response","73","143463","0.0-32.0","","null","<div style=""font-size:100px;"">+</div>","null","delaylearn","learning","ITI","63d3f99c57f6b09e77ce7c82","BMN4zMU9PwdgRSTOmX2osTnrKBC3","","","","","","","","","","","","","","","","","","","1976","",""
"html-keyboard-response","74","145249","0.0-33.0-0.0","","1779","<div style=""display: flex; flex-direction: column; align-items: center; margin-top: -40px;""><img src=""images/pattern_1.png"" style=""width: 234px; height: 230px; margin-top: -50px;""><div style=""display: flex; justify-content: space-between; margin-top: 33px;""><img src=""images/choice_trial_2.png"" style=""width: 408px; height: 417px; margin-right: 200px;""><img src=""images/choice_trial_1.png"" style=""width: 408px; height: 417px;""></div></div>","f","delaylearn","learning","trial","63d3f99c57f6b09e77ce7c82","BMN4zMU9PwdgRSTOmX2osTnrKBC3","1","images/choice_trial_2.png","images/choice_trial_1.png","images/pattern_1.png","j","j","7000","2","1","1","1","14","0","0","2","80","","","","",""
"html-keyboard-response","75","146255","0.0-33.0-1.0","","null","<div style=""display: flex; flex-direction: column; align-items: center; margin-top: -40px;""><img src=""images/pattern_1.png"" style=""width: 234px; height: 230px; margin-top: -50px;""><div style=""display: flex; justify-content: space-between; margin-top: 33px;""><img src=""images/choice_trial_2.png"" style=""width: 408px; height: 417px; margin-right: 608px;""></div></div>","null","delaylearn","learning","display_response","63d3f99c57f6b09e77ce7c82","BMN4zMU9PwdgRSTOmX2osTnrKBC3","","","","","","","","","","","","","","","","","chosen stimuli: images/choice_trial_2.png","","","",""
"html-keyboard-response","76","153259","0.0-33.0-2.0","","null","","null","delaylearn","learning","feedback_duration_window","63d3f99c57f6b09e77ce7c82","BMN4zMU9PwdgRSTOmX2osTnrKBC3","","","","","","","","","","","","","","","","","","7000","","",""
"html-keyboard-response","77","154768","0.0-33.0-3.0","","null","<div style='margin:auto;width: auto; font-size: 150%'><span style='font-weight: bold; font-size: 100px; color: red;'>0 points!</span><br><br></div>","null","delaylearn","learning","feedback_image_window","63d3f99c57f6b09e77ce7c82","BMN4zMU9PwdgRSTOmX2osTnrKBC3","","","","","","","","","","","","","","","","","","","","",""
"html-keyboard-response","78","157019","0.0-34.0","","null","<div style=""font-size:100px;"">+</div>","null","delaylearn","learning","ITI","63d3f99c57f6b09e77ce7c82","BMN4zMU9PwdgRSTOmX2osTnrKBC3","","","","","","","","","","","","","","","","","","","2243","",""
"html-keyboard-response","79","158846","0.0-35.0-0.0","","1822","<div style=""display: flex; flex-direction: column; align-items: center; margin-top: -40px;""><img src=""images/pattern_3.png"" style=""width: 234px; height: 230px; margin-top: -50px;""><div style=""display: flex; justify-content: space-between; margin-top: 33px;""><img src=""images/choice_trial_6.png"" style=""width: 408px; height: 417px; margin-right: 200px;""><img src=""images/choice_trial_5.png"" style=""width: 408px; height: 417px;""></div></div>","j","delaylearn","learning","trial","63d3f99c57f6b09e77ce7c82","BMN4zMU9PwdgRSTOmX2osTnrKBC3","1","images/choice_trial_6.png","images/choice_trial_5.png","images/pattern_3.png","f","j","7000","6","5","2","1","15","1","0","5","80","","","","",""
"html-keyboard-response","80","159854","0.0-35.0-1.0","","null","<div style=""display: flex; flex-direction: column; align-items: center; margin-top: -40px;""><img src=""images/pattern_3.png"" style=""width: 234px; height: 230px; margin-top: -50px;""><div style=""display: flex; justify-content: space-between; margin-top: 33px;""><img src=""images/choice_trial_5.png"" style=""width: 408px; height: 417px; margin-left:608px;""></div></div>","null","delaylearn","learning","display_response","63d3f99c57f6b09e77ce7c82","BMN4zMU9PwdgRSTOmX2osTnrKBC3","","","","","","","","","","","","","","","","","chosen stimuli: images/choice_trial_5.png","","","",""
"html-keyboard-response","81","166857","0.0-35.0-2.0","","null","","null","delaylearn","learning","feedback_duration_window","63d3f99c57f6b09e77ce7c82","BMN4zMU9PwdgRSTOmX2osTnrKBC3","","","","","","","","","","","","","","","","","","7000","","",""
"html-keyboard-response","82","168363","0.0-35.0-3.0","","null","<div style='margin:auto;width: auto; font-size: 150%'><span style='font-weight: bold; font-size: 100px; color: red;'>0 points!</span><br><br></div>","null","delaylearn","learning","feedback_image_window","63d3f99c57f6b09e77ce7c82","BMN4zMU9PwdgRSTOmX2osTnrKBC3","","","","","","","","","","","","","","","","","","","","",""
"html-keyboard-response","83","170429","0.0-36.0","","null","<div style=""font-size:100px;"">+</div>","null","delaylearn","learning","ITI","63d3f99c57f6b09e77ce7c82","BMN4zMU9PwdgRSTOmX2osTnrKBC3","","","","","","","","","","","","","","","","","","","2058","",""
"html-keyboard-response","84","171750","0.0-37.0-0.0","","1316","<div style=""display: flex; flex-direction: column; align-items: center; margin-top: -40px;""><img src=""images/pattern_5.png"" style=""width: 234px; height: 230px; margin-top: -50px;""><div style=""display: flex; justify-content: space-between; margin-top: 33px;""><img src=""images/choice_trial_9.png"" style=""width: 408px; height: 417px; margin-right: 200px;""><img src=""images/choice_trial_10.png"" style=""width: 408px; height: 417px;""></div></div>","f","delaylearn","learning","trial","63d3f99c57f6b09e77ce7c82","BMN4zMU9PwdgRSTOmX2osTnrKBC3","1","images/choice_trial_9.png","images/choice_trial_10.png","images/pattern_5.png","f","f","750","9","10","4","0","16","1","1","9","90","","","","",""
"html-keyboard-response","85","172754","0.0-37.0-1.0","","null","<div style=""display: flex; flex-direction: column; align-items: center; margin-top: -40px;""><img src=""images/pattern_5.png"" style=""width: 234px; height: 230px; margin-top: -50px;""><div style=""display: flex; justify-content: space-between; margin-top: 33px;""><img src=""images/choice_trial_9.png"" style=""width: 408px; height: 417px; margin-right: 608px;""></div></div>","null","delaylearn","learning","display_response","63d3f99c57f6b09e77ce7c82","BMN4zMU9PwdgRSTOmX2osTnrKBC3","","","","","","","","","","","","","","","","","chosen stimuli: images/choice_trial_9.png","","","",""
"html-keyboard-response","86","173512","0.0-37.0-2.0","","null","","null","delaylearn","learning","feedback_duration_window","63d3f99c57f6b09e77ce7c82","BMN4zMU9PwdgRSTOmX2osTnrKBC3","","","","","","","","","","","","","","","","","","750","","",""
"html-keyboard-response","87","175018","0.0-37.0-3.0","","null","<div style='margin:auto;width: auto; font-size: 150%'><span style='font-weight: bold; font-size: 100px; color: green;'>+10 points!</span><br><br></div>","null","delaylearn","learning","feedback_image_window","63d3f99c57f6b09e77ce7c82","BMN4zMU9PwdgRSTOmX2osTnrKBC3","","","","","","","","","","","","","","","","","","","","",""
"html-keyboard-response","88","175526","0.0-38.0-0.0","","null","","null","","","mood_trial_fixation","","","","","","","","","","","","","","","","","","","","","","",""
"lmdlab-html-vas-response","89","179595","0.0-38.0-1.0","","3059","How happy are you right now?","0.32710280373831774","delaylearn","learning","mood_trial","63d3f99c57f6b09e77ce7c82","BMN4zMU9PwdgRSTOmX2osTnrKBC3","","","","","","","","","","","","","","","","","","","","[""Very unhappy"",""Very happy""]",""
"html-keyboard-response","90","181783","0.0-39.0","","null","<div style=""font-size:100px;"">+</div>","null","delaylearn","learning","ITI","63d3f99c57f6b09e77ce7c82","BMN4zMU9PwdgRSTOmX2osTnrKBC3","","","","","","","","","","","","","","","","","","","2180","",""
"html-keyboard-response","91","183613","0.0-40.0-0.0","","1823","<div style=""display: flex; flex-direction: column; align-items: center; margin-top: -40px;""><img src=""images/pattern_6.png"" style=""width: 234px; height: 230px; margin-top: -50px;""><div style=""display: flex; justify-content: space-between; margin-top: 33px;""><img src=""images/choice_trial_11.png"" style=""width: 408px; height: 417px; margin-right: 200px;""><img src=""images/choice_trial_12.png"" style=""width: 408px; height: 417px;""></div></div>","j","delaylearn","learning","trial","63d3f99c57f6b09e77ce7c82","BMN4zMU9PwdgRSTOmX2osTnrKBC3","1","images/choice_trial_11.png","images/choice_trial_12.png","images/pattern_6.png","f","f","750","11","12","5","0","17","0","0","12","90","","","","",""
"html-keyboard-response","92","184621","0.0-40.0-1.0","","null","<div style=""display: flex; flex-direction: column; align-items: center; margin-top: -40px;""><img src=""images/pattern_6.png"" style=""width: 234px; height: 230px; margin-top: -50px;""><div style=""display: flex; justify-content: space-between; margin-top: 33px;""><img src=""images/choice_trial_12.png"" style=""width: 408px; height: 417px; margin-left:608px;""></div></div>","null","delaylearn","learning","display_response","63d3f99c57f6b09e77ce7c82","BMN4zMU9PwdgRSTOmX2osTnrKBC3","","","","","","","","","","","","","","","","","chosen stimuli: images/choice_trial_12.png","","","",""
"html-keyboard-response","93","185377","0.0-40.0-2.0","","null","","null","delaylearn","learning","feedback_duration_window","63d3f99c57f6b09e77ce7c82","BMN4zMU9PwdgRSTOmX2osTnrKBC3","","","","","","","","","","","","","","","","","","750","","",""
"html-keyboard-response","94","186883","0.0-40.0-3.0","","null","<div style='margin:auto;width: auto; font-size: 150%'><span style='font-weight: bold; font-size: 100px; color: red;'>0 points!</span><br><br></div>","null","delaylearn","learning","feedback_image_window","63d3f99c57f6b09e77ce7c82","BMN4zMU9PwdgRSTOmX2osTnrKBC3","","","","","","","","","","","","","","","","","","","","",""
"html-keyboard-response","95","189151","0.0-41.0","","null","<div style=""font-size:100px;"">+</div>","null","delaylearn","learning","ITI","63d3f99c57f6b09e77ce7c82","BMN4zMU9PwdgRSTOmX2osTnrKBC3","","","","","","","","","","","","","","","","","","","2261","",""
"html-keyboard-response","96","190517","0.0-42.0-0.0","","1361","<div style=""display: flex; flex-direction: column; align-items: center; margin-top: -40px;""><img src=""images/pattern_4.png"" style=""width: 234px; height: 230px; margin-top: -50px;""><div style=""display: flex; justify-content: space-between; margin-top: 33px;""><img src=""images/choice_trial_8.png"" style=""width: 408px; height: 417px; margin-right: 200px;""><img src=""images/choice_trial_7.png"" style=""width: 408px; height: 417px;""></div></div>","j","delaylearn","learning","trial","63d3f99c57f6b09e77ce7c82","BMN4zMU9PwdgRSTOmX2osTnrKBC3","1","images/choice_trial_8.png","images/choice_trial_7.png","images/pattern_4.png","j","j","7000","8","7","3","1","18","1","1","7","100","","","","",""
"html-keyboard-response","97","191526","0.0-42.0-1.0","","null","<div style=""display: flex; flex-direction: column; align-items: center; margin-top: -40px;""><img src=""images/pattern_4.png"" style=""width: 234px; height: 230px; margin-top: -50px;""><div style=""display: flex; justify-content: space-between; margin-top: 33px;""><img src=""images/choice_trial_7.png"" style=""width: 408px; height: 417px; margin-left:608px;""></div></div>","null","delaylearn","learning","display_response","63d3f99c57f6b09e77ce7c82","BMN4zMU9PwdgRSTOmX2osTnrKBC3","","","","","","","","","","","","","","","","","chosen stimuli: images/choice_trial_7.png","","","",""
"html-keyboard-response","98","198528","0.0-42.0-2.0","","null","","null","delaylearn","learning","feedback_duration_window","63d3f99c57f6b09e77ce7c82","BMN4zMU9PwdgRSTOmX2osTnrKBC3","","","","","","","","","","","","","","","","","","7000","","",""
"html-keyboard-response","99","200033","0.0-42.0-3.0","","null","<div style='margin:auto;width: auto; font-size: 150%'><span style='font-weight: bold; font-size: 100px; color: green;'>+10 points!</span><br><br></div>","null","delaylearn","learning","feedback_image_window","63d3f99c57f6b09e77ce7c82","BMN4zMU9PwdgRSTOmX2osTnrKBC3","","","","","","","","","","","","","","","","","","","","",""
"html-keyboard-response","100","201681","0.0-43.0","","null","<div style=""font-size:100px;"">+</div>","null","delaylearn","learning","ITI","63d3f99c57f6b09e77ce7c82","BMN4zMU9PwdgRSTOmX2osTnrKBC3","","","","","","","","","","","","","","","","","","","1641","",""
"html-keyboard-response","101","203018","0.0-44.0-0.0","","1331","<div style=""display: flex; flex-direction: column; align-items: center; margin-top: -40px;""><img src=""images/pattern_7.png"" style=""width: 234px; height: 230px; margin-top: -50px;""><div style=""display: flex; justify-content: space-between; margin-top: 33px;""><img src=""images/choice_trial_13.png"" style=""width: 408px; height: 417px; margin-right: 200px;""><img src=""images/choice_trial_14.png"" style=""width: 408px; height: 417px;""></div></div>","f","delaylearn","learning","trial","63d3f99c57f6b09e77ce7c82","BMN4zMU9PwdgRSTOmX2osTnrKBC3","1","images/choice_trial_13.png","images/choice_trial_14.png","images/pattern_7.png","j","f","750","13","14","6","0","19","1","0","13","100","","","","",""
"html-keyboard-response","102","204025","0.0-44.0-1.0","","null","<div style=""display: flex; flex-direction: column; align-items: center; margin-top: -40px;""><img src=""images/pattern_7.png"" style=""width: 234px; height: 230px; margin-top: -50px;""><div style=""display: flex; justify-content: space-between; margin-top: 33px;""><img src=""images/choice_trial_13.png"" style=""width: 408px; height: 417px; margin-right: 608px;""></div></div>","null","delaylearn","learning","display_response","63d3f99c57f6b09e77ce7c82","BMN4zMU9PwdgRSTOmX2osTnrKBC3","","","","","","","","","","","","","","","","","chosen stimuli: images/choice_trial_13.png","","","",""
"html-keyboard-response","103","204782","0.0-44.0-2.0","","null","","null","delaylearn","learning","feedback_duration_window","63d3f99c57f6b09e77ce7c82","BMN4zMU9PwdgRSTOmX2osTnrKBC3","","","","","","","","","","","","","","","","","","750","","",""
"html-keyboard-response","104","206288","0.0-44.0-3.0","","null","<div style='margin:auto;width: auto; font-size: 150%'><span style='font-weight: bold; font-size: 100px; color: red;'>0 points!</span><br><br></div>","null","delaylearn","learning","feedback_image_window","63d3f99c57f6b09e77ce7c82","BMN4zMU9PwdgRSTOmX2osTnrKBC3","","","","","","","","","","","","","","","","","","","","",""
"html-keyboard-response","105","208549","0.0-45.0","","null","<div style=""font-size:100px;"">+</div>","null","delaylearn","learning","ITI","63d3f99c57f6b09e77ce7c82","BMN4zMU9PwdgRSTOmX2osTnrKBC3","","","","","","","","","","","","","","","","","","","2254","",""
"html-keyboard-response","106","210892","0.0-46.0-0.0","","2338","<div style=""display: flex; flex-direction: column; align-items: center; margin-top: -40px;""><img src=""images/pattern_1.png"" style=""width: 234px; height: 230px; margin-top: -50px;""><div style=""display: flex; justify-content: space-between; margin-top: 33px;""><img src=""images/choice_trial_1.png"" style=""width: 408px; height: 417px; margin-right: 200px;""><img src=""images/choice_trial_2.png"" style=""width: 408px; height: 417px;""></div></div>","j","delaylearn","learning","trial","63d3f99c57f6b09e77ce7c82","BMN4zMU9PwdgRSTOmX2osTnrKBC3","1","images/choice_trial_1.png","images/choice_trial_2.png","images/pattern_1.png","f","f","7000","1","2","1","0","20","0","0","2","100","","","","",""
"html-keyboard-response","107","211899","0.0-46.0-1.0","","null","<div style=""display: flex; flex-direction: column; align-items: center; margin-top: -40px;""><img src=""images/pattern_1.png"" style=""width: 234px; height: 230px; margin-top: -50px;""><div style=""display: flex; justify-content: space-between; margin-top: 33px;""><img src=""images/choice_trial_2.png"" style=""width: 408px; height: 417px; margin-left:608px;""></div></div>","null","delaylearn","learning","display_response","63d3f99c57f6b09e77ce7c82","BMN4zMU9PwdgRSTOmX2osTnrKBC3","","","","","","","","","","","","","","","","","chosen stimuli: images/choice_trial_2.png","","","",""
"html-keyboard-response","108","218908","0.0-46.0-2.0","","null","","null","delaylearn","learning","feedback_duration_window","63d3f99c57f6b09e77ce7c82","BMN4zMU9PwdgRSTOmX2osTnrKBC3","","","","","","","","","","","","","","","","","","7000","","",""
"html-keyboard-response","109","220416","0.0-46.0-3.0","","null","<div style='margin:auto;width: auto; font-size: 150%'><span style='font-weight: bold; font-size: 100px; color: red;'>0 points!</span><br><br></div>","null","delaylearn","learning","feedback_image_window","63d3f99c57f6b09e77ce7c82","BMN4zMU9PwdgRSTOmX2osTnrKBC3","","","","","","","","","","","","","","","","","","","","",""
"html-keyboard-response","110","222511","0.0-47.0","","null","<div style=""font-size:100px;"">+</div>","null","delaylearn","learning","ITI","63d3f99c57f6b09e77ce7c82","BMN4zMU9PwdgRSTOmX2osTnrKBC3","","","","","","","","","","","","","","","","","","","2087","",""
"html-keyboard-response","111","225262","0.0-48.0-0.0","","2744","<div style=""display: flex; flex-direction: column; align-items: center; margin-top: -40px;""><img src=""images/pattern_6.png"" style=""width: 234px; height: 230px; margin-top: -50px;""><div style=""display: flex; justify-content: space-between; margin-top: 33px;""><img src=""images/choice_trial_12.png"" style=""width: 408px; height: 417px; margin-right: 200px;""><img src=""images/choice_trial_11.png"" style=""width: 408px; height: 417px;""></div></div>","f","delaylearn","learning","trial","63d3f99c57f6b09e77ce7c82","BMN4zMU9PwdgRSTOmX2osTnrKBC3","1","images/choice_trial_12.png","images/choice_trial_11.png","images/pattern_6.png","j","j","750","12","11","5","1","21","0","0","12","100","","","","",""
"html-keyboard-response","112","226271","0.0-48.0-1.0","","null","<div style=""display: flex; flex-direction: column; align-items: center; margin-top: -40px;""><img src=""images/pattern_6.png"" style=""width: 234px; height: 230px; margin-top: -50px;""><div style=""display: flex; justify-content: space-between; margin-top: 33px;""><img src=""images/choice_trial_12.png"" style=""width: 408px; height: 417px; margin-right: 608px;""></div></div>","null","delaylearn","learning","display_response","63d3f99c57f6b09e77ce7c82","BMN4zMU9PwdgRSTOmX2osTnrKBC3","","","","","","","","","","","","","","","","","chosen stimuli: images/choice_trial_12.png","","","",""
"html-keyboard-response","113","227028","0.0-48.0-2.0","","null","","null","delaylearn","learning","feedback_duration_window","63d3f99c57f6b09e77ce7c82","BMN4zMU9PwdgRSTOmX2osTnrKBC3","","","","","","","","","","","","","","","","","","750","","",""
"html-keyboard-response","114","228534","0.0-48.0-3.0","","null","<div style='margin:auto;width: auto; font-size: 150%'><span style='font-weight: bold; font-size: 100px; color: red;'>0 points!</span><br><br></div>","null","delaylearn","learning","feedback_image_window","63d3f99c57f6b09e77ce7c82","BMN4zMU9PwdgRSTOmX2osTnrKBC3","","","","","","","","","","","","","","","","","","","","",""
"html-keyboard-response","115","230570","0.0-49.0","","null","<div style=""font-size:100px;"">+</div>","null","delaylearn","learning","ITI","63d3f99c57f6b09e77ce7c82","BMN4zMU9PwdgRSTOmX2osTnrKBC3","","","","","","","","","","","","","","","","","","","2028","",""
"html-keyboard-response","116","233577","0.0-50.0-0.0","","null","<div style=""display: flex; flex-direction: column; align-items: center; margin-top: -40px;""><img src=""images/pattern_4.png"" style=""width: 234px; height: 230px; margin-top: -50px;""><div style=""display: flex; justify-content: space-between; margin-top: 33px;""><img src=""images/choice_trial_7.png"" style=""width: 408px; height: 417px; margin-right: 200px;""><img src=""images/choice_trial_8.png"" style=""width: 408px; height: 417px;""></div></div>","null","delaylearn","learning","trial","63d3f99c57f6b09e77ce7c82","BMN4zMU9PwdgRSTOmX2osTnrKBC3","1","images/choice_trial_7.png","images/choice_trial_8.png","images/pattern_4.png","f","f","7000","7","8","3","0","22","0","0","0","100","","","","",""
"html-keyboard-response","117","234586","0.0-50.0-1.0","","null","<div style='font-weight: bold; font-size: 75px; color: red;'>Missed Trial <br><br><br><br> Please respond faster</div>","null","delaylearn","learning","display_response","63d3f99c57f6b09e77ce7c82","BMN4zMU9PwdgRSTOmX2osTnrKBC3","","","","","","","","","","","","","","","","","Missed trial","","","",""
"html-keyboard-response","118","234593","0.0-50.0-2.0","","null","","null","delaylearn","learning","feedback_duration_window","63d3f99c57f6b09e77ce7c82","BMN4zMU9PwdgRSTOmX2osTnrKBC3","","","","","","","","","","","","","","","","","","0","","",""
"html-keyboard-response","119","234598","0.0-50.0-3.0","","null","","null","delaylearn","learning","feedback_image_window","63d3f99c57f6b09e77ce7c82","BMN4zMU9PwdgRSTOmX2osTnrKBC3","","","","","","","","","","","","","","","","","","","","",""
"html-keyboard-response","120","235104","0.0-51.0-0.0","","null","","null","","","mood_trial_fixation","","","","","","","","","","","","","","","","","","","","","","",""
"lmdlab-html-vas-response","121","239046","0.0-51.0-1.0","","2933","How happy are you right now?","0.205607476635514","delaylearn","learning","mood_trial","63d3f99c57f6b09e77ce7c82","BMN4zMU9PwdgRSTOmX2osTnrKBC3","","","","","","","","","","","","","","","","","","","","[""Very unhappy"",""Very happy""]",""
"html-keyboard-response","122","241076","0.0-52.0","","null","<div style=""font-size:100px;"">+</div>","null","delaylearn","learning","ITI","63d3f99c57f6b09e77ce7c82","BMN4zMU9PwdgRSTOmX2osTnrKBC3","","","","","","","","","","","","","","","","","","","2022","",""
"html-keyboard-response","123","242211","0.0-53.0-0.0","","1128","<div style=""display: flex; flex-direction: column; align-items: center; margin-top: -40px;""><img src=""images/pattern_7.png"" style=""width: 234px; height: 230px; margin-top: -50px;""><div style=""display: flex; justify-content: space-between; margin-top: 33px;""><img src=""images/choice_trial_14.png"" style=""width: 408px; height: 417px; margin-right: 200px;""><img src=""images/choice_trial_13.png"" style=""width: 408px; height: 417px;""></div></div>","j","delaylearn","learning","trial","63d3f99c57f6b09e77ce7c82","BMN4zMU9PwdgRSTOmX2osTnrKBC3","1","images/choice_trial_14.png","images/choice_trial_13.png","images/pattern_7.png","j","j","750","14","13","6","1","23","1","1","13","110","","","","",""
"html-keyboard-response","124","243218","0.0-53.0-1.0","","null","<div style=""display: flex; flex-direction: column; align-items: center; margin-top: -40px;""><img src=""images/pattern_7.png"" style=""width: 234px; height: 230px; margin-top: -50px;""><div style=""display: flex; justify-content: space-between; margin-top: 33px;""><img src=""images/choice_trial_13.png"" style=""width: 408px; height: 417px; margin-left:608px;""></div></div>","null","delaylearn","learning","display_response","63d3f99c57f6b09e77ce7c82","BMN4zMU9PwdgRSTOmX2osTnrKBC3","","","","","","","","","","","","","","","","","chosen stimuli: images/choice_trial_13.png","","","",""
"html-keyboard-response","125","243971","0.0-53.0-2.0","","null","","null","delaylearn","learning","feedback_duration_window","63d3f99c57f6b09e77ce7c82","BMN4zMU9PwdgRSTOmX2osTnrKBC3","","","","","","","","","","","","","","","","","","750","","",""
"html-keyboard-response","126","245477","0.0-53.0-3.0","","null","<div style='margin:auto;width: auto; font-size: 150%'><span style='font-weight: bold; font-size: 100px; color: green;'>+10 points!</span><br><br></div>","null","delaylearn","learning","feedback_image_window","63d3f99c57f6b09e77ce7c82","BMN4zMU9PwdgRSTOmX2osTnrKBC3","","","","","","","","","","","","","","","","","","","","",""
"html-keyboard-response","127","247357","0.0-54.0","","null","<div style=""font-size:100px;"">+</div>","null","delaylearn","learning","ITI","63d3f99c57f6b09e77ce7c82","BMN4zMU9PwdgRSTOmX2osTnrKBC3","","","","","","","","","","","","","","","","","","","1872","",""
"html-keyboard-response","128","248689","0.0-55.0-0.0","","1328","<div style=""display: flex; flex-direction: column; align-items: center; margin-top: -40px;""><img src=""images/pattern_1.png"" style=""width: 234px; height: 230px; margin-top: -50px;""><div style=""display: flex; justify-content: space-between; margin-top: 33px;""><img src=""images/choice_trial_2.png"" style=""width: 408px; height: 417px; margin-right: 200px;""><img src=""images/choice_trial_1.png"" style=""width: 408px; height: 417px;""></div></div>","f","delaylearn","learning","trial","63d3f99c57f6b09e77ce7c82","BMN4zMU9PwdgRSTOmX2osTnrKBC3","1","images/choice_trial_2.png","images/choice_trial_1.png","images/pattern_1.png","f","j","7000","2","1","1","1","24","0","1","2","120","","","","",""
"html-keyboard-response","129","249694","0.0-55.0-1.0","","null","<div style=""display: flex; flex-direction: column; align-items: center; margin-top: -40px;""><img src=""images/pattern_1.png"" style=""width: 234px; height: 230px; margin-top: -50px;""><div style=""display: flex; justify-content: space-between; margin-top: 33px;""><img src=""images/choice_trial_2.png"" style=""width: 408px; height: 417px; margin-right: 608px;""></div></div>","null","delaylearn","learning","display_response","63d3f99c57f6b09e77ce7c82","BMN4zMU9PwdgRSTOmX2osTnrKBC3","","","","","","","","","","","","","","","","","chosen stimuli: images/choice_trial_2.png","","","",""
"html-keyboard-response","130","256702","0.0-55.0-2.0","","null","","null","delaylearn","learning","feedback_duration_window","63d3f99c57f6b09e77ce7c82","BMN4zMU9PwdgRSTOmX2osTnrKBC3","","","","","","","","","","","","","","","","","","7000","","",""
"html-keyboard-response","131","258212","0.0-55.0-3.0","","null","<div style='margin:auto;width: auto; font-size: 150%'><span style='font-weight: bold; font-size: 100px; color: green;'>+10 points!</span><br><br></div>","null","delaylearn","learning","feedback_image_window","63d3f99c57f6b09e77ce7c82","BMN4zMU9PwdgRSTOmX2osTnrKBC3","","","","","","","","","","","","","","","","","","","","",""
"html-keyboard-response","132","260720","0.0-56.0","","null","<div style=""font-size:100px;"">+</div>","null","delaylearn","learning","ITI","63d3f99c57f6b09e77ce7c82","BMN4zMU9PwdgRSTOmX2osTnrKBC3","","","","","","","","","","","","","","","","","","","2500","",""
"html-keyboard-response","133","261956","0.0-57.0-0.0","","1230","<div style=""display: flex; flex-direction: column; align-items: center; margin-top: -40px;""><img src=""images/pattern_5.png"" style=""width: 234px; height: 230px; margin-top: -50px;""><div style=""display: flex; justify-content: space-between; margin-top: 33px;""><img src=""images/choice_trial_10.png"" style=""width: 408px; height: 417px; margin-right: 200px;""><img src=""images/choice_trial_9.png"" style=""width: 408px; height: 417px;""></div></div>","j","delaylearn","learning","trial","63d3f99c57f6b09e77ce7c82","BMN4zMU9PwdgRSTOmX2osTnrKBC3","1","images/choice_trial_10.png","images/choice_trial_9.png","images/pattern_5.png","j","j","750","10","9","4","1","25","1","1","9","130","","","","",""
"html-keyboard-response","134","262963","0.0-57.0-1.0","","null","<div style=""display: flex; flex-direction: column; align-items: center; margin-top: -40px;""><img src=""images/pattern_5.png"" style=""width: 234px; height: 230px; margin-top: -50px;""><div style=""display: flex; justify-content: space-between; margin-top: 33px;""><img src=""images/choice_trial_9.png"" style=""width: 408px; height: 417px; margin-left:608px;""></div></div>","null","delaylearn","learning","display_response","63d3f99c57f6b09e77ce7c82","BMN4zMU9PwdgRSTOmX2osTnrKBC3","","","","","","","","","","","","","","","","","chosen stimuli: images/choice_trial_9.png","","","",""
"html-keyboard-response","135","263720","0.0-57.0-2.0","","null","","null","delaylearn","learning","feedback_duration_window","63d3f99c57f6b09e77ce7c82","BMN4zMU9PwdgRSTOmX2osTnrKBC3","","","","","","","","","","","","","","","","","","750","","",""
"html-keyboard-response","136","265222","0.0-57.0-3.0","","null","<div style='margin:auto;width: auto; font-size: 150%'><span style='font-weight: bold; font-size: 100px; color: green;'>+10 points!</span><br><br></div>","null","delaylearn","learning","feedback_image_window","63d3f99c57f6b09e77ce7c82","BMN4zMU9PwdgRSTOmX2osTnrKBC3","","","","","","","","","","","","","","","","","","","","",""
"html-keyboard-response","137","267177","0.0-58.0","","null","<div style=""font-size:100px;"">+</div>","null","delaylearn","learning","ITI","63d3f99c57f6b09e77ce7c82","BMN4zMU9PwdgRSTOmX2osTnrKBC3","","","","","","","","","","","","","","","","","","","1950","",""
"html-keyboard-response","138","268539","0.0-59.0-0.0","","1358","<div style=""display: flex; flex-direction: column; align-items: center; margin-top: -40px;""><img src=""images/pattern_3.png"" style=""width: 234px; height: 230px; margin-top: -50px;""><div style=""display: flex; justify-content: space-between; margin-top: 33px;""><img src=""images/choice_trial_6.png"" style=""width: 408px; height: 417px; margin-right: 200px;""><img src=""images/choice_trial_5.png"" style=""width: 408px; height: 417px;""></div></div>","f","delaylearn","learning","trial","63d3f99c57f6b09e77ce7c82","BMN4zMU9PwdgRSTOmX2osTnrKBC3","1","images/choice_trial_6.png","images/choice_trial_5.png","images/pattern_3.png","j","j","7000","6","5","2","1","26","0","0","6","130","","","","",""
"html-keyboard-response","139","269546","0.0-59.0-1.0","","null","<div style=""display: flex; flex-direction: column; align-items: center; margin-top: -40px;""><img src=""images/pattern_3.png"" style=""width: 234px; height: 230px; margin-top: -50px;""><div style=""display: flex; justify-content: space-between; margin-top: 33px;""><img src=""images/choice_trial_6.png"" style=""width: 408px; height: 417px; margin-right: 608px;""></div></div>","null","delaylearn","learning","display_response","63d3f99c57f6b09e77ce7c82","BMN4zMU9PwdgRSTOmX2osTnrKBC3","","","","","","","","","","","","","","","","","chosen stimuli: images/choice_trial_6.png","","","",""
"html-keyboard-response","140","276551","0.0-59.0-2.0","","null","","null","delaylearn","learning","feedback_duration_window","63d3f99c57f6b09e77ce7c82","BMN4zMU9PwdgRSTOmX2osTnrKBC3","","","","","","","","","","","","","","","","","","7000","","",""
"html-keyboard-response","141","278060","0.0-59.0-3.0","","null","<div style='margin:auto;width: auto; font-size: 150%'><span style='font-weight: bold; font-size: 100px; color: red;'>0 points!</span><br><br></div>","null","delaylearn","learning","feedback_image_window","63d3f99c57f6b09e77ce7c82","BMN4zMU9PwdgRSTOmX2osTnrKBC3","","","","","","","","","","","","","","","","","","","","",""
"lmdlab-html-vas-response","142","283154","0.0-60.0-0.0","","3584","*How <b><u>confident</u></b> are you feeling about your answers at this moment?*","0.1526739292798384","rewlearn","rate_confidence","","63d3f99c57f6b09e77ce7c82","BMN4zMU9PwdgRSTOmX2osTnrKBC3","","","","","","","","","","","","","","","","","","","","[""No confidence"",""Complete confidence""]",""
"lmdlab-rest-trial-limit","143","291091","0.0-60.0-1.0","","6427","<div style=""font-size:40px;""><b>Please take a break!</b><br><br><br><br><p>Great work: you earned 130 points.<br><br><br><p>You have completed part(s) 1 of 5.<br><br><br><br>When you are ready to continue<br><br><br>please click the button.</p><br><br>","0","delaylearn","learning","break","63d3f99c57f6b09e77ce7c82","BMN4zMU9PwdgRSTOmX2osTnrKBC3","","","","","","","","","","","","","","","","","","","","","0"
"html-keyboard-response","144","294102","0.0-60.0-2.0","","null","<div style=""font-size:100px;"">+</div>","null","delaylearn","learning","pre_fixation","63d3f99c57f6b09e77ce7c82","","","","","","","","","","","","","","","","","","","","","",""
"lmdlab-html-vas-response","145","297818","0.0-60.0-3.0-0.0","","2704","How happy are you right now?","0.2819314641744548","delaylearn","learning","mood_baseline","63d3f99c57f6b09e77ce7c82","BMN4zMU9PwdgRSTOmX2osTnrKBC3","","","","","","","","","","","","","","","","","","","","[""Very unhappy"",""Very happy""]",""
"html-keyboard-response","146","299326","0.0-60.0-3.0-1.0","","null","","null","","","mood_baseline_fixation","","","","","","","","","","","","","","","","","","","","","","",""
"html-keyboard-response","147","301684","0.0-61.0","","null","<div style=""font-size:100px;"">+</div>","null","delaylearn","learning","ITI","63d3f99c57f6b09e77ce7c82","BMN4zMU9PwdgRSTOmX2osTnrKBC3","","","","","","","","","","","","","","","","","","","2351","",""
"html-keyboard-response","148","302869","0.0-62.0-0.0","","1180","<div style=""display: flex; flex-direction: column; align-items: center; margin-top: -40px;""><img src=""images/pattern_7.png"" style=""width: 234px; height: 230px; margin-top: -50px;""><div style=""display: flex; justify-content: space-between; margin-top: 33px;""><img src=""images/choice_trial_14.png"" style=""width: 408px; height: 417px; margin-right: 200px;""><img src=""images/choice_trial_13.png"" style=""width: 408px; height: 417px;""></div></div>","j","delaylearn","learning","trial","63d3f99c57f6b09e77ce7c82","BMN4zMU9PwdgRSTOmX2osTnrKBC3","1","images/choice_trial_14.png","images/choice_trial_13.png","images/pattern_7.png","j","j","750","14","13","6","1","27","1","1","13","140","","","","",""
"html-keyboard-response","149","303877","0.0-62.0-1.0","","null","<div style=""display: flex; flex-direction: column; align-items: center; margin-top: -40px;""><img src=""images/pattern_7.png"" style=""width: 234px; height: 230px; margin-top: -50px;""><div style=""display: flex; justify-content: space-between; margin-top: 33px;""><img src=""images/choice_trial_13.png"" style=""width: 408px; height: 417px; margin-left:608px;""></div></div>","null","delaylearn","learning","display_response","63d3f99c57f6b09e77ce7c82","BMN4zMU9PwdgRSTOmX2osTnrKBC3","","","","","","","","","","","","","","","","","chosen stimuli: images/choice_trial_13.png","","","",""
"html-keyboard-response","150","304634","0.0-62.0-2.0","","null","","null","delaylearn","learning","feedback_duration_window","63d3f99c57f6b09e77ce7c82","BMN4zMU9PwdgRSTOmX2osTnrKBC3","","","","","","","","","","","","","","","","","","750","","",""
"html-keyboard-response","151","306141","0.0-62.0-3.0","","null","<div style='margin:auto;width: auto; font-size: 150%'><span style='font-weight: bold; font-size: 100px; color: green;'>+10 points!</span><br><br></div>","null","delaylearn","learning","feedback_image_window","63d3f99c57f6b09e77ce7c82","BMN4zMU9PwdgRSTOmX2osTnrKBC3","","","","","","","","","","","","","","","","","","","","",""
"html-keyboard-response","152","306647","0.0-63.0-0.0","","null","","null","","","mood_trial_fixation","","","","","","","","","","","","","","","","","","","","","","",""
"lmdlab-html-vas-response","153","310746","0.0-63.0-1.0","","3087","How happy are you right now?","0.2507788161993769","delaylearn","learning","mood_trial","63d3f99c57f6b09e77ce7c82","BMN4zMU9PwdgRSTOmX2osTnrKBC3","","","","","","","","","","","","","","","","","","","","[""Very unhappy"",""Very happy""]",""
"html-keyboard-response","154","312969","0.0-64.0","","null","<div style=""font-size:100px;"">+</div>","null","delaylearn","learning","ITI","63d3f99c57f6b09e77ce7c82","BMN4zMU9PwdgRSTOmX2osTnrKBC3","","","","","","","","","","","","","","","","","","","2214","",""
"html-keyboard-response","155","314319","0.0-65.0-0.0","","1346","<div style=""display: flex; flex-direction: column; align-items: center; margin-top: -40px;""><img src=""images/pattern_1.png"" style=""width: 234px; height: 230px; margin-top: -50px;""><div style=""display: flex; justify-content: space-between; margin-top: 33px;""><img src=""images/choice_trial_1.png"" style=""width: 408px; height: 417px; margin-right: 200px;""><img src=""images/choice_trial_2.png"" style=""width: 408px; height: 417px;""></div></div>","j","delaylearn","learning","trial","63d3f99c57f6b09e77ce7c82","BMN4zMU9PwdgRSTOmX2osTnrKBC3","1","images/choice_trial_1.png","images/choice_trial_2.png","images/pattern_1.png","f","f","7000","1","2","1","0","28","0","0","2","140","","","","",""
"html-keyboard-response","156","315325","0.0-65.0-1.0","","null","<div style=""display: flex; flex-direction: column; align-items: center; margin-top: -40px;""><img src=""images/pattern_1.png"" style=""width: 234px; height: 230px; margin-top: -50px;""><div style=""display: flex; justify-content: space-between; margin-top: 33px;""><img src=""images/choice_trial_2.png"" style=""width: 408px; height: 417px; margin-left:608px;""></div></div>","null","delaylearn","learning","display_response","63d3f99c57f6b09e77ce7c82","BMN4zMU9PwdgRSTOmX2osTnrKBC3","","","","","","","","","","","","","","","","","chosen stimuli: images/choice_trial_2.png","","","",""
"html-keyboard-response","157","322333","0.0-65.0-2.0","","null","","null","delaylearn","learning","feedback_duration_window","63d3f99c57f6b09e77ce7c82","BMN4zMU9PwdgRSTOmX2osTnrKBC3","","","","","","","","","","","","","","","","","","7000","","",""
"html-keyboard-response","158","323843","0.0-65.0-3.0","","null","<div style='margin:auto;width: auto; font-size: 150%'><span style='font-weight: bold; font-size: 100px; color: red;'>0 points!</span><br><br></div>","null","delaylearn","learning","feedback_image_window","63d3f99c57f6b09e77ce7c82","BMN4zMU9PwdgRSTOmX2osTnrKBC3","","","","","","","","","","","","","","","","","","","","",""
"html-keyboard-response","159","326171","0.0-66.0","","null","<div style=""font-size:100px;"">+</div>","null","delaylearn","learning","ITI","63d3f99c57f6b09e77ce7c82","BMN4zMU9PwdgRSTOmX2osTnrKBC3","","","","","","","","","","","","","","","","","","","2319","",""
"html-keyboard-response","160","327017","0.0-67.0-0.0","","840","<div style=""display: flex; flex-direction: column; align-items: center; margin-top: -40px;""><img src=""images/pattern_5.png"" style=""width: 234px; height: 230px; margin-top: -50px;""><div style=""display: flex; justify-content: space-between; margin-top: 33px;""><img src=""images/choice_trial_9.png"" style=""width: 408px; height: 417px; margin-right: 200px;""><img src=""images/choice_trial_10.png"" style=""width: 408px; height: 417px;""></div></div>","f","delaylearn","learning","trial","63d3f99c57f6b09e77ce7c82","BMN4zMU9PwdgRSTOmX2osTnrKBC3","1","images/choice_trial_9.png","images/choice_trial_10.png","images/pattern_5.png","f","f","750","9","10","4","0","29","1","1","9","150","","","","",""
"html-keyboard-response","161","328024","0.0-67.0-1.0","","null","<div style=""display: flex; flex-direction: column; align-items: center; margin-top: -40px;""><img src=""images/pattern_5.png"" style=""width: 234px; height: 230px; margin-top: -50px;""><div style=""display: flex; justify-content: space-between; margin-top: 33px;""><img src=""images/choice_trial_9.png"" style=""width: 408px; height: 417px; margin-right: 608px;""></div></div>","null","delaylearn","learning","display_response","63d3f99c57f6b09e77ce7c82","BMN4zMU9PwdgRSTOmX2osTnrKBC3","","","","","","","","","","","","","","","","","chosen stimuli: images/choice_trial_9.png","","","",""
"html-keyboard-response","162","328781","0.0-67.0-2.0","","null","","null","delaylearn","learning","feedback_duration_window","63d3f99c57f6b09e77ce7c82","BMN4zMU9PwdgRSTOmX2osTnrKBC3","","","","","","","","","","","","","","","","","","750","","",""
"html-keyboard-response","163","330288","0.0-67.0-3.0","","null","<div style='margin:auto;width: auto; font-size: 150%'><span style='font-weight: bold; font-size: 100px; color: green;'>+10 points!</span><br><br></div>","null","delaylearn","learning","feedback_image_window","63d3f99c57f6b09e77ce7c82","BMN4zMU9PwdgRSTOmX2osTnrKBC3","","","","","","","","","","","","","","","","","","","","",""
"html-keyboard-response","164","332046","0.0-68.0","","null","<div style=""font-size:100px;"">+</div>","null","delaylearn","learning","ITI","63d3f99c57f6b09e77ce7c82","BMN4zMU9PwdgRSTOmX2osTnrKBC3","","","","","","","","","","","","","","","","","","","1751","",""
"html-keyboard-response","165","333395","0.0-69.0-0.0","","1342","<div style=""display: flex; flex-direction: column; align-items: center; margin-top: -40px;""><img src=""images/pattern_6.png"" style=""width: 234px; height: 230px; margin-top: -50px;""><div style=""display: flex; justify-content: space-between; margin-top: 33px;""><img src=""images/choice_trial_12.png"" style=""width: 408px; height: 417px; margin-right: 200px;""><img src=""images/choice_trial_11.png"" style=""width: 408px; height: 417px;""></div></div>","j","delaylearn","learning","trial","63d3f99c57f6b09e77ce7c82","BMN4zMU9PwdgRSTOmX2osTnrKBC3","1","images/choice_trial_12.png","images/choice_trial_11.png","images/pattern_6.png","j","j","750","12","11","5","1","30","1","1","11","160","","","","",""
"html-keyboard-response","166","334402","0.0-69.0-1.0","","null","<div style=""display: flex; flex-direction: column; align-items: center; margin-top: -40px;""><img src=""images/pattern_6.png"" style=""width: 234px; height: 230px; margin-top: -50px;""><div style=""display: flex; justify-content: space-between; margin-top: 33px;""><img src=""images/choice_trial_11.png"" style=""width: 408px; height: 417px; margin-left:608px;""></div></div>","null","delaylearn","learning","display_response","63d3f99c57f6b09e77ce7c82","BMN4zMU9PwdgRSTOmX2osTnrKBC3","","","","","","","","","","","","","","","","","chosen stimuli: images/choice_trial_11.png","","","",""
"html-keyboard-response","167","335159","0.0-69.0-2.0","","null","","null","delaylearn","learning","feedback_duration_window","63d3f99c57f6b09e77ce7c82","BMN4zMU9PwdgRSTOmX2osTnrKBC3","","","","","","","","","","","","","","","","","","750","","",""
"html-keyboard-response","168","336666","0.0-69.0-3.0","","null","<div style='margin:auto;width: auto; font-size: 150%'><span style='font-weight: bold; font-size: 100px; color: green;'>+10 points!</span><br><br></div>","null","delaylearn","learning","feedback_image_window","63d3f99c57f6b09e77ce7c82","BMN4zMU9PwdgRSTOmX2osTnrKBC3","","","","","","","","","","","","","","","","","","","","",""
"html-keyboard-response","169","337170","0.0-70.0-0.0","","null","","null","","","mood_trial_fixation","","","","","","","","","","","","","","","","","","","","","","",""
"lmdlab-html-vas-response","170","340997","0.0-70.0-1.0","","2817","How happy are you right now?","0.278816199376947","delaylearn","learning","mood_trial","63d3f99c57f6b09e77ce7c82","BMN4zMU9PwdgRSTOmX2osTnrKBC3","","","","","","","","","","","","","","","","","","","","[""Very unhappy"",""Very happy""]",""
"html-keyboard-response","171","342962","0.0-71.0","","null","<div style=""font-size:100px;"">+</div>","null","delaylearn","learning","ITI","63d3f99c57f6b09e77ce7c82","BMN4zMU9PwdgRSTOmX2osTnrKBC3","","","","","","","","","","","","","","","","","","","1956","",""
"html-keyboard-response","172","344562","0.0-72.0-0.0","","1593","<div style=""display: flex; flex-direction: column; align-items: center; margin-top: -40px;""><img src=""images/pattern_4.png"" style=""width: 234px; height: 230px; margin-top: -50px;""><div style=""display: flex; justify-content: space-between; margin-top: 33px;""><img src=""images/choice_trial_8.png"" style=""width: 408px; height: 417px; margin-right: 200px;""><img src=""images/choice_trial_7.png"" style=""width: 408px; height: 417px;""></div></div>","j","delaylearn","learning","trial","63d3f99c57f6b09e77ce7c82","BMN4zMU9PwdgRSTOmX2osTnrKBC3","1","images/choice_trial_8.png","images/choice_trial_7.png","images/pattern_4.png","j","j","7000","8","7","3","1","31","1","1","7","170","","","","",""
"html-keyboard-response","173","345570","0.0-72.0-1.0","","null","<div style=""display: flex; flex-direction: column; align-items: center; margin-top: -40px;""><img src=""images/pattern_4.png"" style=""width: 234px; height: 230px; margin-top: -50px;""><div style=""display: flex; justify-content: space-between; margin-top: 33px;""><img src=""images/choice_trial_7.png"" style=""width: 408px; height: 417px; margin-left:608px;""></div></div>","null","delaylearn","learning","display_response","63d3f99c57f6b09e77ce7c82","BMN4zMU9PwdgRSTOmX2osTnrKBC3","","","","","","","","","","","","","","","","","chosen stimuli: images/choice_trial_7.png","","","",""
"html-keyboard-response","174","352578","0.0-72.0-2.0","","null","","null","delaylearn","learning","feedback_duration_window","63d3f99c57f6b09e77ce7c82","BMN4zMU9PwdgRSTOmX2osTnrKBC3","","","","","","","","","","","","","","","","","","7000","","",""
"html-keyboard-response","175","354087","0.0-72.0-3.0","","null","<div style='margin:auto;width: auto; font-size: 150%'><span style='font-weight: bold; font-size: 100px; color: green;'>+10 points!</span><br><br></div>","null","delaylearn","learning","feedback_image_window","63d3f99c57f6b09e77ce7c82","BMN4zMU9PwdgRSTOmX2osTnrKBC3","","","","","","","","","","","","","","","","","","","","",""
"html-keyboard-response","176","355696","0.0-73.0","","null","<div style=""font-size:100px;"">+</div>","null","delaylearn","learning","ITI","63d3f99c57f6b09e77ce7c82","BMN4zMU9PwdgRSTOmX2osTnrKBC3","","","","","","","","","","","","","","","","","","","1601","",""
"html-keyboard-response","177","356858","0.0-74.0-0.0","","1156","<div style=""display: flex; flex-direction: column; align-items: center; margin-top: -40px;""><img src=""images/pattern_3.png"" style=""width: 234px; height: 230px; margin-top: -50px;""><div style=""display: flex; justify-content: space-between; margin-top: 33px;""><img src=""images/choice_trial_6.png"" style=""width: 408px; height: 417px; margin-right: 200px;""><img src=""images/choice_trial_5.png"" style=""width: 408px; height: 417px;""></div></div>","f","delaylearn","learning","trial","63d3f99c57f6b09e77ce7c82","BMN4zMU9PwdgRSTOmX2osTnrKBC3","1","images/choice_trial_6.png","images/choice_trial_5.png","images/pattern_3.png","j","j","7000","6","5","2","1","32","0","0","6","170","","","","",""
"html-keyboard-response","178","357865","0.0-74.0-1.0","","null","<div style=""display: flex; flex-direction: column; align-items: center; margin-top: -40px;""><img src=""images/pattern_3.png"" style=""width: 234px; height: 230px; margin-top: -50px;""><div style=""display: flex; justify-content: space-between; margin-top: 33px;""><img src=""images/choice_trial_6.png"" style=""width: 408px; height: 417px; margin-right: 608px;""></div></div>","null","delaylearn","learning","display_response","63d3f99c57f6b09e77ce7c82","BMN4zMU9PwdgRSTOmX2osTnrKBC3","","","","","","","","","","","","","","","","","chosen stimuli: images/choice_trial_6.png","","","",""
"html-keyboard-response","179","364871","0.0-74.0-2.0","","null","","null","delaylearn","learning","feedback_duration_window","63d3f99c57f6b09e77ce7c82","BMN4zMU9PwdgRSTOmX2osTnrKBC3","","","","","","","","","","","","","","","","","","7000","","",""
"html-keyboard-response","180","366378","0.0-74.0-3.0","","null","<div style='margin:auto;width: auto; font-size: 150%'><span style='font-weight: bold; font-size: 100px; color: red;'>0 points!</span><br><br></div>","null","delaylearn","learning","feedback_image_window","63d3f99c57f6b09e77ce7c82","BMN4zMU9PwdgRSTOmX2osTnrKBC3","","","","","","","","","","","","","","","","","","","","",""
"html-keyboard-response","181","368882","0.0-75.0","","null","<div style=""font-size:100px;"">+</div>","null","delaylearn","learning","ITI","63d3f99c57f6b09e77ce7c82","BMN4zMU9PwdgRSTOmX2osTnrKBC3","","","","","","","","","","","","","","","","","","","2424","",""
"html-keyboard-response","182","369890","0.0-76.0-0.0","","1001","<div style=""display: flex; flex-direction: column; align-items: center; margin-top: -40px;""><img src=""images/pattern_5.png"" style=""width: 234px; height: 230px; margin-top: -50px;""><div style=""display: flex; justify-content: space-between; margin-top: 33px;""><img src=""images/choice_trial_9.png"" style=""width: 408px; height: 417px; margin-right: 200px;""><img src=""images/choice_trial_10.png"" style=""width: 408px; height: 417px;""></div></div>","f","delaylearn","learning","trial","63d3f99c57f6b09e77ce7c82","BMN4zMU9PwdgRSTOmX2osTnrKBC3","1","images/choice_trial_9.png","images/choice_trial_10.png","images/pattern_5.png","j","f","750","9","10","4","0","33","1","0","9","170","","","","",""
"html-keyboard-response","183","370892","0.0-76.0-1.0","","null","<div style=""display: flex; flex-direction: column; align-items: center; margin-top: -40px;""><img src=""images/pattern_5.png"" style=""width: 234px; height: 230px; margin-top: -50px;""><div style=""display: flex; justify-content: space-between; margin-top: 33px;""><img src=""images/choice_trial_9.png"" style=""width: 408px; height: 417px; margin-right: 608px;""></div></div>","null","delaylearn","learning","display_response","63d3f99c57f6b09e77ce7c82","BMN4zMU9PwdgRSTOmX2osTnrKBC3","","","","","","","","","","","","","","","","","chosen stimuli: images/choice_trial_9.png","","","",""
"html-keyboard-response","184","371649","0.0-76.0-2.0","","null","","null","delaylearn","learning","feedback_duration_window","63d3f99c57f6b09e77ce7c82","BMN4zMU9PwdgRSTOmX2osTnrKBC3","","","","","","","","","","","","","","","","","","750","","",""
"html-keyboard-response","185","373157","0.0-76.0-3.0","","null","<div style='margin:auto;width: auto; font-size: 150%'><span style='font-weight: bold; font-size: 100px; color: red;'>0 points!</span><br><br></div>","null","delaylearn","learning","feedback_image_window","63d3f99c57f6b09e77ce7c82","BMN4zMU9PwdgRSTOmX2osTnrKBC3","","","","","","","","","","","","","","","","","","","","",""
"html-keyboard-response","186","375337","0.0-77.0","","null","<div style=""font-size:100px;"">+</div>","null","delaylearn","learning","ITI","63d3f99c57f6b09e77ce7c82","BMN4zMU9PwdgRSTOmX2osTnrKBC3","","","","","","","","","","","","","","","","","","","2175","",""
"html-keyboard-response","187","377228","0.0-78.0-0.0","","1886","<div style=""display: flex; flex-direction: column; align-items: center; margin-top: -40px;""><img src=""images/pattern_1.png"" style=""width: 234px; height: 230px; margin-top: -50px;""><div style=""display: flex; justify-content: space-between; margin-top: 33px;""><img src=""images/choice_trial_1.png"" style=""width: 408px; height: 417px; margin-right: 200px;""><img src=""images/choice_trial_2.png"" style=""width: 408px; height: 417px;""></div></div>","f","delaylearn","learning","trial","63d3f99c57f6b09e77ce7c82","BMN4zMU9PwdgRSTOmX2osTnrKBC3","1","images/choice_trial_1.png","images/choice_trial_2.png","images/pattern_1.png","f","f","7000","1","2","1","0","34","1","1","1","180","","","","",""
"html-keyboard-response","188","378235","0.0-78.0-1.0","","null","<div style=""display: flex; flex-direction: column; align-items: center; margin-top: -40px;""><img src=""images/pattern_1.png"" style=""width: 234px; height: 230px; margin-top: -50px;""><div style=""display: flex; justify-content: space-between; margin-top: 33px;""><img src=""images/choice_trial_1.png"" style=""width: 408px; height: 417px; margin-right: 608px;""></div></div>","null","delaylearn","learning","display_response","63d3f99c57f6b09e77ce7c82","BMN4zMU9PwdgRSTOmX2osTnrKBC3","","","","","","","","","","","","","","","","","chosen stimuli: images/choice_trial_1.png","","","",""
"html-keyboard-response","189","385329","0.0-78.0-2.0","","null","","null","delaylearn","learning","feedback_duration_window","63d3f99c57f6b09e77ce7c82","BMN4zMU9PwdgRSTOmX2osTnrKBC3","","","","","","","","","","","","","","","","","","7000","","",""
"html-keyboard-response","190","386838","0.0-78.0-3.0","","null","<div style='margin:auto;width: auto; font-size: 150%'><span style='font-weight: bold; font-size: 100px; color: green;'>+10 points!</span><br><br></div>","null","delaylearn","learning","feedback_image_window","63d3f99c57f6b09e77ce7c82","BMN4zMU9PwdgRSTOmX2osTnrKBC3","","","","","","","","","","","","","","","","","","","","",""
"html-keyboard-response","191","387345","0.0-79.0-0.0","","null","","null","","","mood_trial_fixation","","","","","","","","","","","","","","","","","","","","","","",""
"lmdlab-html-vas-response","192","391061","0.0-79.0-1.0","","2707","How happy are you right now?","0.1059190031152648","delaylearn","learning","mood_trial","63d3f99c57f6b09e77ce7c82","BMN4zMU9PwdgRSTOmX2osTnrKBC3","","","","","","","","","","","","","","","","","","","","[""Very unhappy"",""Very happy""]",""
"html-keyboard-response","193","393228","0.0-80.0","","null","<div style=""font-size:100px;"">+</div>","null","delaylearn","learning","ITI","63d3f99c57f6b09e77ce7c82","BMN4zMU9PwdgRSTOmX2osTnrKBC3","","","","","","","","","","","","","","","","","","","2160","",""
"html-keyboard-response","194","394583","0.0-81.0-0.0","","1351","<div style=""display: flex; flex-direction: column; align-items: center; margin-top: -40px;""><img src=""images/pattern_6.png"" style=""width: 234px; height: 230px; margin-top: -50px;""><div style=""display: flex; justify-content: space-between; margin-top: 33px;""><img src=""images/choice_trial_11.png"" style=""width: 408px; height: 417px; margin-right: 200px;""><img src=""images/choice_trial_12.png"" style=""width: 408px; height: 417px;""></div></div>","f","delaylearn","learning","trial","63d3f99c57f6b09e77ce7c82","BMN4zMU9PwdgRSTOmX2osTnrKBC3","1","images/choice_trial_11.png","images/choice_trial_12.png","images/pattern_6.png","j","f","750","11","12","5","0","35","1","0","11","180","","","","",""
"html-keyboard-response","195","395590","0.0-81.0-1.0","","null","<div style=""display: flex; flex-direction: column; align-items: center; margin-top: -40px;""><img src=""images/pattern_6.png"" style=""width: 234px; height: 230px; margin-top: -50px;""><div style=""display: flex; justify-content: space-between; margin-top: 33px;""><img src=""images/choice_trial_11.png"" style=""width: 408px; height: 417px; margin-right: 608px;""></div></div>","null","delaylearn","learning","display_response","63d3f99c57f6b09e77ce7c82","BMN4zMU9PwdgRSTOmX2osTnrKBC3","","","","","","","","","","","","","","","","","chosen stimuli: images/choice_trial_11.png","","","",""
"html-keyboard-response","196","396348","0.0-81.0-2.0","","null","","null","delaylearn","learning","feedback_duration_window","63d3f99c57f6b09e77ce7c82","BMN4zMU9PwdgRSTOmX2osTnrKBC3","","","","","","","","","","","","","","","","","","750","","",""
"html-keyboard-response","197","397855","0.0-81.0-3.0","","null","<div style='margin:auto;width: auto; font-size: 150%'><span style='font-weight: bold; font-size: 100px; color: red;'>0 points!</span><br><br></div>","null","delaylearn","learning","feedback_image_window","63d3f99c57f6b09e77ce7c82","BMN4zMU9PwdgRSTOmX2osTnrKBC3","","","","","","","","","","","","","","","","","","","","",""
"html-keyboard-response","198","399807","0.0-82.0","","null","<div style=""font-size:100px;"">+</div>","null","delaylearn","learning","ITI","63d3f99c57f6b09e77ce7c82","BMN4zMU9PwdgRSTOmX2osTnrKBC3","","","","","","","","","","","","","","","","","","","1945","",""
"html-keyboard-response","199","400637","0.0-83.0-0.0","","826","<div style=""display: flex; flex-direction: column; align-items: center; margin-top: -40px;""><img src=""images/pattern_3.png"" style=""width: 234px; height: 230px; margin-top: -50px;""><div style=""display: flex; justify-content: space-between; margin-top: 33px;""><img src=""images/choice_trial_6.png"" style=""width: 408px; height: 417px; margin-right: 200px;""><img src=""images/choice_trial_5.png"" style=""width: 408px; height: 417px;""></div></div>","j","delaylearn","learning","trial","63d3f99c57f6b09e77ce7c82","BMN4zMU9PwdgRSTOmX2osTnrKBC3","1","images/choice_trial_6.png","images/choice_trial_5.png","images/pattern_3.png","j","j","7000","6","5","2","1","36","1","1","5","190","","","","",""
"html-keyboard-response","200","401645","0.0-83.0-1.0","","null","<div style=""display: flex; flex-direction: column; align-items: center; margin-top: -40px;""><img src=""images/pattern_3.png"" style=""width: 234px; height: 230px; margin-top: -50px;""><div style=""display: flex; justify-content: space-between; margin-top: 33px;""><img src=""images/choice_trial_5.png"" style=""width: 408px; height: 417px; margin-left:608px;""></div></div>","null","delaylearn","learning","display_response","63d3f99c57f6b09e77ce7c82","BMN4zMU9PwdgRSTOmX2osTnrKBC3","","","","","","","","","","","","","","","","","chosen stimuli: images/choice_trial_5.png","","","",""
"html-keyboard-response","201","408652","0.0-83.0-2.0","","null","","null","delaylearn","learning","feedback_duration_window","63d3f99c57f6b09e77ce7c82","BMN4zMU9PwdgRSTOmX2osTnrKBC3","","","","","","","","","","","","","","","","","","7000","","",""
"html-keyboard-response","202","410159","0.0-83.0-3.0","","null","<div style='margin:auto;width: auto; font-size: 150%'><span style='font-weight: bold; font-size: 100px; color: green;'>+10 points!</span><br><br></div>","null","delaylearn","learning","feedback_image_window","63d3f99c57f6b09e77ce7c82","BMN4zMU9PwdgRSTOmX2osTnrKBC3","","","","","","","","","","","","","","","","","","","","",""
"html-keyboard-response","203","412607","0.0-84.0","","null","<div style=""font-size:100px;"">+</div>","null","delaylearn","learning","ITI","63d3f99c57f6b09e77ce7c82","BMN4zMU9PwdgRSTOmX2osTnrKBC3","","","","","","","","","","","","","","","","","","","2440","",""
"html-keyboard-response","204","414100","0.0-85.0-0.0","","1486","<div style=""display: flex; flex-direction: column; align-items: center; margin-top: -40px;""><img src=""images/pattern_4.png"" style=""width: 234px; height: 230px; margin-top: -50px;""><div style=""display: flex; justify-content: space-between; margin-top: 33px;""><img src=""images/choice_trial_8.png"" style=""width: 408px; height: 417px; margin-right: 200px;""><img src=""images/choice_trial_7.png"" style=""width: 408px; height: 417px;""></div></div>","f","delaylearn","learning","trial","63d3f99c57f6b09e77ce7c82","BMN4zMU9PwdgRSTOmX2osTnrKBC3","1","images/choice_trial_8.png","images/choice_trial_7.png","images/pattern_4.png","f","j","7000","8","7","3","1","37","0","1","8","200","","","","",""
"html-keyboard-response","205","415107","0.0-85.0-1.0","","null","<div style=""display: flex; flex-direction: column; align-items: center; margin-top: -40px;""><img src=""images/pattern_4.png"" style=""width: 234px; height: 230px; margin-top: -50px;""><div style=""display: flex; justify-content: space-between; margin-top: 33px;""><img src=""images/choice_trial_8.png"" style=""width: 408px; height: 417px; margin-right: 608px;""></div></div>","null","delaylearn","learning","display_response","63d3f99c57f6b09e77ce7c82","BMN4zMU9PwdgRSTOmX2osTnrKBC3","","","","","","","","","","","","","","","","","chosen stimuli: images/choice_trial_8.png","","","",""
"html-keyboard-response","206","422115","0.0-85.0-2.0","","null","","null","delaylearn","learning","feedback_duration_window","63d3f99c57f6b09e77ce7c82","BMN4zMU9PwdgRSTOmX2osTnrKBC3","","","","","","","","","","","","","","","","","","7000","","",""
"html-keyboard-response","207","423624","0.0-85.0-3.0","","null","<div style='margin:auto;width: auto; font-size: 150%'><span style='font-weight: bold; font-size: 100px; color: green;'>+10 points!</span><br><br></div>","null","delaylearn","learning","feedback_image_window","63d3f99c57f6b09e77ce7c82","BMN4zMU9PwdgRSTOmX2osTnrKBC3","","","","","","","","","","","","","","","","","","","","",""
"html-keyboard-response","208","425978","0.0-86.0","","null","<div style=""font-size:100px;"">+</div>","null","delaylearn","learning","ITI","63d3f99c57f6b09e77ce7c82","BMN4zMU9PwdgRSTOmX2osTnrKBC3","","","","","","","","","","","","","","","","","","","2347","",""
"html-keyboard-response","209","427167","0.0-87.0-0.0","","1183","<div style=""display: flex; flex-direction: column; align-items: center; margin-top: -40px;""><img src=""images/pattern_7.png"" style=""width: 234px; height: 230px; margin-top: -50px;""><div style=""display: flex; justify-content: space-between; margin-top: 33px;""><img src=""images/choice_trial_13.png"" style=""width: 408px; height: 417px; margin-right: 200px;""><img src=""images/choice_trial_14.png"" style=""width: 408px; height: 417px;""></div></div>","f","delaylearn","learning","trial","63d3f99c57f6b09e77ce7c82","BMN4zMU9PwdgRSTOmX2osTnrKBC3","1","images/choice_trial_13.png","images/choice_trial_14.png","images/pattern_7.png","f","f","750","13","14","6","0","38","1","1","13","210","","","","",""
"html-keyboard-response","210","428173","0.0-87.0-1.0","","null","<div style=""display: flex; flex-direction: column; align-items: center; margin-top: -40px;""><img src=""images/pattern_7.png"" style=""width: 234px; height: 230px; margin-top: -50px;""><div style=""display: flex; justify-content: space-between; margin-top: 33px;""><img src=""images/choice_trial_13.png"" style=""width: 408px; height: 417px; margin-right: 608px;""></div></div>","null","delaylearn","learning","display_response","63d3f99c57f6b09e77ce7c82","BMN4zMU9PwdgRSTOmX2osTnrKBC3","","","","","","","","","","","","","","","","","chosen stimuli: images/choice_trial_13.png","","","",""
"html-keyboard-response","211","428930","0.0-87.0-2.0","","null","","null","delaylearn","learning","feedback_duration_window","63d3f99c57f6b09e77ce7c82","BMN4zMU9PwdgRSTOmX2osTnrKBC3","","","","","","","","","","","","","","","","","","750","","",""
"html-keyboard-response","212","430437","0.0-87.0-3.0","","null","<div style='margin:auto;width: auto; font-size: 150%'><span style='font-weight: bold; font-size: 100px; color: green;'>+10 points!</span><br><br></div>","null","delaylearn","learning","feedback_image_window","63d3f99c57f6b09e77ce7c82","BMN4zMU9PwdgRSTOmX2osTnrKBC3","","","","","","","","","","","","","","","","","","","","",""
"html-keyboard-response","213","432595","0.0-88.0","","null","<div style=""font-size:100px;"">+</div>","null","delaylearn","learning","ITI","63d3f99c57f6b09e77ce7c82","BMN4zMU9PwdgRSTOmX2osTnrKBC3","","","","","","","","","","","","","","","","","","","2151","",""
"html-keyboard-response","214","434165","0.0-89.0-0.0","","1566","<div style=""display: flex; flex-direction: column; align-items: center; margin-top: -40px;""><img src=""images/pattern_1.png"" style=""width: 234px; height: 230px; margin-top: -50px;""><div style=""display: flex; justify-content: space-between; margin-top: 33px;""><img src=""images/choice_trial_1.png"" style=""width: 408px; height: 417px; margin-right: 200px;""><img src=""images/choice_trial_2.png"" style=""width: 408px; height: 417px;""></div></div>","j","delaylearn","learning","trial","63d3f99c57f6b09e77ce7c82","BMN4zMU9PwdgRSTOmX2osTnrKBC3","1","images/choice_trial_1.png","images/choice_trial_2.png","images/pattern_1.png","f","f","7000","1","2","1","0","39","0","0","2","210","","","","",""
"html-keyboard-response","215","435170","0.0-89.0-1.0","","null","<div style=""display: flex; flex-direction: column; align-items: center; margin-top: -40px;""><img src=""images/pattern_1.png"" style=""width: 234px; height: 230px; margin-top: -50px;""><div style=""display: flex; justify-content: space-between; margin-top: 33px;""><img src=""images/choice_trial_2.png"" style=""width: 408px; height: 417px; margin-left:608px;""></div></div>","null","delaylearn","learning","display_response","63d3f99c57f6b09e77ce7c82","BMN4zMU9PwdgRSTOmX2osTnrKBC3","","","","","","","","","","","","","","","","","chosen stimuli: images/choice_trial_2.png","","","",""
"html-keyboard-response","216","442180","0.0-89.0-2.0","","null","","null","delaylearn","learning","feedback_duration_window","63d3f99c57f6b09e77ce7c82","BMN4zMU9PwdgRSTOmX2osTnrKBC3","","","","","","","","","","","","","","","","","","7000","","",""
"html-keyboard-response","217","443686","0.0-89.0-3.0","","null","<div style='margin:auto;width: auto; font-size: 150%'><span style='font-weight: bold; font-size: 100px; color: red;'>0 points!</span><br><br></div>","null","delaylearn","learning","feedback_image_window","63d3f99c57f6b09e77ce7c82","BMN4zMU9PwdgRSTOmX2osTnrKBC3","","","","","","","","","","","","","","","","","","","","",""
"html-keyboard-response","218","444190","0.0-90.0-0.0","","null","","null","","","mood_trial_fixation","","","","","","","","","","","","","","","","","","","","","","",""
"lmdlab-html-vas-response","219","447759","0.0-90.0-1.0","","2560","How happy are you right now?","0.1542056074766355","delaylearn","learning","mood_trial","63d3f99c57f6b09e77ce7c82","BMN4zMU9PwdgRSTOmX2osTnrKBC3","","","","","","","","","","","","","","","","","","","","[""Very unhappy"",""Very happy""]",""
"html-keyboard-response","220","449395","0.0-91.0","","null","<div style=""font-size:100px;"">+</div>","null","delaylearn","learning","ITI","63d3f99c57f6b09e77ce7c82","BMN4zMU9PwdgRSTOmX2osTnrKBC3","","","","","","","","","","","","","","","","","","","1629","",""
"html-keyboard-response","221","450522","0.0-92.0-0.0","","1120","<div style=""display: flex; flex-direction: column; align-items: center; margin-top: -40px;""><img src=""images/pattern_3.png"" style=""width: 234px; height: 230px; margin-top: -50px;""><div style=""display: flex; justify-content: space-between; margin-top: 33px;""><img src=""images/choice_trial_5.png"" style=""width: 408px; height: 417px; margin-right: 200px;""><img src=""images/choice_trial_6.png"" style=""width: 408px; height: 417px;""></div></div>","f","delaylearn","learning","trial","63d3f99c57f6b09e77ce7c82","BMN4zMU9PwdgRSTOmX2osTnrKBC3","1","images/choice_trial_5.png","images/choice_trial_6.png","images/pattern_3.png","j","f","7000","5","6","2","0","40","1","0","5","210","","","","",""
