"trial_type","trial_index","time_elapsed","internal_node_id","participant","rt","stimulus","response","exp_name","exp_stage","test_part","subjectID","databaseID","counterbal","choice_stimuli_1","choice_stimuli_2","pattern_stimuli","rewarded_answer","correct_answer","feedback_duration_times","stim_left","stim_right","pair","leftright_counter","trial","response_correct","response_rewarded","chosen_stim","counter","displayed_choice","feedback_durations","ITI_duration","labels","rest_warning"
"pavlovia","0","521","0.0-0.0","","","","","","","","","","","","","","","","","","","","","","","","","","","","","",""
"html-keyboard-response","1","3536","0.0-1.0","","null","<div style=""font-size:100px;"">+</div>","null","delaylearn","learning","pre_fixation","601eaeeb12586834759af824","","","","","","","","","","","","","","","","","","","","","",""
"html-keyboard-response","2","4858","0.0-2.0-0.0","","1318.800000011921","<div style=""display: flex; flex-direction: column; align-items: center; margin-top: -40px;""><img src=""images/demo_images/pattern_1.png"" style=""width: 234px; height: 230px; margin-top: -50px;""><div style=""display: flex; justify-content: space-between; margin-top: 33px;""><img src=""images/demo_images/choice_trial_2.png"" style=""width: 408px; height: 417px; margin-right: 200px;""><img src=""images/demo_images/choice_trial_1.png"" style=""width: 408px; height: 417px;""></div></div>","j","delaylearn","learning","trial","601eaeeb12586834759af824","AKbmToyQyMgqHoKb3rlbvOkLd843","3","images/demo_images/choice_trial_2.png","images/demo_images/choice_trial_1.png","images/demo_images/pattern_1.png","j","j","3000","2","1","20","1","1","1","1","1","10","","","","",""
"html-keyboard-response","3","5864","0.0-2.0-1.0","","null","<div style=""display: flex; flex-direction: column; align-items: center; margin-top: -40px;""><img src=""images/demo_images/pattern_1.png"" style=""width: 234px; height: 230px; margin-top: -50px;""><div style=""display: flex; justify-content: space-between; margin-top: 33px;""><img src=""images/demo_images/choice_trial_1.png"" style=""width: 408px; height: 417px; margin-left:608px;""></div></div>","null","delaylearn","learning","display_response","601eaeeb12586834759af824","AKbmToyQyMgqHoKb3rlbvOkLd843","","","","","","","","","","","","","","","","","chosen stimuli: images/demo_images/choice_trial_1.png","","","",""
"html-keyboard-response","4","8880","0.0-2.0-2.0","","null","","null","delaylearn","learning","feedback_duration_window","601eaeeb12586834759af824","AKbmToyQyMgqHoKb3rlbvOkLd843","","","","","","","","","","","","","","","","","","3000","","",""
"html-keyboard-response","5","10384","0.0-2.0-3.0","","null","<div style='margin:auto;width: auto; font-size: 150%'><span style='font-weight: bold; font-size: 100px; color: green;'>+10 points!</span><br><br></div>","null","delaylearn","learning","feedback_image_window","601eaeeb12586834759af824","AKbmToyQyMgqHoKb3rlbvOkLd843","","","","","","","","","","","","","","","","","","","","",""
"html-keyboard-response","6","12138","0.0-3.0","","null","<div style=""font-size:100px;"">+</div>","null","delaylearn","learning","ITI","601eaeeb12586834759af824","AKbmToyQyMgqHoKb3rlbvOkLd843","","","","","","","","","","","","","","","","","","","1747","",""
"html-keyboard-response","7","12865","0.0-4.0-0.0","","722.9000000357628","<div style=""display: flex; flex-direction: column; align-items: center; margin-top: -40px;""><img src=""images/demo_images/pattern_1.png"" style=""width: 234px; height: 230px; margin-top: -50px;""><div style=""display: flex; justify-content: space-between; margin-top: 33px;""><img src=""images/demo_images/choice_trial_2.png"" style=""width: 408px; height: 417px; margin-right: 200px;""><img src=""images/demo_images/choice_trial_1.png"" style=""width: 408px; height: 417px;""></div></div>","j","delaylearn","learning","trial","601eaeeb12586834759af824","AKbmToyQyMgqHoKb3rlbvOkLd843","3","images/demo_images/choice_trial_2.png","images/demo_images/choice_trial_1.png","images/demo_images/pattern_1.png","j","j","3000","2","1","20","1","2","1","1","1","20","","","","",""
"html-keyboard-response","8","13870","0.0-4.0-1.0","","null","<div style=""display: flex; flex-direction: column; align-items: center; margin-top: -40px;""><img src=""images/demo_images/pattern_1.png"" style=""width: 234px; height: 230px; margin-top: -50px;""><div style=""display: flex; justify-content: space-between; margin-top: 33px;""><img src=""images/demo_images/choice_trial_1.png"" style=""width: 408px; height: 417px; margin-left:608px;""></div></div>","null","delaylearn","learning","display_response","601eaeeb12586834759af824","AKbmToyQyMgqHoKb3rlbvOkLd843","","","","","","","","","","","","","","","","","chosen stimuli: images/demo_images/choice_trial_1.png","","","",""
"html-keyboard-response","9","16880","0.0-4.0-2.0","","null","","null","delaylearn","learning","feedback_duration_window","601eaeeb12586834759af824","AKbmToyQyMgqHoKb3rlbvOkLd843","","","","","","","","","","","","","","","","","","3000","","",""
"html-keyboard-response","10","18391","0.0-4.0-3.0","","null","<div style='margin:auto;width: auto; font-size: 150%'><span style='font-weight: bold; font-size: 100px; color: green;'>+10 points!</span><br><br></div>","null","delaylearn","learning","feedback_image_window","601eaeeb12586834759af824","AKbmToyQyMgqHoKb3rlbvOkLd843","","","","","","","","","","","","","","","","","","","","",""
"html-keyboard-response","11","20176","0.0-5.0","","null","<div style=""font-size:100px;"">+</div>","null","delaylearn","learning","ITI","601eaeeb12586834759af824","AKbmToyQyMgqHoKb3rlbvOkLd843","","","","","","","","","","","","","","","","","","","1784","",""
"html-keyboard-response","12","21269","0.0-6.0-0.0","","1090.5","<div style=""display: flex; flex-direction: column; align-items: center; margin-top: -40px;""><img src=""images/demo_images/pattern_1.png"" style=""width: 234px; height: 230px; margin-top: -50px;""><div style=""display: flex; justify-content: space-between; margin-top: 33px;""><img src=""images/demo_images/choice_trial_1.png"" style=""width: 408px; height: 417px; margin-right: 200px;""><img src=""images/demo_images/choice_trial_2.png"" style=""width: 408px; height: 417px;""></div></div>","f","delaylearn","learning","trial","601eaeeb12586834759af824","AKbmToyQyMgqHoKb3rlbvOkLd843","3","images/demo_images/choice_trial_1.png","images/demo_images/choice_trial_2.png","images/demo_images/pattern_1.png","j","f","3000","1","2","20","0","3","1","0","1","20","","","","",""
"html-keyboard-response","13","22285","0.0-6.0-1.0","","null","<div style=""display: flex; flex-direction: column; align-items: center; margin-top: -40px;""><img src=""images/demo_images/pattern_1.png"" style=""width: 234px; height: 230px; margin-top: -50px;""><div style=""display: flex; justify-content: space-between; margin-top: 33px;""><img src=""images/demo_images/choice_trial_1.png"" style=""width: 408px; height: 417px; margin-right: 608px;""></div></div>","null","delaylearn","learning","display_response","601eaeeb12586834759af824","AKbmToyQyMgqHoKb3rlbvOkLd843","","","","","","","","","","","","","","","","","chosen stimuli: images/demo_images/choice_trial_1.png","","","",""
"html-keyboard-response","14","25290","0.0-6.0-2.0","","null","","null","delaylearn","learning","feedback_duration_window","601eaeeb12586834759af824","AKbmToyQyMgqHoKb3rlbvOkLd843","","","","","","","","","","","","","","","","","","3000","","",""
"html-keyboard-response","15","26803","0.0-6.0-3.0","","null","<div style='margin:auto;width: auto; font-size: 150%'><span style='font-weight: bold; font-size: 100px; color: red;'>0 points!</span><br><br></div>","null","delaylearn","learning","feedback_image_window","601eaeeb12586834759af824","AKbmToyQyMgqHoKb3rlbvOkLd843","","","","","","","","","","","","","","","","","","","","",""
"html-keyboard-response","16","28520","0.0-7.0","","null","<div style=""font-size:100px;"">+</div>","null","delaylearn","learning","ITI","601eaeeb12586834759af824","AKbmToyQyMgqHoKb3rlbvOkLd843","","","","","","","","","","","","","","","","","","","1708","",""
"html-keyboard-response","17","30706","0.0-8.0-0.0","","2183.099999964237","<div style=""display: flex; flex-direction: column; align-items: center; margin-top: -40px;""><img src=""images/demo_images/pattern_1.png"" style=""width: 234px; height: 230px; margin-top: -50px;""><div style=""display: flex; justify-content: space-between; margin-top: 33px;""><img src=""images/demo_images/choice_trial_1.png"" style=""width: 408px; height: 417px; margin-right: 200px;""><img src=""images/demo_images/choice_trial_2.png"" style=""width: 408px; height: 417px;""></div></div>","f","delaylearn","learning","trial","601eaeeb12586834759af824","AKbmToyQyMgqHoKb3rlbvOkLd843","3","images/demo_images/choice_trial_1.png","images/demo_images/choice_trial_2.png","images/demo_images/pattern_1.png","f","f","3000","1","2","20","0","4","1","1","1","30","","","","",""
"html-keyboard-response","18","31718","0.0-8.0-1.0","","null","<div style=""display: flex; flex-direction: column; align-items: center; margin-top: -40px;""><img src=""images/demo_images/pattern_1.png"" style=""width: 234px; height: 230px; margin-top: -50px;""><div style=""display: flex; justify-content: space-between; margin-top: 33px;""><img src=""images/demo_images/choice_trial_1.png"" style=""width: 408px; height: 417px; margin-right: 608px;""></div></div>","null","delaylearn","learning","display_response","601eaeeb12586834759af824","AKbmToyQyMgqHoKb3rlbvOkLd843","","","","","","","","","","","","","","","","","chosen stimuli: images/demo_images/choice_trial_1.png","","","",""
"html-keyboard-response","19","34730","0.0-8.0-2.0","","null","","null","delaylearn","learning","feedback_duration_window","601eaeeb12586834759af824","AKbmToyQyMgqHoKb3rlbvOkLd843","","","","","","","","","","","","","","","","","","3000","","",""
"html-keyboard-response","20","36240","0.0-8.0-3.0","","null","<div style='margin:auto;width: auto; font-size: 150%'><span style='font-weight: bold; font-size: 100px; color: green;'>+10 points!</span><br><br></div>","null","delaylearn","learning","feedback_image_window","601eaeeb12586834759af824","AKbmToyQyMgqHoKb3rlbvOkLd843","","","","","","","","","","","","","","","","","","","","",""
"html-keyboard-response","21","36749","0.0-9.0-0.0","","null","","null","","","mood_trial_fixation","","","","","","","","","","","","","","","","","","","","","","",""
"lmdlab-html-vas-response","22","41834","0.0-9.0-1.0","","4074","How happy are you right now?","0.6708333333333333","delaylearn","learning","mood_trial","601eaeeb12586834759af824","AKbmToyQyMgqHoKb3rlbvOkLd843","","","","","","","","","","","","","","","","","","","","[""Very unhappy"",""Very happy""]",""
"html-keyboard-response","23","43348","0.0-10.0","","null","<div style=""font-size:100px;"">+</div>","null","delaylearn","learning","ITI","601eaeeb12586834759af824","AKbmToyQyMgqHoKb3rlbvOkLd843","","","","","","","","","","","","","","","","","","","1508","",""
"html-keyboard-response","24","45772","0.0-11.0-0.0","","2421.100000023842","<div style=""display: flex; flex-direction: column; align-items: center; margin-top: -40px;""><img src=""images/demo_images/pattern_1.png"" style=""width: 234px; height: 230px; margin-top: -50px;""><div style=""display: flex; justify-content: space-between; margin-top: 33px;""><img src=""images/demo_images/choice_trial_2.png"" style=""width: 408px; height: 417px; margin-right: 200px;""><img src=""images/demo_images/choice_trial_1.png"" style=""width: 408px; height: 417px;""></div></div>","j","delaylearn","learning","trial","601eaeeb12586834759af824","AKbmToyQyMgqHoKb3rlbvOkLd843","3","images/demo_images/choice_trial_2.png","images/demo_images/choice_trial_1.png","images/demo_images/pattern_1.png","j","j","3000","2","1","20","1","5","1","1","1","40","","","","",""
"html-keyboard-response","25","46780","0.0-11.0-1.0","","null","<div style=""display: flex; flex-direction: column; align-items: center; margin-top: -40px;""><img src=""images/demo_images/pattern_1.png"" style=""width: 234px; height: 230px; margin-top: -50px;""><div style=""display: flex; justify-content: space-between; margin-top: 33px;""><img src=""images/demo_images/choice_trial_1.png"" style=""width: 408px; height: 417px; margin-left:608px;""></div></div>","null","delaylearn","learning","display_response","601eaeeb12586834759af824","AKbmToyQyMgqHoKb3rlbvOkLd843","","","","","","","","","","","","","","","","","chosen stimuli: images/demo_images/choice_trial_1.png","","","",""
"html-keyboard-response","26","49797","0.0-11.0-2.0","","null","","null","delaylearn","learning","feedback_duration_window","601eaeeb12586834759af824","AKbmToyQyMgqHoKb3rlbvOkLd843","","","","","","","","","","","","","","","","","","3000","","",""
"html-keyboard-response","27","51301","0.0-11.0-3.0","","null","<div style='margin:auto;width: auto; font-size: 150%'><span style='font-weight: bold; font-size: 100px; color: green;'>+10 points!</span><br><br></div>","null","delaylearn","learning","feedback_image_window","601eaeeb12586834759af824","AKbmToyQyMgqHoKb3rlbvOkLd843","","","","","","","","","","","","","","","","","","","","",""
"html-keyboard-response","28","52846","0.0-12.0","","null","<div style=""font-size:100px;"">+</div>","null","delaylearn","learning","ITI","601eaeeb12586834759af824","AKbmToyQyMgqHoKb3rlbvOkLd843","","","","","","","","","","","","","","","","","","","1530","",""
"html-keyboard-response","29","55776","0.0-13.0-0.0","","2927.300000011921","<div style=""display: flex; flex-direction: column; align-items: center; margin-top: -40px;""><img src=""images/demo_images/pattern_1.png"" style=""width: 234px; height: 230px; margin-top: -50px;""><div style=""display: flex; justify-content: space-between; margin-top: 33px;""><img src=""images/demo_images/choice_trial_1.png"" style=""width: 408px; height: 417px; margin-right: 200px;""><img src=""images/demo_images/choice_trial_2.png"" style=""width: 408px; height: 417px;""></div></div>","f","delaylearn","learning","trial","601eaeeb12586834759af824","AKbmToyQyMgqHoKb3rlbvOkLd843","3","images/demo_images/choice_trial_1.png","images/demo_images/choice_trial_2.png","images/demo_images/pattern_1.png","f","f","3000","1","2","20","0","6","1","1","1","50","","","","",""
"html-keyboard-response","30","56783","0.0-13.0-1.0","","null","<div style=""display: flex; flex-direction: column; align-items: center; margin-top: -40px;""><img src=""images/demo_images/pattern_1.png"" style=""width: 234px; height: 230px; margin-top: -50px;""><div style=""display: flex; justify-content: space-between; margin-top: 33px;""><img src=""images/demo_images/choice_trial_1.png"" style=""width: 408px; height: 417px; margin-right: 608px;""></div></div>","null","delaylearn","learning","display_response","601eaeeb12586834759af824","AKbmToyQyMgqHoKb3rlbvOkLd843","","","","","","","","","","","","","","","","","chosen stimuli: images/demo_images/choice_trial_1.png","","","",""
"html-keyboard-response","31","59797","0.0-13.0-2.0","","null","","null","delaylearn","learning","feedback_duration_window","601eaeeb12586834759af824","AKbmToyQyMgqHoKb3rlbvOkLd843","","","","","","","","","","","","","","","","","","3000","","",""
"html-keyboard-response","32","61310","0.0-13.0-3.0","","null","<div style='margin:auto;width: auto; font-size: 150%'><span style='font-weight: bold; font-size: 100px; color: green;'>+10 points!</span><br><br></div>","null","delaylearn","learning","feedback_image_window","601eaeeb12586834759af824","AKbmToyQyMgqHoKb3rlbvOkLd843","","","","","","","","","","","","","","","","","","","","",""
"html-keyboard-response","33","63061","0.0-14.0","","null","<div style=""font-size:100px;"">+</div>","null","delaylearn","learning","ITI","601eaeeb12586834759af824","AKbmToyQyMgqHoKb3rlbvOkLd843","","","","","","","","","","","","","","","","","","","1749","",""
"html-keyboard-response","34","66068","0.0-15.0-0.0","","null","<div style=""display: flex; flex-direction: column; align-items: center; margin-top: -40px;""><img src=""images/demo_images/pattern_1.png"" style=""width: 234px; height: 230px; margin-top: -50px;""><div style=""display: flex; justify-content: space-between; margin-top: 33px;""><img src=""images/demo_images/choice_trial_2.png"" style=""width: 408px; height: 417px; margin-right: 200px;""><img src=""images/demo_images/choice_trial_1.png"" style=""width: 408px; height: 417px;""></div></div>","null","delaylearn","learning","trial","601eaeeb12586834759af824","AKbmToyQyMgqHoKb3rlbvOkLd843","3","images/demo_images/choice_trial_2.png","images/demo_images/choice_trial_1.png","images/demo_images/pattern_1.png","j","j","3000","2","1","20","1","7","0","0","0","50","","","","",""
"html-keyboard-response","35","67084","0.0-15.0-1.0","","null","<div style='font-weight: bold; font-size: 75px; color: red;'>Missed Trial <br><br><br><br> Please respond faster</div>","null","delaylearn","learning","display_response","601eaeeb12586834759af824","AKbmToyQyMgqHoKb3rlbvOkLd843","","","","","","","","","","","","","","","","","Missed trial","","","",""
"html-keyboard-response","36","67089","0.0-15.0-2.0","","null","","null","delaylearn","learning","feedback_duration_window","601eaeeb12586834759af824","AKbmToyQyMgqHoKb3rlbvOkLd843","","","","","","","","","","","","","","","","","","0","","",""
"html-keyboard-response","37","67094","0.0-15.0-3.0","","null","","null","delaylearn","learning","feedback_image_window","601eaeeb12586834759af824","AKbmToyQyMgqHoKb3rlbvOkLd843","","","","","","","","","","","","","","","","","","","","",""
"html-keyboard-response","38","68711","0.0-16.0","","null","<div style=""font-size:100px;"">+</div>","null","delaylearn","learning","ITI","601eaeeb12586834759af824","AKbmToyQyMgqHoKb3rlbvOkLd843","","","","","","","","","","","","","","","","","","","1609","",""
"html-keyboard-response","39","69367","0.0-17.0-0.0","","652.7999999523163","<div style=""display: flex; flex-direction: column; align-items: center; margin-top: -40px;""><img src=""images/demo_images/pattern_1.png"" style=""width: 234px; height: 230px; margin-top: -50px;""><div style=""display: flex; justify-content: space-between; margin-top: 33px;""><img src=""images/demo_images/choice_trial_1.png"" style=""width: 408px; height: 417px; margin-right: 200px;""><img src=""images/demo_images/choice_trial_2.png"" style=""width: 408px; height: 417px;""></div></div>","f","delaylearn","learning","trial","601eaeeb12586834759af824","AKbmToyQyMgqHoKb3rlbvOkLd843","3","images/demo_images/choice_trial_1.png","images/demo_images/choice_trial_2.png","images/demo_images/pattern_1.png","f","f","3000","1","2","20","0","8","1","1","1","60","","","","",""
"html-keyboard-response","40","70383","0.0-17.0-1.0","","null","<div style=""display: flex; flex-direction: column; align-items: center; margin-top: -40px;""><img src=""images/demo_images/pattern_1.png"" style=""width: 234px; height: 230px; margin-top: -50px;""><div style=""display: flex; justify-content: space-between; margin-top: 33px;""><img src=""images/demo_images/choice_trial_1.png"" style=""width: 408px; height: 417px; margin-right: 608px;""></div></div>","null","delaylearn","learning","display_response","601eaeeb12586834759af824","AKbmToyQyMgqHoKb3rlbvOkLd843","","","","","","","","","","","","","","","","","chosen stimuli: images/demo_images/choice_trial_1.png","","","",""
"html-keyboard-response","41","73397","0.0-17.0-2.0","","null","","null","delaylearn","learning","feedback_duration_window","601eaeeb12586834759af824","AKbmToyQyMgqHoKb3rlbvOkLd843","","","","","","","","","","","","","","","","","","3000","","",""
"html-keyboard-response","42","74908","0.0-17.0-3.0","","null","<div style='margin:auto;width: auto; font-size: 150%'><span style='font-weight: bold; font-size: 100px; color: green;'>+10 points!</span><br><br></div>","null","delaylearn","learning","feedback_image_window","601eaeeb12586834759af824","AKbmToyQyMgqHoKb3rlbvOkLd843","","","","","","","","","","","","","","","","","","","","",""
"html-button-response","43","80007","0.0-18.0","","5097.399999976158","
  <div style=""display: flex; align-items: center; justify-content: center; height: 80vh;"">
  <div>
          <img src=""images/inst_demo_finish.png"" style=""width: 80vw; height:auto;"">
          <br><br>
      </div>
      <br><br>
  </div>","0","","","","","","","","","","","","","","","","","","","","","","","","","",""
"html-keyboard-response","44","85243","0.0-19.0","","5235.199999988079","
  <div style=""display: flex; align-items: center; justify-content: center; height: 80vh;"">
  <div>
          <img src=""images/inst_6.png"" style=""width: 80vw; height:auto;"">
          <br><br>
      </div>
      <br><br>
  </div>","j","","","","","","","","","","","","","","","","","","","","","","","","","",""
"html-keyboard-response","45","88252","0.0-20.0","","null","<div style=""font-size:100px;"">+</div>","null","delaylearn","learning","pre_fixation","601eaeeb12586834759af824","","","","","","","","","","","","","","","","","","","","","",""
"html-keyboard-response","46","89874","0.0-21.0","","null","<div style=""font-size:100px;"">+</div>","null","delaylearn","learning","ITI","601eaeeb12586834759af824","AKbmToyQyMgqHoKb3rlbvOkLd843","","","","","","","","","","","","","","","","","","","1617","",""
"html-keyboard-response","47","92107","0.0-22.0-0.0","","2230.400000035763","<div style=""display: flex; flex-direction: column; align-items: center; margin-top: -40px;""><img src=""images/pattern_3.png"" style=""width: 234px; height: 230px; margin-top: -50px;""><div style=""display: flex; justify-content: space-between; margin-top: 33px;""><img src=""images/choice_trial_13.png"" style=""width: 408px; height: 417px; margin-right: 200px;""><img src=""images/choice_trial_10.png"" style=""width: 408px; height: 417px;""></div></div>","j","delaylearn","learning","trial","601eaeeb12586834759af824","AKbmToyQyMgqHoKb3rlbvOkLd843","3","images/choice_trial_13.png","images/choice_trial_10.png","images/pattern_3.png","f","f","7000","13","10","2","0","9","0","0","10","60","","","","",""
"html-keyboard-response","48","93112","0.0-22.0-1.0","","null","<div style=""display: flex; flex-direction: column; align-items: center; margin-top: -40px;""><img src=""images/pattern_3.png"" style=""width: 234px; height: 230px; margin-top: -50px;""><div style=""display: flex; justify-content: space-between; margin-top: 33px;""><img src=""images/choice_trial_10.png"" style=""width: 408px; height: 417px; margin-left:608px;""></div></div>","null","delaylearn","learning","display_response","601eaeeb12586834759af824","AKbmToyQyMgqHoKb3rlbvOkLd843","","","","","","","","","","","","","","","","","chosen stimuli: images/choice_trial_10.png","","","",""
"html-keyboard-response","49","100126","0.0-22.0-2.0","","null","","null","delaylearn","learning","feedback_duration_window","601eaeeb12586834759af824","AKbmToyQyMgqHoKb3rlbvOkLd843","","","","","","","","","","","","","","","","","","7000","","",""
"html-keyboard-response","50","101639","0.0-22.0-3.0","","null","<div style='margin:auto;width: auto; font-size: 150%'><span style='font-weight: bold; font-size: 100px; color: red;'>0 points!</span><br><br></div>","null","delaylearn","learning","feedback_image_window","601eaeeb12586834759af824","AKbmToyQyMgqHoKb3rlbvOkLd843","","","","","","","","","","","","","","","","","","","","",""
"html-keyboard-response","51","103528","0.0-23.0","","null","<div style=""font-size:100px;"">+</div>","null","delaylearn","learning","ITI","601eaeeb12586834759af824","AKbmToyQyMgqHoKb3rlbvOkLd843","","","","","","","","","","","","","","","","","","","1879","",""
"html-keyboard-response","52","105549","0.0-24.0-0.0","","2018.8999999761581","<div style=""display: flex; flex-direction: column; align-items: center; margin-top: -40px;""><img src=""images/pattern_7.png"" style=""width: 234px; height: 230px; margin-top: -50px;""><div style=""display: flex; justify-content: space-between; margin-top: 33px;""><img src=""images/choice_trial_12.png"" style=""width: 408px; height: 417px; margin-right: 200px;""><img src=""images/choice_trial_6.png"" style=""width: 408px; height: 417px;""></div></div>","f","delaylearn","learning","trial","601eaeeb12586834759af824","AKbmToyQyMgqHoKb3rlbvOkLd843","3","images/choice_trial_12.png","images/choice_trial_6.png","images/pattern_7.png","j","j","750","12","6","6","1","10","0","0","12","60","","","","",""
"html-keyboard-response","53","106554","0.0-24.0-1.0","","null","<div style=""display: flex; flex-direction: column; align-items: center; margin-top: -40px;""><img src=""images/pattern_7.png"" style=""width: 234px; height: 230px; margin-top: -50px;""><div style=""display: flex; justify-content: space-between; margin-top: 33px;""><img src=""images/choice_trial_12.png"" style=""width: 408px; height: 417px; margin-right: 608px;""></div></div>","null","delaylearn","learning","display_response","601eaeeb12586834759af824","AKbmToyQyMgqHoKb3rlbvOkLd843","","","","","","","","","","","","","","","","","chosen stimuli: images/choice_trial_12.png","","","",""
"html-keyboard-response","54","107316","0.0-24.0-2.0","","null","","null","delaylearn","learning","feedback_duration_window","601eaeeb12586834759af824","AKbmToyQyMgqHoKb3rlbvOkLd843","","","","","","","","","","","","","","","","","","750","","",""
"html-keyboard-response","55","108829","0.0-24.0-3.0","","null","<div style='margin:auto;width: auto; font-size: 150%'><span style='font-weight: bold; font-size: 100px; color: red;'>0 points!</span><br><br></div>","null","delaylearn","learning","feedback_image_window","601eaeeb12586834759af824","AKbmToyQyMgqHoKb3rlbvOkLd843","","","","","","","","","","","","","","","","","","","","",""
"html-keyboard-response","56","110645","0.0-25.0","","null","<div style=""font-size:100px;"">+</div>","null","delaylearn","learning","ITI","601eaeeb12586834759af824","AKbmToyQyMgqHoKb3rlbvOkLd843","","","","","","","","","","","","","","","","","","","1811","",""
"html-keyboard-response","57","113142","0.0-26.0-0.0","","2493.5","<div style=""display: flex; flex-direction: column; align-items: center; margin-top: -40px;""><img src=""images/pattern_4.png"" style=""width: 234px; height: 230px; margin-top: -50px;""><div style=""display: flex; justify-content: space-between; margin-top: 33px;""><img src=""images/choice_trial_15.png"" style=""width: 408px; height: 417px; margin-right: 200px;""><img src=""images/choice_trial_9.png"" style=""width: 408px; height: 417px;""></div></div>","j","delaylearn","learning","trial","601eaeeb12586834759af824","AKbmToyQyMgqHoKb3rlbvOkLd843","3","images/choice_trial_15.png","images/choice_trial_9.png","images/pattern_4.png","f","f","7000","15","9","3","0","11","0","0","9","60","","","","",""
"html-keyboard-response","58","114155","0.0-26.0-1.0","","null","<div style=""display: flex; flex-direction: column; align-items: center; margin-top: -40px;""><img src=""images/pattern_4.png"" style=""width: 234px; height: 230px; margin-top: -50px;""><div style=""display: flex; justify-content: space-between; margin-top: 33px;""><img src=""images/choice_trial_9.png"" style=""width: 408px; height: 417px; margin-left:608px;""></div></div>","null","delaylearn","learning","display_response","601eaeeb12586834759af824","AKbmToyQyMgqHoKb3rlbvOkLd843","","","","","","","","","","","","","","","","","chosen stimuli: images/choice_trial_9.png","","","",""
"html-keyboard-response","59","121165","0.0-26.0-2.0","","null","","null","delaylearn","learning","feedback_duration_window","601eaeeb12586834759af824","AKbmToyQyMgqHoKb3rlbvOkLd843","","","","","","","","","","","","","","","","","","7000","","",""
"html-keyboard-response","60","122670","0.0-26.0-3.0","","null","<div style='margin:auto;width: auto; font-size: 150%'><span style='font-weight: bold; font-size: 100px; color: red;'>0 points!</span><br><br></div>","null","delaylearn","learning","feedback_image_window","601eaeeb12586834759af824","AKbmToyQyMgqHoKb3rlbvOkLd843","","","","","","","","","","","","","","","","","","","","",""
"html-keyboard-response","61","124218","0.0-27.0","","null","<div style=""font-size:100px;"">+</div>","null","delaylearn","learning","ITI","601eaeeb12586834759af824","AKbmToyQyMgqHoKb3rlbvOkLd843","","","","","","","","","","","","","","","","","","","1545","",""
"html-keyboard-response","62","126124","0.0-28.0-0.0","","1903.5","<div style=""display: flex; flex-direction: column; align-items: center; margin-top: -40px;""><img src=""images/pattern_5.png"" style=""width: 234px; height: 230px; margin-top: -50px;""><div style=""display: flex; justify-content: space-between; margin-top: 33px;""><img src=""images/choice_trial_2.png"" style=""width: 408px; height: 417px; margin-right: 200px;""><img src=""images/choice_trial_11.png"" style=""width: 408px; height: 417px;""></div></div>","f","delaylearn","learning","trial","601eaeeb12586834759af824","AKbmToyQyMgqHoKb3rlbvOkLd843","3","images/choice_trial_2.png","images/choice_trial_11.png","images/pattern_5.png","j","j","750","2","11","4","1","12","0","0","2","60","","","","",""
"html-keyboard-response","63","127128","0.0-28.0-1.0","","null","<div style=""display: flex; flex-direction: column; align-items: center; margin-top: -40px;""><img src=""images/pattern_5.png"" style=""width: 234px; height: 230px; margin-top: -50px;""><div style=""display: flex; justify-content: space-between; margin-top: 33px;""><img src=""images/choice_trial_2.png"" style=""width: 408px; height: 417px; margin-right: 608px;""></div></div>","null","delaylearn","learning","display_response","601eaeeb12586834759af824","AKbmToyQyMgqHoKb3rlbvOkLd843","","","","","","","","","","","","","","","","","chosen stimuli: images/choice_trial_2.png","","","",""
"html-keyboard-response","64","127884","0.0-28.0-2.0","","null","","null","delaylearn","learning","feedback_duration_window","601eaeeb12586834759af824","AKbmToyQyMgqHoKb3rlbvOkLd843","","","","","","","","","","","","","","","","","","750","","",""
"html-keyboard-response","65","129400","0.0-28.0-3.0","","null","<div style='margin:auto;width: auto; font-size: 150%'><span style='font-weight: bold; font-size: 100px; color: red;'>0 points!</span><br><br></div>","null","delaylearn","learning","feedback_image_window","601eaeeb12586834759af824","AKbmToyQyMgqHoKb3rlbvOkLd843","","","","","","","","","","","","","","","","","","","","",""
"html-keyboard-response","66","131340","0.0-29.0","","null","<div style=""font-size:100px;"">+</div>","null","delaylearn","learning","ITI","601eaeeb12586834759af824","AKbmToyQyMgqHoKb3rlbvOkLd843","","","","","","","","","","","","","","","","","","","1930","",""
"html-keyboard-response","67","132764","0.0-30.0-0.0","","1423","<div style=""display: flex; flex-direction: column; align-items: center; margin-top: -40px;""><img src=""images/pattern_6.png"" style=""width: 234px; height: 230px; margin-top: -50px;""><div style=""display: flex; justify-content: space-between; margin-top: 33px;""><img src=""images/choice_trial_16.png"" style=""width: 408px; height: 417px; margin-right: 200px;""><img src=""images/choice_trial_3.png"" style=""width: 408px; height: 417px;""></div></div>","j","delaylearn","learning","trial","601eaeeb12586834759af824","AKbmToyQyMgqHoKb3rlbvOkLd843","3","images/choice_trial_16.png","images/choice_trial_3.png","images/pattern_6.png","j","f","750","16","3","5","0","13","0","1","3","70","","","","",""
"html-keyboard-response","68","133778","0.0-30.0-1.0","","null","<div style=""display: flex; flex-direction: column; align-items: center; margin-top: -40px;""><img src=""images/pattern_6.png"" style=""width: 234px; height: 230px; margin-top: -50px;""><div style=""display: flex; justify-content: space-between; margin-top: 33px;""><img src=""images/choice_trial_3.png"" style=""width: 408px; height: 417px; margin-left:608px;""></div></div>","null","delaylearn","learning","display_response","601eaeeb12586834759af824","AKbmToyQyMgqHoKb3rlbvOkLd843","","","","","","","","","","","","","","","","","chosen stimuli: images/choice_trial_3.png","","","",""
"html-keyboard-response","69","134535","0.0-30.0-2.0","","null","","null","delaylearn","learning","feedback_duration_window","601eaeeb12586834759af824","AKbmToyQyMgqHoKb3rlbvOkLd843","","","","","","","","","","","","","","","","","","750","","",""
"html-keyboard-response","70","136051","0.0-30.0-3.0","","null","<div style='margin:auto;width: auto; font-size: 150%'><span style='font-weight: bold; font-size: 100px; color: green;'>+10 points!</span><br><br></div>","null","delaylearn","learning","feedback_image_window","601eaeeb12586834759af824","AKbmToyQyMgqHoKb3rlbvOkLd843","","","","","","","","","","","","","","","","","","","","",""
"html-keyboard-response","71","136561","0.0-31.0-0.0","","null","","null","","","mood_trial_fixation","","","","","","","","","","","","","","","","","","","","","","",""
"lmdlab-html-vas-response","72","140634","0.0-31.0-1.0","","3057","How happy are you right now?","0.4930555555555556","delaylearn","learning","mood_trial","601eaeeb12586834759af824","AKbmToyQyMgqHoKb3rlbvOkLd843","","","","","","","","","","","","","","","","","","","","[""Very unhappy"",""Very happy""]",""
"html-keyboard-response","73","142498","0.0-32.0","","null","<div style=""font-size:100px;"">+</div>","null","delaylearn","learning","ITI","601eaeeb12586834759af824","AKbmToyQyMgqHoKb3rlbvOkLd843","","","","","","","","","","","","","","","","","","","1854","",""
"html-keyboard-response","74","144659","0.0-33.0-0.0","","2159","<div style=""display: flex; flex-direction: column; align-items: center; margin-top: -40px;""><img src=""images/pattern_1.png"" style=""width: 234px; height: 230px; margin-top: -50px;""><div style=""display: flex; justify-content: space-between; margin-top: 33px;""><img src=""images/choice_trial_8.png"" style=""width: 408px; height: 417px; margin-right: 200px;""><img src=""images/choice_trial_14.png"" style=""width: 408px; height: 417px;""></div></div>","f","delaylearn","learning","trial","601eaeeb12586834759af824","AKbmToyQyMgqHoKb3rlbvOkLd843","3","images/choice_trial_8.png","images/choice_trial_14.png","images/pattern_1.png","j","j","7000","8","14","1","1","14","0","0","8","70","","","","",""
"html-keyboard-response","75","145676","0.0-33.0-1.0","","null","<div style=""display: flex; flex-direction: column; align-items: center; margin-top: -40px;""><img src=""images/pattern_1.png"" style=""width: 234px; height: 230px; margin-top: -50px;""><div style=""display: flex; justify-content: space-between; margin-top: 33px;""><img src=""images/choice_trial_8.png"" style=""width: 408px; height: 417px; margin-right: 608px;""></div></div>","null","delaylearn","learning","display_response","601eaeeb12586834759af824","AKbmToyQyMgqHoKb3rlbvOkLd843","","","","","","","","","","","","","","","","","chosen stimuli: images/choice_trial_8.png","","","",""
"html-keyboard-response","76","152690","0.0-33.0-2.0","","null","","null","delaylearn","learning","feedback_duration_window","601eaeeb12586834759af824","AKbmToyQyMgqHoKb3rlbvOkLd843","","","","","","","","","","","","","","","","","","7000","","",""
"html-keyboard-response","77","154203","0.0-33.0-3.0","","null","<div style='margin:auto;width: auto; font-size: 150%'><span style='font-weight: bold; font-size: 100px; color: red;'>0 points!</span><br><br></div>","null","delaylearn","learning","feedback_image_window","601eaeeb12586834759af824","AKbmToyQyMgqHoKb3rlbvOkLd843","","","","","","","","","","","","","","","","","","","","",""
"html-keyboard-response","78","156265","0.0-34.0","","null","<div style=""font-size:100px;"">+</div>","null","delaylearn","learning","ITI","601eaeeb12586834759af824","AKbmToyQyMgqHoKb3rlbvOkLd843","","","","","","","","","","","","","","","","","","","2055","",""
"html-keyboard-response","79","157695","0.0-35.0-0.0","","1428.0999999642372","<div style=""display: flex; flex-direction: column; align-items: center; margin-top: -40px;""><img src=""images/pattern_3.png"" style=""width: 234px; height: 230px; margin-top: -50px;""><div style=""display: flex; justify-content: space-between; margin-top: 33px;""><img src=""images/choice_trial_10.png"" style=""width: 408px; height: 417px; margin-right: 200px;""><img src=""images/choice_trial_13.png"" style=""width: 408px; height: 417px;""></div></div>","j","delaylearn","learning","trial","601eaeeb12586834759af824","AKbmToyQyMgqHoKb3rlbvOkLd843","3","images/choice_trial_10.png","images/choice_trial_13.png","images/pattern_3.png","f","j","7000","10","13","2","1","15","1","0","13","70","","","","",""
"html-keyboard-response","80","158706","0.0-35.0-1.0","","null","<div style=""display: flex; flex-direction: column; align-items: center; margin-top: -40px;""><img src=""images/pattern_3.png"" style=""width: 234px; height: 230px; margin-top: -50px;""><div style=""display: flex; justify-content: space-between; margin-top: 33px;""><img src=""images/choice_trial_13.png"" style=""width: 408px; height: 417px; margin-left:608px;""></div></div>","null","delaylearn","learning","display_response","601eaeeb12586834759af824","AKbmToyQyMgqHoKb3rlbvOkLd843","","","","","","","","","","","","","","","","","chosen stimuli: images/choice_trial_13.png","","","",""
"html-keyboard-response","81","165711","0.0-35.0-2.0","","null","","null","delaylearn","learning","feedback_duration_window","601eaeeb12586834759af824","AKbmToyQyMgqHoKb3rlbvOkLd843","","","","","","","","","","","","","","","","","","7000","","",""
"html-keyboard-response","82","167221","0.0-35.0-3.0","","null","<div style='margin:auto;width: auto; font-size: 150%'><span style='font-weight: bold; font-size: 100px; color: red;'>0 points!</span><br><br></div>","null","delaylearn","learning","feedback_image_window","601eaeeb12586834759af824","AKbmToyQyMgqHoKb3rlbvOkLd843","","","","","","","","","","","","","","","","","","","","",""
"html-keyboard-response","83","169447","0.0-36.0","","null","<div style=""font-size:100px;"">+</div>","null","delaylearn","learning","ITI","601eaeeb12586834759af824","AKbmToyQyMgqHoKb3rlbvOkLd843","","","","","","","","","","","","","","","","","","","2219","",""
"html-keyboard-response","84","171720","0.0-37.0-0.0","","2271.600000023842","<div style=""display: flex; flex-direction: column; align-items: center; margin-top: -40px;""><img src=""images/pattern_5.png"" style=""width: 234px; height: 230px; margin-top: -50px;""><div style=""display: flex; justify-content: space-between; margin-top: 33px;""><img src=""images/choice_trial_11.png"" style=""width: 408px; height: 417px; margin-right: 200px;""><img src=""images/choice_trial_2.png"" style=""width: 408px; height: 417px;""></div></div>","j","delaylearn","learning","trial","601eaeeb12586834759af824","AKbmToyQyMgqHoKb3rlbvOkLd843","3","images/choice_trial_11.png","images/choice_trial_2.png","images/pattern_5.png","f","f","750","11","2","4","0","16","0","0","2","70","","","","",""
"html-keyboard-response","85","172724","0.0-37.0-1.0","","null","<div style=""display: flex; flex-direction: column; align-items: center; margin-top: -40px;""><img src=""images/pattern_5.png"" style=""width: 234px; height: 230px; margin-top: -50px;""><div style=""display: flex; justify-content: space-between; margin-top: 33px;""><img src=""images/choice_trial_2.png"" style=""width: 408px; height: 417px; margin-left:608px;""></div></div>","null","delaylearn","learning","display_response","601eaeeb12586834759af824","AKbmToyQyMgqHoKb3rlbvOkLd843","","","","","","","","","","","","","","","","","chosen stimuli: images/choice_trial_2.png","","","",""
"html-keyboard-response","86","173482","0.0-37.0-2.0","","null","","null","delaylearn","learning","feedback_duration_window","601eaeeb12586834759af824","AKbmToyQyMgqHoKb3rlbvOkLd843","","","","","","","","","","","","","","","","","","750","","",""
"html-keyboard-response","87","174999","0.0-37.0-3.0","","null","<div style='margin:auto;width: auto; font-size: 150%'><span style='font-weight: bold; font-size: 100px; color: red;'>0 points!</span><br><br></div>","null","delaylearn","learning","feedback_image_window","601eaeeb12586834759af824","AKbmToyQyMgqHoKb3rlbvOkLd843","","","","","","","","","","","","","","","","","","","","",""
"html-keyboard-response","88","175511","0.0-38.0-0.0","","null","","null","","","mood_trial_fixation","","","","","","","","","","","","","","","","","","","","","","",""
"lmdlab-html-vas-response","89","180452","0.0-38.0-1.0","","3937","How happy are you right now?","0.35","delaylearn","learning","mood_trial","601eaeeb12586834759af824","AKbmToyQyMgqHoKb3rlbvOkLd843","","","","","","","","","","","","","","","","","","","","[""Very unhappy"",""Very happy""]",""
"html-keyboard-response","90","182394","0.0-39.0","","null","<div style=""font-size:100px;"">+</div>","null","delaylearn","learning","ITI","601eaeeb12586834759af824","AKbmToyQyMgqHoKb3rlbvOkLd843","","","","","","","","","","","","","","","","","","","1936","",""
"html-keyboard-response","91","183648","0.0-40.0-0.0","","1251.699999988079","<div style=""display: flex; flex-direction: column; align-items: center; margin-top: -40px;""><img src=""images/pattern_6.png"" style=""width: 234px; height: 230px; margin-top: -50px;""><div style=""display: flex; justify-content: space-between; margin-top: 33px;""><img src=""images/choice_trial_16.png"" style=""width: 408px; height: 417px; margin-right: 200px;""><img src=""images/choice_trial_3.png"" style=""width: 408px; height: 417px;""></div></div>","j","delaylearn","learning","trial","601eaeeb12586834759af824","AKbmToyQyMgqHoKb3rlbvOkLd843","3","images/choice_trial_16.png","images/choice_trial_3.png","images/pattern_6.png","f","f","750","16","3","5","0","17","0","0","3","70","","","","",""
"html-keyboard-response","92","184660","0.0-40.0-1.0","","null","<div style=""display: flex; flex-direction: column; align-items: center; margin-top: -40px;""><img src=""images/pattern_6.png"" style=""width: 234px; height: 230px; margin-top: -50px;""><div style=""display: flex; justify-content: space-between; margin-top: 33px;""><img src=""images/choice_trial_3.png"" style=""width: 408px; height: 417px; margin-left:608px;""></div></div>","null","delaylearn","learning","display_response","601eaeeb12586834759af824","AKbmToyQyMgqHoKb3rlbvOkLd843","","","","","","","","","","","","","","","","","chosen stimuli: images/choice_trial_3.png","","","",""
"html-keyboard-response","93","185412","0.0-40.0-2.0","","null","","null","delaylearn","learning","feedback_duration_window","601eaeeb12586834759af824","AKbmToyQyMgqHoKb3rlbvOkLd843","","","","","","","","","","","","","","","","","","750","","",""
"html-keyboard-response","94","186926","0.0-40.0-3.0","","null","<div style='margin:auto;width: auto; font-size: 150%'><span style='font-weight: bold; font-size: 100px; color: red;'>0 points!</span><br><br></div>","null","delaylearn","learning","feedback_image_window","601eaeeb12586834759af824","AKbmToyQyMgqHoKb3rlbvOkLd843","","","","","","","","","","","","","","","","","","","","",""
"html-keyboard-response","95","188796","0.0-41.0","","null","<div style=""font-size:100px;"">+</div>","null","delaylearn","learning","ITI","601eaeeb12586834759af824","AKbmToyQyMgqHoKb3rlbvOkLd843","","","","","","","","","","","","","","","","","","","1854","",""
"html-keyboard-response","96","190087","0.0-42.0-0.0","","1288.300000011921","<div style=""display: flex; flex-direction: column; align-items: center; margin-top: -40px;""><img src=""images/pattern_4.png"" style=""width: 234px; height: 230px; margin-top: -50px;""><div style=""display: flex; justify-content: space-between; margin-top: 33px;""><img src=""images/choice_trial_9.png"" style=""width: 408px; height: 417px; margin-right: 200px;""><img src=""images/choice_trial_15.png"" style=""width: 408px; height: 417px;""></div></div>","j","delaylearn","learning","trial","601eaeeb12586834759af824","AKbmToyQyMgqHoKb3rlbvOkLd843","3","images/choice_trial_9.png","images/choice_trial_15.png","images/pattern_4.png","j","j","7000","9","15","3","1","18","1","1","15","80","","","","",""
"html-keyboard-response","97","191104","0.0-42.0-1.0","","null","<div style=""display: flex; flex-direction: column; align-items: center; margin-top: -40px;""><img src=""images/pattern_4.png"" style=""width: 234px; height: 230px; margin-top: -50px;""><div style=""display: flex; justify-content: space-between; margin-top: 33px;""><img src=""images/choice_trial_15.png"" style=""width: 408px; height: 417px; margin-left:608px;""></div></div>","null","delaylearn","learning","display_response","601eaeeb12586834759af824","AKbmToyQyMgqHoKb3rlbvOkLd843","","","","","","","","","","","","","","","","","chosen stimuli: images/choice_trial_15.png","","","",""
"html-keyboard-response","98","198111","0.0-42.0-2.0","","null","","null","delaylearn","learning","feedback_duration_window","601eaeeb12586834759af824","AKbmToyQyMgqHoKb3rlbvOkLd843","","","","","","","","","","","","","","","","","","7000","","",""
"html-keyboard-response","99","199624","0.0-42.0-3.0","","null","<div style='margin:auto;width: auto; font-size: 150%'><span style='font-weight: bold; font-size: 100px; color: green;'>+10 points!</span><br><br></div>","null","delaylearn","learning","feedback_image_window","601eaeeb12586834759af824","AKbmToyQyMgqHoKb3rlbvOkLd843","","","","","","","","","","","","","","","","","","","","",""
"html-keyboard-response","100","201742","0.0-43.0","","null","<div style=""font-size:100px;"">+</div>","null","delaylearn","learning","ITI","601eaeeb12586834759af824","AKbmToyQyMgqHoKb3rlbvOkLd843","","","","","","","","","","","","","","","","","","","2117","",""
"html-keyboard-response","101","204207","0.0-44.0-0.0","","2461.399999976158","<div style=""display: flex; flex-direction: column; align-items: center; margin-top: -40px;""><img src=""images/pattern_7.png"" style=""width: 234px; height: 230px; margin-top: -50px;""><div style=""display: flex; justify-content: space-between; margin-top: 33px;""><img src=""images/choice_trial_6.png"" style=""width: 408px; height: 417px; margin-right: 200px;""><img src=""images/choice_trial_12.png"" style=""width: 408px; height: 417px;""></div></div>","f","delaylearn","learning","trial","601eaeeb12586834759af824","AKbmToyQyMgqHoKb3rlbvOkLd843","3","images/choice_trial_6.png","images/choice_trial_12.png","images/pattern_7.png","j","f","750","6","12","6","0","19","1","0","6","80","","","","",""
"html-keyboard-response","102","205223","0.0-44.0-1.0","","null","<div style=""display: flex; flex-direction: column; align-items: center; margin-top: -40px;""><img src=""images/pattern_7.png"" style=""width: 234px; height: 230px; margin-top: -50px;""><div style=""display: flex; justify-content: space-between; margin-top: 33px;""><img src=""images/choice_trial_6.png"" style=""width: 408px; height: 417px; margin-right: 608px;""></div></div>","null","delaylearn","learning","display_response","601eaeeb12586834759af824","AKbmToyQyMgqHoKb3rlbvOkLd843","","","","","","","","","","","","","","","","","chosen stimuli: images/choice_trial_6.png","","","",""
"html-keyboard-response","103","205980","0.0-44.0-2.0","","null","","null","delaylearn","learning","feedback_duration_window","601eaeeb12586834759af824","AKbmToyQyMgqHoKb3rlbvOkLd843","","","","","","","","","","","","","","","","","","750","","",""
"html-keyboard-response","104","207492","0.0-44.0-3.0","","null","<div style='margin:auto;width: auto; font-size: 150%'><span style='font-weight: bold; font-size: 100px; color: red;'>0 points!</span><br><br></div>","null","delaylearn","learning","feedback_image_window","601eaeeb12586834759af824","AKbmToyQyMgqHoKb3rlbvOkLd843","","","","","","","","","","","","","","","","","","","","",""
"html-keyboard-response","105","209056","0.0-45.0","","null","<div style=""font-size:100px;"">+</div>","null","delaylearn","learning","ITI","601eaeeb12586834759af824","AKbmToyQyMgqHoKb3rlbvOkLd843","","","","","","","","","","","","","","","","","","","1548","",""
"html-keyboard-response","106","210644","0.0-46.0-0.0","","1584.8999999761581","<div style=""display: flex; flex-direction: column; align-items: center; margin-top: -40px;""><img src=""images/pattern_1.png"" style=""width: 234px; height: 230px; margin-top: -50px;""><div style=""display: flex; justify-content: space-between; margin-top: 33px;""><img src=""images/choice_trial_14.png"" style=""width: 408px; height: 417px; margin-right: 200px;""><img src=""images/choice_trial_8.png"" style=""width: 408px; height: 417px;""></div></div>","f","delaylearn","learning","trial","601eaeeb12586834759af824","AKbmToyQyMgqHoKb3rlbvOkLd843","3","images/choice_trial_14.png","images/choice_trial_8.png","images/pattern_1.png","f","f","7000","14","8","1","0","20","1","1","14","90","","","","",""
"html-keyboard-response","107","211654","0.0-46.0-1.0","","null","<div style=""display: flex; flex-direction: column; align-items: center; margin-top: -40px;""><img src=""images/pattern_1.png"" style=""width: 234px; height: 230px; margin-top: -50px;""><div style=""display: flex; justify-content: space-between; margin-top: 33px;""><img src=""images/choice_trial_14.png"" style=""width: 408px; height: 417px; margin-right: 608px;""></div></div>","null","delaylearn","learning","display_response","601eaeeb12586834759af824","AKbmToyQyMgqHoKb3rlbvOkLd843","","","","","","","","","","","","","","","","","chosen stimuli: images/choice_trial_14.png","","","",""
"html-keyboard-response","108","218659","0.0-46.0-2.0","","null","","null","delaylearn","learning","feedback_duration_window","601eaeeb12586834759af824","AKbmToyQyMgqHoKb3rlbvOkLd843","","","","","","","","","","","","","","","","","","7000","","",""
"html-keyboard-response","109","220174","0.0-46.0-3.0","","null","<div style='margin:auto;width: auto; font-size: 150%'><span style='font-weight: bold; font-size: 100px; color: green;'>+10 points!</span><br><br></div>","null","delaylearn","learning","feedback_image_window","601eaeeb12586834759af824","AKbmToyQyMgqHoKb3rlbvOkLd843","","","","","","","","","","","","","","","","","","","","",""
"html-keyboard-response","110","221856","0.0-47.0","","null","<div style=""font-size:100px;"">+</div>","null","delaylearn","learning","ITI","601eaeeb12586834759af824","AKbmToyQyMgqHoKb3rlbvOkLd843","","","","","","","","","","","","","","","","","","","1667","",""
"html-keyboard-response","111","223407","0.0-48.0-0.0","","1548.800000011921","<div style=""display: flex; flex-direction: column; align-items: center; margin-top: -40px;""><img src=""images/pattern_6.png"" style=""width: 234px; height: 230px; margin-top: -50px;""><div style=""display: flex; justify-content: space-between; margin-top: 33px;""><img src=""images/choice_trial_3.png"" style=""width: 408px; height: 417px; margin-right: 200px;""><img src=""images/choice_trial_16.png"" style=""width: 408px; height: 417px;""></div></div>","j","delaylearn","learning","trial","601eaeeb12586834759af824","AKbmToyQyMgqHoKb3rlbvOkLd843","3","images/choice_trial_3.png","images/choice_trial_16.png","images/pattern_6.png","j","j","750","3","16","5","1","21","1","1","16","100","","","","",""
"html-keyboard-response","112","224411","0.0-48.0-1.0","","null","<div style=""display: flex; flex-direction: column; align-items: center; margin-top: -40px;""><img src=""images/pattern_6.png"" style=""width: 234px; height: 230px; margin-top: -50px;""><div style=""display: flex; justify-content: space-between; margin-top: 33px;""><img src=""images/choice_trial_16.png"" style=""width: 408px; height: 417px; margin-left:608px;""></div></div>","null","delaylearn","learning","display_response","601eaeeb12586834759af824","AKbmToyQyMgqHoKb3rlbvOkLd843","","","","","","","","","","","","","","","","","chosen stimuli: images/choice_trial_16.png","","","",""
"html-keyboard-response","113","225168","0.0-48.0-2.0","","null","","null","delaylearn","learning","feedback_duration_window","601eaeeb12586834759af824","AKbmToyQyMgqHoKb3rlbvOkLd843","","","","","","","","","","","","","","","","","","750","","",""
"html-keyboard-response","114","226682","0.0-48.0-3.0","","null","<div style='margin:auto;width: auto; font-size: 150%'><span style='font-weight: bold; font-size: 100px; color: green;'>+10 points!</span><br><br></div>","null","delaylearn","learning","feedback_image_window","601eaeeb12586834759af824","AKbmToyQyMgqHoKb3rlbvOkLd843","","","","","","","","","","","","","","","","","","","","",""
"html-keyboard-response","115","228815","0.0-49.0","","null","<div style=""font-size:100px;"">+</div>","null","delaylearn","learning","ITI","601eaeeb12586834759af824","AKbmToyQyMgqHoKb3rlbvOkLd843","","","","","","","","","","","","","","","","","","","2123","",""
"html-keyboard-response","116","229824","0.0-50.0-0.0","","1005.6999999880791","<div style=""display: flex; flex-direction: column; align-items: center; margin-top: -40px;""><img src=""images/pattern_4.png"" style=""width: 234px; height: 230px; margin-top: -50px;""><div style=""display: flex; justify-content: space-between; margin-top: 33px;""><img src=""images/choice_trial_15.png"" style=""width: 408px; height: 417px; margin-right: 200px;""><img src=""images/choice_trial_9.png"" style=""width: 408px; height: 417px;""></div></div>","j","delaylearn","learning","trial","601eaeeb12586834759af824","AKbmToyQyMgqHoKb3rlbvOkLd843","3","images/choice_trial_15.png","images/choice_trial_9.png","images/pattern_4.png","f","f","7000","15","9","3","0","22","0","0","9","100","","","","",""
"html-keyboard-response","117","230827","0.0-50.0-1.0","","null","<div style=""display: flex; flex-direction: column; align-items: center; margin-top: -40px;""><img src=""images/pattern_4.png"" style=""width: 234px; height: 230px; margin-top: -50px;""><div style=""display: flex; justify-content: space-between; margin-top: 33px;""><img src=""images/choice_trial_9.png"" style=""width: 408px; height: 417px; margin-left:608px;""></div></div>","null","delaylearn","learning","display_response","601eaeeb12586834759af824","AKbmToyQyMgqHoKb3rlbvOkLd843","","","","","","","","","","","","","","","","","chosen stimuli: images/choice_trial_9.png","","","",""
"html-keyboard-response","118","237837","0.0-50.0-2.0","","null","","null","delaylearn","learning","feedback_duration_window","601eaeeb12586834759af824","AKbmToyQyMgqHoKb3rlbvOkLd843","","","","","","","","","","","","","","","","","","7000","","",""
"html-keyboard-response","119","239341","0.0-50.0-3.0","","null","<div style='margin:auto;width: auto; font-size: 150%'><span style='font-weight: bold; font-size: 100px; color: red;'>0 points!</span><br><br></div>","null","delaylearn","learning","feedback_image_window","601eaeeb12586834759af824","AKbmToyQyMgqHoKb3rlbvOkLd843","","","","","","","","","","","","","","","","","","","","",""
"html-keyboard-response","120","239848","0.0-51.0-0.0","","null","","null","","","mood_trial_fixation","","","","","","","","","","","","","","","","","","","","","","",""
"lmdlab-html-vas-response","121","263893","0.0-51.0-1.0","","null","How happy are you right now?","","delaylearn","learning","mood_trial","601eaeeb12586834759af824","AKbmToyQyMgqHoKb3rlbvOkLd843","","","","","","","","","","","","","","","","","","","","[""Very unhappy"",""Very happy""]",""
"html-keyboard-response","122","265866","0.0-52.0","","null","<div style=""font-size:100px;"">+</div>","null","delaylearn","learning","ITI","601eaeeb12586834759af824","AKbmToyQyMgqHoKb3rlbvOkLd843","","","","","","","","","","","","","","","","","","","1961","",""
"html-keyboard-response","123","266792","0.0-53.0-0.0","","923.3999999761581","<div style=""display: flex; flex-direction: column; align-items: center; margin-top: -40px;""><img src=""images/pattern_7.png"" style=""width: 234px; height: 230px; margin-top: -50px;""><div style=""display: flex; justify-content: space-between; margin-top: 33px;""><img src=""images/choice_trial_12.png"" style=""width: 408px; height: 417px; margin-right: 200px;""><img src=""images/choice_trial_6.png"" style=""width: 408px; height: 417px;""></div></div>","j","delaylearn","learning","trial","601eaeeb12586834759af824","AKbmToyQyMgqHoKb3rlbvOkLd843","3","images/choice_trial_12.png","images/choice_trial_6.png","images/pattern_7.png","j","j","750","12","6","6","1","23","1","1","6","110","","","","",""
"html-keyboard-response","124","267799","0.0-53.0-1.0","","null","<div style=""display: flex; flex-direction: column; align-items: center; margin-top: -40px;""><img src=""images/pattern_7.png"" style=""width: 234px; height: 230px; margin-top: -50px;""><div style=""display: flex; justify-content: space-between; margin-top: 33px;""><img src=""images/choice_trial_6.png"" style=""width: 408px; height: 417px; margin-left:608px;""></div></div>","null","delaylearn","learning","display_response","601eaeeb12586834759af824","AKbmToyQyMgqHoKb3rlbvOkLd843","","","","","","","","","","","","","","","","","chosen stimuli: images/choice_trial_6.png","","","",""
"html-keyboard-response","125","268554","0.0-53.0-2.0","","null","","null","delaylearn","learning","feedback_duration_window","601eaeeb12586834759af824","AKbmToyQyMgqHoKb3rlbvOkLd843","","","","","","","","","","","","","","","","","","750","","",""
"html-keyboard-response","126","270072","0.0-53.0-3.0","","null","<div style='margin:auto;width: auto; font-size: 150%'><span style='font-weight: bold; font-size: 100px; color: green;'>+10 points!</span><br><br></div>","null","delaylearn","learning","feedback_image_window","601eaeeb12586834759af824","AKbmToyQyMgqHoKb3rlbvOkLd843","","","","","","","","","","","","","","","","","","","","",""
"html-keyboard-response","127","272253","0.0-54.0","","null","<div style=""font-size:100px;"">+</div>","null","delaylearn","learning","ITI","601eaeeb12586834759af824","AKbmToyQyMgqHoKb3rlbvOkLd843","","","","","","","","","","","","","","","","","","","2176","",""
"html-keyboard-response","128","274063","0.0-55.0-0.0","","1807.9000000357628","<div style=""display: flex; flex-direction: column; align-items: center; margin-top: -40px;""><img src=""images/pattern_1.png"" style=""width: 234px; height: 230px; margin-top: -50px;""><div style=""display: flex; justify-content: space-between; margin-top: 33px;""><img src=""images/choice_trial_8.png"" style=""width: 408px; height: 417px; margin-right: 200px;""><img src=""images/choice_trial_14.png"" style=""width: 408px; height: 417px;""></div></div>","j","delaylearn","learning","trial","601eaeeb12586834759af824","AKbmToyQyMgqHoKb3rlbvOkLd843","3","images/choice_trial_8.png","images/choice_trial_14.png","images/pattern_1.png","f","j","7000","8","14","1","1","24","1","0","14","110","","","","",""
"html-keyboard-response","129","275066","0.0-55.0-1.0","","null","<div style=""display: flex; flex-direction: column; align-items: center; margin-top: -40px;""><img src=""images/pattern_1.png"" style=""width: 234px; height: 230px; margin-top: -50px;""><div style=""display: flex; justify-content: space-between; margin-top: 33px;""><img src=""images/choice_trial_14.png"" style=""width: 408px; height: 417px; margin-left:608px;""></div></div>","null","delaylearn","learning","display_response","601eaeeb12586834759af824","AKbmToyQyMgqHoKb3rlbvOkLd843","","","","","","","","","","","","","","","","","chosen stimuli: images/choice_trial_14.png","","","",""
"html-keyboard-response","130","282074","0.0-55.0-2.0","","null","","null","delaylearn","learning","feedback_duration_window","601eaeeb12586834759af824","AKbmToyQyMgqHoKb3rlbvOkLd843","","","","","","","","","","","","","","","","","","7000","","",""
"html-keyboard-response","131","283579","0.0-55.0-3.0","","null","<div style='margin:auto;width: auto; font-size: 150%'><span style='font-weight: bold; font-size: 100px; color: red;'>0 points!</span><br><br></div>","null","delaylearn","learning","feedback_image_window","601eaeeb12586834759af824","AKbmToyQyMgqHoKb3rlbvOkLd843","","","","","","","","","","","","","","","","","","","","",""
"html-keyboard-response","132","285686","0.0-56.0","","null","<div style=""font-size:100px;"">+</div>","null","delaylearn","learning","ITI","601eaeeb12586834759af824","AKbmToyQyMgqHoKb3rlbvOkLd843","","","","","","","","","","","","","","","","","","","2097","",""
"html-keyboard-response","133","287856","0.0-57.0-0.0","","2167.399999976158","<div style=""display: flex; flex-direction: column; align-items: center; margin-top: -40px;""><img src=""images/pattern_5.png"" style=""width: 234px; height: 230px; margin-top: -50px;""><div style=""display: flex; justify-content: space-between; margin-top: 33px;""><img src=""images/choice_trial_2.png"" style=""width: 408px; height: 417px; margin-right: 200px;""><img src=""images/choice_trial_11.png"" style=""width: 408px; height: 417px;""></div></div>","j","delaylearn","learning","trial","601eaeeb12586834759af824","AKbmToyQyMgqHoKb3rlbvOkLd843","3","images/choice_trial_2.png","images/choice_trial_11.png","images/pattern_5.png","j","j","750","2","11","4","1","25","1","1","11","120","","","","",""
"html-keyboard-response","134","288871","0.0-57.0-1.0","","null","<div style=""display: flex; flex-direction: column; align-items: center; margin-top: -40px;""><img src=""images/pattern_5.png"" style=""width: 234px; height: 230px; margin-top: -50px;""><div style=""display: flex; justify-content: space-between; margin-top: 33px;""><img src=""images/choice_trial_11.png"" style=""width: 408px; height: 417px; margin-left:608px;""></div></div>","null","delaylearn","learning","display_response","601eaeeb12586834759af824","AKbmToyQyMgqHoKb3rlbvOkLd843","","","","","","","","","","","","","","","","","chosen stimuli: images/choice_trial_11.png","","","",""
"html-keyboard-response","135","289629","0.0-57.0-2.0","","null","","null","delaylearn","learning","feedback_duration_window","601eaeeb12586834759af824","AKbmToyQyMgqHoKb3rlbvOkLd843","","","","","","","","","","","","","","","","","","750","","",""
"html-keyboard-response","136","291144","0.0-57.0-3.0","","null","<div style='margin:auto;width: auto; font-size: 150%'><span style='font-weight: bold; font-size: 100px; color: green;'>+10 points!</span><br><br></div>","null","delaylearn","learning","feedback_image_window","601eaeeb12586834759af824","AKbmToyQyMgqHoKb3rlbvOkLd843","","","","","","","","","","","","","","","","","","","","",""
"html-keyboard-response","137","293339","0.0-58.0","","null","<div style=""font-size:100px;"">+</div>","null","delaylearn","learning","ITI","601eaeeb12586834759af824","AKbmToyQyMgqHoKb3rlbvOkLd843","","","","","","","","","","","","","","","","","","","2191","",""
"html-keyboard-response","138","294666","0.0-59.0-0.0","","1323.199999988079","<div style=""display: flex; flex-direction: column; align-items: center; margin-top: -40px;""><img src=""images/pattern_3.png"" style=""width: 234px; height: 230px; margin-top: -50px;""><div style=""display: flex; justify-content: space-between; margin-top: 33px;""><img src=""images/choice_trial_10.png"" style=""width: 408px; height: 417px; margin-right: 200px;""><img src=""images/choice_trial_13.png"" style=""width: 408px; height: 417px;""></div></div>","f","delaylearn","learning","trial","601eaeeb12586834759af824","AKbmToyQyMgqHoKb3rlbvOkLd843","3","images/choice_trial_10.png","images/choice_trial_13.png","images/pattern_3.png","j","j","7000","10","13","2","1","26","0","0","10","120","","","","",""
"html-keyboard-response","139","295672","0.0-59.0-1.0","","null","<div style=""display: flex; flex-direction: column; align-items: center; margin-top: -40px;""><img src=""images/pattern_3.png"" style=""width: 234px; height: 230px; margin-top: -50px;""><div style=""display: flex; justify-content: space-between; margin-top: 33px;""><img src=""images/choice_trial_10.png"" style=""width: 408px; height: 417px; margin-right: 608px;""></div></div>","null","delaylearn","learning","display_response","601eaeeb12586834759af824","AKbmToyQyMgqHoKb3rlbvOkLd843","","","","","","","","","","","","","","","","","chosen stimuli: images/choice_trial_10.png","","","",""
"html-keyboard-response","140","302686","0.0-59.0-2.0","","null","","null","delaylearn","learning","feedback_duration_window","601eaeeb12586834759af824","AKbmToyQyMgqHoKb3rlbvOkLd843","","","","","","","","","","","","","","","","","","7000","","",""
"html-keyboard-response","141","304201","0.0-59.0-3.0","","null","<div style='margin:auto;width: auto; font-size: 150%'><span style='font-weight: bold; font-size: 100px; color: red;'>0 points!</span><br><br></div>","null","delaylearn","learning","feedback_image_window","601eaeeb12586834759af824","AKbmToyQyMgqHoKb3rlbvOkLd843","","","","","","","","","","","","","","","","","","","","",""
"lmdlab-html-vas-response","142","309254","0.0-60.0-0.0","","3544","*How <b><u>confident</u></b> are you feeling about your answers at this moment?*","0.38055555555555554","rewlearn","rate_confidence","","601eaeeb12586834759af824","AKbmToyQyMgqHoKb3rlbvOkLd843","","","","","","","","","","","","","","","","","","","","[""No confidence"",""Complete confidence""]",""
"lmdlab-rest-trial-limit","143","327032","0.0-60.0-1.0","","16271.800000011921","<div style=""font-size:40px;""><b>Please take a break!</b><br><br><br><br><p>Great work: you earned 120 points.<br><br><br><p>You have completed part(s) 1 of 5.<br><br><br><br>When you are ready to continue<br><br><br>please click the button.</p><br><br>","0","delaylearn","learning","break","601eaeeb12586834759af824","AKbmToyQyMgqHoKb3rlbvOkLd843","","","","","","","","","","","","","","","","","","","","","0"
"html-keyboard-response","144","330044","0.0-60.0-2.0","","null","<div style=""font-size:100px;"">+</div>","null","delaylearn","learning","pre_fixation","601eaeeb12586834759af824","","","","","","","","","","","","","","","","","","","","","",""
"lmdlab-html-vas-response","145","334473","0.0-60.0-3.0-0.0","","3420","How happy are you right now?","0.5736111111111111","delaylearn","learning","mood_baseline","601eaeeb12586834759af824","AKbmToyQyMgqHoKb3rlbvOkLd843","","","","","","","","","","","","","","","","","","","","[""Very unhappy"",""Very happy""]",""
"html-keyboard-response","146","335976","0.0-60.0-3.0-1.0","","null","","null","","","mood_baseline_fixation","","","","","","","","","","","","","","","","","","","","","","",""
"html-keyboard-response","147","338275","0.0-61.0","","null","<div style=""font-size:100px;"">+</div>","null","delaylearn","learning","ITI","601eaeeb12586834759af824","AKbmToyQyMgqHoKb3rlbvOkLd843","","","","","","","","","","","","","","","","","","","2288","",""
"html-keyboard-response","148","340082","0.0-62.0-0.0","","1803.0999999642372","<div style=""display: flex; flex-direction: column; align-items: center; margin-top: -40px;""><img src=""images/pattern_7.png"" style=""width: 234px; height: 230px; margin-top: -50px;""><div style=""display: flex; justify-content: space-between; margin-top: 33px;""><img src=""images/choice_trial_12.png"" style=""width: 408px; height: 417px; margin-right: 200px;""><img src=""images/choice_trial_6.png"" style=""width: 408px; height: 417px;""></div></div>","j","delaylearn","learning","trial","601eaeeb12586834759af824","AKbmToyQyMgqHoKb3rlbvOkLd843","3","images/choice_trial_12.png","images/choice_trial_6.png","images/pattern_7.png","j","j","750","12","6","6","1","27","1","1","6","130","","","","",""
"html-keyboard-response","149","341087","0.0-62.0-1.0","","null","<div style=""display: flex; flex-direction: column; align-items: center; margin-top: -40px;""><img src=""images/pattern_7.png"" style=""width: 234px; height: 230px; margin-top: -50px;""><div style=""display: flex; justify-content: space-between; margin-top: 33px;""><img src=""images/choice_trial_6.png"" style=""width: 408px; height: 417px; margin-left:608px;""></div></div>","null","delaylearn","learning","display_response","601eaeeb12586834759af824","AKbmToyQyMgqHoKb3rlbvOkLd843","","","","","","","","","","","","","","","","","chosen stimuli: images/choice_trial_6.png","","","",""
"html-keyboard-response","150","341854","0.0-62.0-2.0","","null","","null","delaylearn","learning","feedback_duration_window","601eaeeb12586834759af824","AKbmToyQyMgqHoKb3rlbvOkLd843","","","","","","","","","","","","","","","","","","750","","",""
"html-keyboard-response","151","343363","0.0-62.0-3.0","","null","<div style='margin:auto;width: auto; font-size: 150%'><span style='font-weight: bold; font-size: 100px; color: green;'>+10 points!</span><br><br></div>","null","delaylearn","learning","feedback_image_window","601eaeeb12586834759af824","AKbmToyQyMgqHoKb3rlbvOkLd843","","","","","","","","","","","","","","","","","","","","",""
"html-keyboard-response","152","343875","0.0-63.0-0.0","","null","","null","","","mood_trial_fixation","","","","","","","","","","","","","","","","","","","","","","",""
"lmdlab-html-vas-response","153","347837","0.0-63.0-1.0","","2951","How happy are you right now?","0.6208333333333333","delaylearn","learning","mood_trial","601eaeeb12586834759af824","AKbmToyQyMgqHoKb3rlbvOkLd843","","","","","","","","","","","","","","","","","","","","[""Very unhappy"",""Very happy""]",""
"html-keyboard-response","154","350114","0.0-64.0","","null","<div style=""font-size:100px;"">+</div>","null","delaylearn","learning","ITI","601eaeeb12586834759af824","AKbmToyQyMgqHoKb3rlbvOkLd843","","","","","","","","","","","","","","","","","","","2275","",""
"html-keyboard-response","155","352914","0.0-65.0-0.0","","2796.899999976158","<div style=""display: flex; flex-direction: column; align-items: center; margin-top: -40px;""><img src=""images/pattern_1.png"" style=""width: 234px; height: 230px; margin-top: -50px;""><div style=""display: flex; justify-content: space-between; margin-top: 33px;""><img src=""images/choice_trial_14.png"" style=""width: 408px; height: 417px; margin-right: 200px;""><img src=""images/choice_trial_8.png"" style=""width: 408px; height: 417px;""></div></div>","j","delaylearn","learning","trial","601eaeeb12586834759af824","AKbmToyQyMgqHoKb3rlbvOkLd843","3","images/choice_trial_14.png","images/choice_trial_8.png","images/pattern_1.png","f","f","7000","14","8","1","0","28","0","0","8","130","","","","",""
"html-keyboard-response","156","353928","0.0-65.0-1.0","","null","<div style=""display: flex; flex-direction: column; align-items: center; margin-top: -40px;""><img src=""images/pattern_1.png"" style=""width: 234px; height: 230px; margin-top: -50px;""><div style=""display: flex; justify-content: space-between; margin-top: 33px;""><img src=""images/choice_trial_8.png"" style=""width: 408px; height: 417px; margin-left:608px;""></div></div>","null","delaylearn","learning","display_response","601eaeeb12586834759af824","AKbmToyQyMgqHoKb3rlbvOkLd843","","","","","","","","","","","","","","","","","chosen stimuli: images/choice_trial_8.png","","","",""
"html-keyboard-response","157","360935","0.0-65.0-2.0","","null","","null","delaylearn","learning","feedback_duration_window","601eaeeb12586834759af824","AKbmToyQyMgqHoKb3rlbvOkLd843","","","","","","","","","","","","","","","","","","7000","","",""
"html-keyboard-response","158","362446","0.0-65.0-3.0","","null","<div style='margin:auto;width: auto; font-size: 150%'><span style='font-weight: bold; font-size: 100px; color: red;'>0 points!</span><br><br></div>","null","delaylearn","learning","feedback_image_window","601eaeeb12586834759af824","AKbmToyQyMgqHoKb3rlbvOkLd843","","","","","","","","","","","","","","","","","","","","",""
"html-keyboard-response","159","364253","0.0-66.0","","null","<div style=""font-size:100px;"">+</div>","null","delaylearn","learning","ITI","601eaeeb12586834759af824","AKbmToyQyMgqHoKb3rlbvOkLd843","","","","","","","","","","","","","","","","","","","1802","",""
"html-keyboard-response","160","366681","0.0-67.0-0.0","","2424.7000000476837","<div style=""display: flex; flex-direction: column; align-items: center; margin-top: -40px;""><img src=""images/pattern_5.png"" style=""width: 234px; height: 230px; margin-top: -50px;""><div style=""display: flex; justify-content: space-between; margin-top: 33px;""><img src=""images/choice_trial_11.png"" style=""width: 408px; height: 417px; margin-right: 200px;""><img src=""images/choice_trial_2.png"" style=""width: 408px; height: 417px;""></div></div>","f","delaylearn","learning","trial","601eaeeb12586834759af824","AKbmToyQyMgqHoKb3rlbvOkLd843","3","images/choice_trial_11.png","images/choice_trial_2.png","images/pattern_5.png","f","f","750","11","2","4","0","29","1","1","11","140","","","","",""
"html-keyboard-response","161","367699","0.0-67.0-1.0","","null","<div style=""display: flex; flex-direction: column; align-items: center; margin-top: -40px;""><img src=""images/pattern_5.png"" style=""width: 234px; height: 230px; margin-top: -50px;""><div style=""display: flex; justify-content: space-between; margin-top: 33px;""><img src=""images/choice_trial_11.png"" style=""width: 408px; height: 417px; margin-right: 608px;""></div></div>","null","delaylearn","learning","display_response","601eaeeb12586834759af824","AKbmToyQyMgqHoKb3rlbvOkLd843","","","","","","","","","","","","","","","","","chosen stimuli: images/choice_trial_11.png","","","",""
"html-keyboard-response","162","368459","0.0-67.0-2.0","","null","","null","delaylearn","learning","feedback_duration_window","601eaeeb12586834759af824","AKbmToyQyMgqHoKb3rlbvOkLd843","","","","","","","","","","","","","","","","","","750","","",""
"html-keyboard-response","163","369974","0.0-67.0-3.0","","null","<div style='margin:auto;width: auto; font-size: 150%'><span style='font-weight: bold; font-size: 100px; color: green;'>+10 points!</span><br><br></div>","null","delaylearn","learning","feedback_image_window","601eaeeb12586834759af824","AKbmToyQyMgqHoKb3rlbvOkLd843","","","","","","","","","","","","","","","","","","","","",""
"html-keyboard-response","164","372212","0.0-68.0","","null","<div style=""font-size:100px;"">+</div>","null","delaylearn","learning","ITI","601eaeeb12586834759af824","AKbmToyQyMgqHoKb3rlbvOkLd843","","","","","","","","","","","","","","","","","","","2222","",""
"html-keyboard-response","165","374773","0.0-69.0-0.0","","2557.899999976158","<div style=""display: flex; flex-direction: column; align-items: center; margin-top: -40px;""><img src=""images/pattern_6.png"" style=""width: 234px; height: 230px; margin-top: -50px;""><div style=""display: flex; justify-content: space-between; margin-top: 33px;""><img src=""images/choice_trial_3.png"" style=""width: 408px; height: 417px; margin-right: 200px;""><img src=""images/choice_trial_16.png"" style=""width: 408px; height: 417px;""></div></div>","j","delaylearn","learning","trial","601eaeeb12586834759af824","AKbmToyQyMgqHoKb3rlbvOkLd843","3","images/choice_trial_3.png","images/choice_trial_16.png","images/pattern_6.png","j","j","750","3","16","5","1","30","1","1","16","150","","","","",""
"html-keyboard-response","166","375781","0.0-69.0-1.0","","null","<div style=""display: flex; flex-direction: column; align-items: center; margin-top: -40px;""><img src=""images/pattern_6.png"" style=""width: 234px; height: 230px; margin-top: -50px;""><div style=""display: flex; justify-content: space-between; margin-top: 33px;""><img src=""images/choice_trial_16.png"" style=""width: 408px; height: 417px; margin-left:608px;""></div></div>","null","delaylearn","learning","display_response","601eaeeb12586834759af824","AKbmToyQyMgqHoKb3rlbvOkLd843","","","","","","","","","","","","","","","","","chosen stimuli: images/choice_trial_16.png","","","",""
"html-keyboard-response","167","376538","0.0-69.0-2.0","","null","","null","delaylearn","learning","feedback_duration_window","601eaeeb12586834759af824","AKbmToyQyMgqHoKb3rlbvOkLd843","","","","","","","","","","","","","","","","","","750","","",""
"html-keyboard-response","168","378042","0.0-69.0-3.0","","null","<div style='margin:auto;width: auto; font-size: 150%'><span style='font-weight: bold; font-size: 100px; color: green;'>+10 points!</span><br><br></div>","null","delaylearn","learning","feedback_image_window","601eaeeb12586834759af824","AKbmToyQyMgqHoKb3rlbvOkLd843","","","","","","","","","","","","","","","","","","","","",""
"html-keyboard-response","169","378555","0.0-70.0-0.0","","null","","null","","","mood_trial_fixation","","","","","","","","","","","","","","","","","","","","","","",""
"lmdlab-html-vas-response","170","382914","0.0-70.0-1.0","","3343","How happy are you right now?","0.6472222222222223","delaylearn","learning","mood_trial","601eaeeb12586834759af824","AKbmToyQyMgqHoKb3rlbvOkLd843","","","","","","","","","","","","","","","","","","","","[""Very unhappy"",""Very happy""]",""
"html-keyboard-response","171","384627","0.0-71.0","","null","<div style=""font-size:100px;"">+</div>","null","delaylearn","learning","ITI","601eaeeb12586834759af824","AKbmToyQyMgqHoKb3rlbvOkLd843","","","","","","","","","","","","","","","","","","","1709","",""
"html-keyboard-response","172","386314","0.0-72.0-0.0","","1683.6000000238419","<div style=""display: flex; flex-direction: column; align-items: center; margin-top: -40px;""><img src=""images/pattern_4.png"" style=""width: 234px; height: 230px; margin-top: -50px;""><div style=""display: flex; justify-content: space-between; margin-top: 33px;""><img src=""images/choice_trial_9.png"" style=""width: 408px; height: 417px; margin-right: 200px;""><img src=""images/choice_trial_15.png"" style=""width: 408px; height: 417px;""></div></div>","j","delaylearn","learning","trial","601eaeeb12586834759af824","AKbmToyQyMgqHoKb3rlbvOkLd843","3","images/choice_trial_9.png","images/choice_trial_15.png","images/pattern_4.png","j","j","7000","9","15","3","1","31","1","1","15","160","","","","",""
"html-keyboard-response","173","387317","0.0-72.0-1.0","","null","<div style=""display: flex; flex-direction: column; align-items: center; margin-top: -40px;""><img src=""images/pattern_4.png"" style=""width: 234px; height: 230px; margin-top: -50px;""><div style=""display: flex; justify-content: space-between; margin-top: 33px;""><img src=""images/choice_trial_15.png"" style=""width: 408px; height: 417px; margin-left:608px;""></div></div>","null","delaylearn","learning","display_response","601eaeeb12586834759af824","AKbmToyQyMgqHoKb3rlbvOkLd843","","","","","","","","","","","","","","","","","chosen stimuli: images/choice_trial_15.png","","","",""
"html-keyboard-response","174","394330","0.0-72.0-2.0","","null","","null","delaylearn","learning","feedback_duration_window","601eaeeb12586834759af824","AKbmToyQyMgqHoKb3rlbvOkLd843","","","","","","","","","","","","","","","","","","7000","","",""
"html-keyboard-response","175","395849","0.0-72.0-3.0","","null","<div style='margin:auto;width: auto; font-size: 150%'><span style='font-weight: bold; font-size: 100px; color: green;'>+10 points!</span><br><br></div>","null","delaylearn","learning","feedback_image_window","601eaeeb12586834759af824","AKbmToyQyMgqHoKb3rlbvOkLd843","","","","","","","","","","","","","","","","","","","","",""
"html-keyboard-response","176","397566","0.0-73.0","","null","<div style=""font-size:100px;"">+</div>","null","delaylearn","learning","ITI","601eaeeb12586834759af824","AKbmToyQyMgqHoKb3rlbvOkLd843","","","","","","","","","","","","","","","","","","","1704","",""
"html-keyboard-response","177","399692","0.0-74.0-0.0","","2123","<div style=""display: flex; flex-direction: column; align-items: center; margin-top: -40px;""><img src=""images/pattern_3.png"" style=""width: 234px; height: 230px; margin-top: -50px;""><div style=""display: flex; justify-content: space-between; margin-top: 33px;""><img src=""images/choice_trial_10.png"" style=""width: 408px; height: 417px; margin-right: 200px;""><img src=""images/choice_trial_13.png"" style=""width: 408px; height: 417px;""></div></div>","j","delaylearn","learning","trial","601eaeeb12586834759af824","AKbmToyQyMgqHoKb3rlbvOkLd843","3","images/choice_trial_10.png","images/choice_trial_13.png","images/pattern_3.png","j","j","7000","10","13","2","1","32","1","1","13","170","","","","",""
"html-keyboard-response","178","400700","0.0-74.0-1.0","","null","<div style=""display: flex; flex-direction: column; align-items: center; margin-top: -40px;""><img src=""images/pattern_3.png"" style=""width: 234px; height: 230px; margin-top: -50px;""><div style=""display: flex; justify-content: space-between; margin-top: 33px;""><img src=""images/choice_trial_13.png"" style=""width: 408px; height: 417px; margin-left:608px;""></div></div>","null","delaylearn","learning","display_response","601eaeeb12586834759af824","AKbmToyQyMgqHoKb3rlbvOkLd843","","","","","","","","","","","","","","","","","chosen stimuli: images/choice_trial_13.png","","","",""
"html-keyboard-response","179","407711","0.0-74.0-2.0","","null","","null","delaylearn","learning","feedback_duration_window","601eaeeb12586834759af824","AKbmToyQyMgqHoKb3rlbvOkLd843","","","","","","","","","","","","","","","","","","7000","","",""
"html-keyboard-response","180","409225","0.0-74.0-3.0","","null","<div style='margin:auto;width: auto; font-size: 150%'><span style='font-weight: bold; font-size: 100px; color: green;'>+10 points!</span><br><br></div>","null","delaylearn","learning","feedback_image_window","601eaeeb12586834759af824","AKbmToyQyMgqHoKb3rlbvOkLd843","","","","","","","","","","","","","","","","","","","","",""
"html-keyboard-response","181","411385","0.0-75.0","","null","<div style=""font-size:100px;"">+</div>","null","delaylearn","learning","ITI","601eaeeb12586834759af824","AKbmToyQyMgqHoKb3rlbvOkLd843","","","","","","","","","","","","","","","","","","","2156","",""
"html-keyboard-response","182","412779","0.0-76.0-0.0","","1390.5999999642372","<div style=""display: flex; flex-direction: column; align-items: center; margin-top: -40px;""><img src=""images/pattern_5.png"" style=""width: 234px; height: 230px; margin-top: -50px;""><div style=""display: flex; justify-content: space-between; margin-top: 33px;""><img src=""images/choice_trial_11.png"" style=""width: 408px; height: 417px; margin-right: 200px;""><img src=""images/choice_trial_2.png"" style=""width: 408px; height: 417px;""></div></div>","f","delaylearn","learning","trial","601eaeeb12586834759af824","AKbmToyQyMgqHoKb3rlbvOkLd843","3","images/choice_trial_11.png","images/choice_trial_2.png","images/pattern_5.png","j","f","750","11","2","4","0","33","1","0","11","170","","","","",""
"html-keyboard-response","183","413791","0.0-76.0-1.0","","null","<div style=""display: flex; flex-direction: column; align-items: center; margin-top: -40px;""><img src=""images/pattern_5.png"" style=""width: 234px; height: 230px; margin-top: -50px;""><div style=""display: flex; justify-content: space-between; margin-top: 33px;""><img src=""images/choice_trial_11.png"" style=""width: 408px; height: 417px; margin-right: 608px;""></div></div>","null","delaylearn","learning","display_response","601eaeeb12586834759af824","AKbmToyQyMgqHoKb3rlbvOkLd843","","","","","","","","","","","","","","","","","chosen stimuli: images/choice_trial_11.png","","","",""
"html-keyboard-response","184","414553","0.0-76.0-2.0","","null","","null","delaylearn","learning","feedback_duration_window","601eaeeb12586834759af824","AKbmToyQyMgqHoKb3rlbvOkLd843","","","","","","","","","","","","","","","","","","750","","",""
"html-keyboard-response","185","416069","0.0-76.0-3.0","","null","<div style='margin:auto;width: auto; font-size: 150%'><span style='font-weight: bold; font-size: 100px; color: red;'>0 points!</span><br><br></div>","null","delaylearn","learning","feedback_image_window","601eaeeb12586834759af824","AKbmToyQyMgqHoKb3rlbvOkLd843","","","","","","","","","","","","","","","","","","","","",""
"html-keyboard-response","186","417662","0.0-77.0","","null","<div style=""font-size:100px;"">+</div>","null","delaylearn","learning","ITI","601eaeeb12586834759af824","AKbmToyQyMgqHoKb3rlbvOkLd843","","","","","","","","","","","","","","","","","","","1579","",""
"html-keyboard-response","187","420590","0.0-78.0-0.0","","2926.5","<div style=""display: flex; flex-direction: column; align-items: center; margin-top: -40px;""><img src=""images/pattern_1.png"" style=""width: 234px; height: 230px; margin-top: -50px;""><div style=""display: flex; justify-content: space-between; margin-top: 33px;""><img src=""images/choice_trial_14.png"" style=""width: 408px; height: 417px; margin-right: 200px;""><img src=""images/choice_trial_8.png"" style=""width: 408px; height: 417px;""></div></div>","j","delaylearn","learning","trial","601eaeeb12586834759af824","AKbmToyQyMgqHoKb3rlbvOkLd843","3","images/choice_trial_14.png","images/choice_trial_8.png","images/pattern_1.png","f","f","7000","14","8","1","0","34","0","0","8","170","","","","",""
"html-keyboard-response","188","421597","0.0-78.0-1.0","","null","<div style=""display: flex; flex-direction: column; align-items: center; margin-top: -40px;""><img src=""images/pattern_1.png"" style=""width: 234px; height: 230px; margin-top: -50px;""><div style=""display: flex; justify-content: space-between; margin-top: 33px;""><img src=""images/choice_trial_8.png"" style=""width: 408px; height: 417px; margin-left:608px;""></div></div>","null","delaylearn","learning","display_response","601eaeeb12586834759af824","AKbmToyQyMgqHoKb3rlbvOkLd843","","","","","","","","","","","","","","","","","chosen stimuli: images/choice_trial_8.png","","","",""
"html-keyboard-response","189","428613","0.0-78.0-2.0","","null","","null","delaylearn","learning","feedback_duration_window","601eaeeb12586834759af824","AKbmToyQyMgqHoKb3rlbvOkLd843","","","","","","","","","","","","","","","","","","7000","","",""
"html-keyboard-response","190","430117","0.0-78.0-3.0","","null","<div style='margin:auto;width: auto; font-size: 150%'><span style='font-weight: bold; font-size: 100px; color: red;'>0 points!</span><br><br></div>","null","delaylearn","learning","feedback_image_window","601eaeeb12586834759af824","AKbmToyQyMgqHoKb3rlbvOkLd843","","","","","","","","","","","","","","","","","","","","",""
"html-keyboard-response","191","430625","0.0-79.0-0.0","","null","","null","","","mood_trial_fixation","","","","","","","","","","","","","","","","","","","","","","",""
"lmdlab-html-vas-response","192","435030","0.0-79.0-1.0","","3394","How happy are you right now?","0.48333333333333334","delaylearn","learning","mood_trial","601eaeeb12586834759af824","AKbmToyQyMgqHoKb3rlbvOkLd843","","","","","","","","","","","","","","","","","","","","[""Very unhappy"",""Very happy""]",""
"html-keyboard-response","193","437532","0.0-80.0","","null","<div style=""font-size:100px;"">+</div>","null","delaylearn","learning","ITI","601eaeeb12586834759af824","AKbmToyQyMgqHoKb3rlbvOkLd843","","","","","","","","","","","","","","","","","","","2499","",""
"html-keyboard-response","194","440241","0.0-81.0-0.0","","2704.100000023842","<div style=""display: flex; flex-direction: column; align-items: center; margin-top: -40px;""><img src=""images/pattern_6.png"" style=""width: 234px; height: 230px; margin-top: -50px;""><div style=""display: flex; justify-content: space-between; margin-top: 33px;""><img src=""images/choice_trial_16.png"" style=""width: 408px; height: 417px; margin-right: 200px;""><img src=""images/choice_trial_3.png"" style=""width: 408px; height: 417px;""></div></div>","f","delaylearn","learning","trial","601eaeeb12586834759af824","AKbmToyQyMgqHoKb3rlbvOkLd843","3","images/choice_trial_16.png","images/choice_trial_3.png","images/pattern_6.png","j","f","750","16","3","5","0","35","1","0","16","170","","","","",""
"html-keyboard-response","195","441245","0.0-81.0-1.0","","null","<div style=""display: flex; flex-direction: column; align-items: center; margin-top: -40px;""><img src=""images/pattern_6.png"" style=""width: 234px; height: 230px; margin-top: -50px;""><div style=""display: flex; justify-content: space-between; margin-top: 33px;""><img src=""images/choice_trial_16.png"" style=""width: 408px; height: 417px; margin-right: 608px;""></div></div>","null","delaylearn","learning","display_response","601eaeeb12586834759af824","AKbmToyQyMgqHoKb3rlbvOkLd843","","","","","","","","","","","","","","","","","chosen stimuli: images/choice_trial_16.png","","","",""
"html-keyboard-response","196","442003","0.0-81.0-2.0","","null","","null","delaylearn","learning","feedback_duration_window","601eaeeb12586834759af824","AKbmToyQyMgqHoKb3rlbvOkLd843","","","","","","","","","","","","","","","","","","750","","",""
"html-keyboard-response","197","443517","0.0-81.0-3.0","","null","<div style='margin:auto;width: auto; font-size: 150%'><span style='font-weight: bold; font-size: 100px; color: red;'>0 points!</span><br><br></div>","null","delaylearn","learning","feedback_image_window","601eaeeb12586834759af824","AKbmToyQyMgqHoKb3rlbvOkLd843","","","","","","","","","","","","","","","","","","","","",""
"html-keyboard-response","198","445027","0.0-82.0","","null","<div style=""font-size:100px;"">+</div>","null","delaylearn","learning","ITI","601eaeeb12586834759af824","AKbmToyQyMgqHoKb3rlbvOkLd843","","","","","","","","","","","","","","","","","","","1506","",""
"html-keyboard-response","199","446416","0.0-83.0-0.0","","1385.699999988079","<div style=""display: flex; flex-direction: column; align-items: center; margin-top: -40px;""><img src=""images/pattern_3.png"" style=""width: 234px; height: 230px; margin-top: -50px;""><div style=""display: flex; justify-content: space-between; margin-top: 33px;""><img src=""images/choice_trial_10.png"" style=""width: 408px; height: 417px; margin-right: 200px;""><img src=""images/choice_trial_13.png"" style=""width: 408px; height: 417px;""></div></div>","j","delaylearn","learning","trial","601eaeeb12586834759af824","AKbmToyQyMgqHoKb3rlbvOkLd843","3","images/choice_trial_10.png","images/choice_trial_13.png","images/pattern_3.png","j","j","7000","10","13","2","1","36","1","1","13","180","","","","",""
"html-keyboard-response","200","447434","0.0-83.0-1.0","","null","<div style=""display: flex; flex-direction: column; align-items: center; margin-top: -40px;""><img src=""images/pattern_3.png"" style=""width: 234px; height: 230px; margin-top: -50px;""><div style=""display: flex; justify-content: space-between; margin-top: 33px;""><img src=""images/choice_trial_13.png"" style=""width: 408px; height: 417px; margin-left:608px;""></div></div>","null","delaylearn","learning","display_response","601eaeeb12586834759af824","AKbmToyQyMgqHoKb3rlbvOkLd843","","","","","","","","","","","","","","","","","chosen stimuli: images/choice_trial_13.png","","","",""
"html-keyboard-response","201","454441","0.0-83.0-2.0","","null","","null","delaylearn","learning","feedback_duration_window","601eaeeb12586834759af824","AKbmToyQyMgqHoKb3rlbvOkLd843","","","","","","","","","","","","","","","","","","7000","","",""
"html-keyboard-response","202","455956","0.0-83.0-3.0","","null","<div style='margin:auto;width: auto; font-size: 150%'><span style='font-weight: bold; font-size: 100px; color: green;'>+10 points!</span><br><br></div>","null","delaylearn","learning","feedback_image_window","601eaeeb12586834759af824","AKbmToyQyMgqHoKb3rlbvOkLd843","","","","","","","","","","","","","","","","","","","","",""
"html-keyboard-response","203","457581","0.0-84.0","","null","<div style=""font-size:100px;"">+</div>","null","delaylearn","learning","ITI","601eaeeb12586834759af824","AKbmToyQyMgqHoKb3rlbvOkLd843","","","","","","","","","","","","","","","","","","","1623","",""
"html-keyboard-response","204","460183","0.0-85.0-0.0","","2599","<div style=""display: flex; flex-direction: column; align-items: center; margin-top: -40px;""><img src=""images/pattern_4.png"" style=""width: 234px; height: 230px; margin-top: -50px;""><div style=""display: flex; justify-content: space-between; margin-top: 33px;""><img src=""images/choice_trial_9.png"" style=""width: 408px; height: 417px; margin-right: 200px;""><img src=""images/choice_trial_15.png"" style=""width: 408px; height: 417px;""></div></div>","f","delaylearn","learning","trial","601eaeeb12586834759af824","AKbmToyQyMgqHoKb3rlbvOkLd843","3","images/choice_trial_9.png","images/choice_trial_15.png","images/pattern_4.png","f","j","7000","9","15","3","1","37","0","1","9","190","","","","",""
"html-keyboard-response","205","461192","0.0-85.0-1.0","","null","<div style=""display: flex; flex-direction: column; align-items: center; margin-top: -40px;""><img src=""images/pattern_4.png"" style=""width: 234px; height: 230px; margin-top: -50px;""><div style=""display: flex; justify-content: space-between; margin-top: 33px;""><img src=""images/choice_trial_9.png"" style=""width: 408px; height: 417px; margin-right: 608px;""></div></div>","null","delaylearn","learning","display_response","601eaeeb12586834759af824","AKbmToyQyMgqHoKb3rlbvOkLd843","","","","","","","","","","","","","","","","","chosen stimuli: images/choice_trial_9.png","","","",""
"html-keyboard-response","206","468198","0.0-85.0-2.0","","null","","null","delaylearn","learning","feedback_duration_window","601eaeeb12586834759af824","AKbmToyQyMgqHoKb3rlbvOkLd843","","","","","","","","","","","","","","","","","","7000","","",""
"html-keyboard-response","207","469715","0.0-85.0-3.0","","null","<div style='margin:auto;width: auto; font-size: 150%'><span style='font-weight: bold; font-size: 100px; color: green;'>+10 points!</span><br><br></div>","null","delaylearn","learning","feedback_image_window","601eaeeb12586834759af824","AKbmToyQyMgqHoKb3rlbvOkLd843","","","","","","","","","","","","","","","","","","","","",""
"html-keyboard-response","208","471629","0.0-86.0","","null","<div style=""font-size:100px;"">+</div>","null","delaylearn","learning","ITI","601eaeeb12586834759af824","AKbmToyQyMgqHoKb3rlbvOkLd843","","","","","","","","","","","","","","","","","","","1910","",""
"html-keyboard-response","209","473413","0.0-87.0-0.0","","1782.300000011921","<div style=""display: flex; flex-direction: column; align-items: center; margin-top: -40px;""><img src=""images/pattern_7.png"" style=""width: 234px; height: 230px; margin-top: -50px;""><div style=""display: flex; justify-content: space-between; margin-top: 33px;""><img src=""images/choice_trial_6.png"" style=""width: 408px; height: 417px; margin-right: 200px;""><img src=""images/choice_trial_12.png"" style=""width: 408px; height: 417px;""></div></div>","f","delaylearn","learning","trial","601eaeeb12586834759af824","AKbmToyQyMgqHoKb3rlbvOkLd843","3","images/choice_trial_6.png","images/choice_trial_12.png","images/pattern_7.png","f","f","750","6","12","6","0","38","1","1","6","200","","","","",""
"html-keyboard-response","210","474418","0.0-87.0-1.0","","null","<div style=""display: flex; flex-direction: column; align-items: center; margin-top: -40px;""><img src=""images/pattern_7.png"" style=""width: 234px; height: 230px; margin-top: -50px;""><div style=""display: flex; justify-content: space-between; margin-top: 33px;""><img src=""images/choice_trial_6.png"" style=""width: 408px; height: 417px; margin-right: 608px;""></div></div>","null","delaylearn","learning","display_response","601eaeeb12586834759af824","AKbmToyQyMgqHoKb3rlbvOkLd843","","","","","","","","","","","","","","","","","chosen stimuli: images/choice_trial_6.png","","","",""
"html-keyboard-response","211","475176","0.0-87.0-2.0","","null","","null","delaylearn","learning","feedback_duration_window","601eaeeb12586834759af824","AKbmToyQyMgqHoKb3rlbvOkLd843","","","","","","","","","","","","","","","","","","750","","",""
"html-keyboard-response","212","476689","0.0-87.0-3.0","","null","<div style='margin:auto;width: auto; font-size: 150%'><span style='font-weight: bold; font-size: 100px; color: green;'>+10 points!</span><br><br></div>","null","delaylearn","learning","feedback_image_window","601eaeeb12586834759af824","AKbmToyQyMgqHoKb3rlbvOkLd843","","","","","","","","","","","","","","","","","","","","",""
"html-keyboard-response","213","478502","0.0-88.0","","null","<div style=""font-size:100px;"">+</div>","null","delaylearn","learning","ITI","601eaeeb12586834759af824","AKbmToyQyMgqHoKb3rlbvOkLd843","","","","","","","","","","","","","","","","","","","1808","",""
"html-keyboard-response","214","480645","0.0-89.0-0.0","","2141.199999988079","<div style=""display: flex; flex-direction: column; align-items: center; margin-top: -40px;""><img src=""images/pattern_1.png"" style=""width: 234px; height: 230px; margin-top: -50px;""><div style=""display: flex; justify-content: space-between; margin-top: 33px;""><img src=""images/choice_trial_14.png"" style=""width: 408px; height: 417px; margin-right: 200px;""><img src=""images/choice_trial_8.png"" style=""width: 408px; height: 417px;""></div></div>","f","delaylearn","learning","trial","601eaeeb12586834759af824","AKbmToyQyMgqHoKb3rlbvOkLd843","3","images/choice_trial_14.png","images/choice_trial_8.png","images/pattern_1.png","f","f","7000","14","8","1","0","39","1","1","14","210","","","","",""
"html-keyboard-response","215","481660","0.0-89.0-1.0","","null","<div style=""display: flex; flex-direction: column; align-items: center; margin-top: -40px;""><img src=""images/pattern_1.png"" style=""width: 234px; height: 230px; margin-top: -50px;""><div style=""display: flex; justify-content: space-between; margin-top: 33px;""><img src=""images/choice_trial_14.png"" style=""width: 408px; height: 417px; margin-right: 608px;""></div></div>","null","delaylearn","learning","display_response","601eaeeb12586834759af824","AKbmToyQyMgqHoKb3rlbvOkLd843","","","","","","","","","","","","","","","","","chosen stimuli: images/choice_trial_14.png","","","",""
"html-keyboard-response","216","488662","0.0-89.0-2.0","","null","","null","delaylearn","learning","feedback_duration_window","601eaeeb12586834759af824","AKbmToyQyMgqHoKb3rlbvOkLd843","","","","","","","","","","","","","","","","","","7000","","",""
"html-keyboard-response","217","490173","0.0-89.0-3.0","","null","<div style='margin:auto;width: auto; font-size: 150%'><span style='font-weight: bold; font-size: 100px; color: green;'>+10 points!</span><br><br></div>","null","delaylearn","learning","feedback_image_window","601eaeeb12586834759af824","AKbmToyQyMgqHoKb3rlbvOkLd843","","","","","","","","","","","","","","","","","","","","",""
"html-keyboard-response","218","490683","0.0-90.0-0.0","","null","","null","","","mood_trial_fixation","","","","","","","","","","","","","","","","","","","","","","",""
"lmdlab-html-vas-response","219","494196","0.0-90.0-1.0","","2497","How happy are you right now?","0.6277777777777778","delaylearn","learning","mood_trial","601eaeeb12586834759af824","AKbmToyQyMgqHoKb3rlbvOkLd843","","","","","","","","","","","","","","","","","","","","[""Very unhappy"",""Very happy""]",""
"html-keyboard-response","220","496174","0.0-91.0","","null","<div style=""font-size:100px;"">+</div>","null","delaylearn","learning","ITI","601eaeeb12586834759af824","AKbmToyQyMgqHoKb3rlbvOkLd843","","","","","","","","","","","","","","","","","","","1971","",""
