"trial_type","trial_index","time_elapsed","internal_node_id","participant","rt","stimulus","response","exp_name","exp_stage","test_part","subjectID","databaseID","counterbal","choice_stimuli_1","choice_stimuli_2","pattern_stimuli","rewarded_answer","correct_answer","feedback_duration_times","stim_left","stim_right","pair","leftright_counter","trial","response_correct","response_rewarded","chosen_stim","counter","displayed_choice","feedback_durations","ITI_duration","labels","rest_warning"
"pavlovia","0","589","0.0-0.0","","","","","","","","","","","","","","","","","","","","","","","","","","","","","",""
"html-keyboard-response","1","3592","0.0-1.0","","null","<div style=""font-size:100px;"">+</div>","null","delaylearn","learning","pre_fixation","5c6e7cc242fe6b000190936a","","","","","","","","","","","","","","","","","","","","","",""
"html-keyboard-response","2","4758","0.0-2.0-0.0","","1161","<div style=""display: flex; flex-direction: column; align-items: center; margin-top: -40px;""><img src=""images/demo_images/pattern_1.png"" style=""width: 234px; height: 230px; margin-top: -50px;""><div style=""display: flex; justify-content: space-between; margin-top: 33px;""><img src=""images/demo_images/choice_trial_2.png"" style=""width: 408px; height: 417px; margin-right: 200px;""><img src=""images/demo_images/choice_trial_1.png"" style=""width: 408px; height: 417px;""></div></div>","f","delaylearn","learning","trial","5c6e7cc242fe6b000190936a","pdtGdRU46vg5MJQUklD9KU0PiYJ2","3","images/demo_images/choice_trial_2.png","images/demo_images/choice_trial_1.png","images/demo_images/pattern_1.png","j","j","3000","2","1","20","1","1","0","0","2","0","","","","",""
"html-keyboard-response","3","5763","0.0-2.0-1.0","","null","<div style=""display: flex; flex-direction: column; align-items: center; margin-top: -40px;""><img src=""images/demo_images/pattern_1.png"" style=""width: 234px; height: 230px; margin-top: -50px;""><div style=""display: flex; justify-content: space-between; margin-top: 33px;""><img src=""images/demo_images/choice_trial_2.png"" style=""width: 408px; height: 417px; margin-right: 608px;""></div></div>","null","delaylearn","learning","display_response","5c6e7cc242fe6b000190936a","pdtGdRU46vg5MJQUklD9KU0PiYJ2","","","","","","","","","","","","","","","","","chosen stimuli: images/demo_images/choice_trial_2.png","","","",""
"html-keyboard-response","4","8767","0.0-2.0-2.0","","null","","null","delaylearn","learning","feedback_duration_window","5c6e7cc242fe6b000190936a","pdtGdRU46vg5MJQUklD9KU0PiYJ2","","","","","","","","","","","","","","","","","","3000","","",""
"html-keyboard-response","5","10271","0.0-2.0-3.0","","null","<div style='margin:auto;width: auto; font-size: 150%'><span style='font-weight: bold; font-size: 100px; color: red;'>0 points!</span><br><br></div>","null","delaylearn","learning","feedback_image_window","5c6e7cc242fe6b000190936a","pdtGdRU46vg5MJQUklD9KU0PiYJ2","","","","","","","","","","","","","","","","","","","","",""
"html-keyboard-response","6","11851","0.0-3.0","","null","<div style=""font-size:100px;"">+</div>","null","delaylearn","learning","ITI","5c6e7cc242fe6b000190936a","pdtGdRU46vg5MJQUklD9KU0PiYJ2","","","","","","","","","","","","","","","","","","","1577","",""
"html-keyboard-response","7","13319","0.0-4.0-0.0","","1464","<div style=""display: flex; flex-direction: column; align-items: center; margin-top: -40px;""><img src=""images/demo_images/pattern_1.png"" style=""width: 234px; height: 230px; margin-top: -50px;""><div style=""display: flex; justify-content: space-between; margin-top: 33px;""><img src=""images/demo_images/choice_trial_2.png"" style=""width: 408px; height: 417px; margin-right: 200px;""><img src=""images/demo_images/choice_trial_1.png"" style=""width: 408px; height: 417px;""></div></div>","j","delaylearn","learning","trial","5c6e7cc242fe6b000190936a","pdtGdRU46vg5MJQUklD9KU0PiYJ2","3","images/demo_images/choice_trial_2.png","images/demo_images/choice_trial_1.png","images/demo_images/pattern_1.png","j","j","3000","2","1","20","1","2","1","1","1","10","","","","",""
"html-keyboard-response","8","14322","0.0-4.0-1.0","","null","<div style=""display: flex; flex-direction: column; align-items: center; margin-top: -40px;""><img src=""images/demo_images/pattern_1.png"" style=""width: 234px; height: 230px; margin-top: -50px;""><div style=""display: flex; justify-content: space-between; margin-top: 33px;""><img src=""images/demo_images/choice_trial_1.png"" style=""width: 408px; height: 417px; margin-left:608px;""></div></div>","null","delaylearn","learning","display_response","5c6e7cc242fe6b000190936a","pdtGdRU46vg5MJQUklD9KU0PiYJ2","","","","","","","","","","","","","","","","","chosen stimuli: images/demo_images/choice_trial_1.png","","","",""
"html-keyboard-response","9","17325","0.0-4.0-2.0","","null","","null","delaylearn","learning","feedback_duration_window","5c6e7cc242fe6b000190936a","pdtGdRU46vg5MJQUklD9KU0PiYJ2","","","","","","","","","","","","","","","","","","3000","","",""
"html-keyboard-response","10","18828","0.0-4.0-3.0","","null","<div style='margin:auto;width: auto; font-size: 150%'><span style='font-weight: bold; font-size: 100px; color: green;'>+10 points!</span><br><br></div>","null","delaylearn","learning","feedback_image_window","5c6e7cc242fe6b000190936a","pdtGdRU46vg5MJQUklD9KU0PiYJ2","","","","","","","","","","","","","","","","","","","","",""
"html-keyboard-response","11","20558","0.0-5.0","","null","<div style=""font-size:100px;"">+</div>","null","delaylearn","learning","ITI","5c6e7cc242fe6b000190936a","pdtGdRU46vg5MJQUklD9KU0PiYJ2","","","","","","","","","","","","","","","","","","","1727","",""
"html-keyboard-response","12","21081","0.0-6.0-0.0","","519","<div style=""display: flex; flex-direction: column; align-items: center; margin-top: -40px;""><img src=""images/demo_images/pattern_1.png"" style=""width: 234px; height: 230px; margin-top: -50px;""><div style=""display: flex; justify-content: space-between; margin-top: 33px;""><img src=""images/demo_images/choice_trial_1.png"" style=""width: 408px; height: 417px; margin-right: 200px;""><img src=""images/demo_images/choice_trial_2.png"" style=""width: 408px; height: 417px;""></div></div>","f","delaylearn","learning","trial","5c6e7cc242fe6b000190936a","pdtGdRU46vg5MJQUklD9KU0PiYJ2","3","images/demo_images/choice_trial_1.png","images/demo_images/choice_trial_2.png","images/demo_images/pattern_1.png","j","f","3000","1","2","20","0","3","1","0","1","10","","","","",""
"html-keyboard-response","13","22085","0.0-6.0-1.0","","null","<div style=""display: flex; flex-direction: column; align-items: center; margin-top: -40px;""><img src=""images/demo_images/pattern_1.png"" style=""width: 234px; height: 230px; margin-top: -50px;""><div style=""display: flex; justify-content: space-between; margin-top: 33px;""><img src=""images/demo_images/choice_trial_1.png"" style=""width: 408px; height: 417px; margin-right: 608px;""></div></div>","null","delaylearn","learning","display_response","5c6e7cc242fe6b000190936a","pdtGdRU46vg5MJQUklD9KU0PiYJ2","","","","","","","","","","","","","","","","","chosen stimuli: images/demo_images/choice_trial_1.png","","","",""
"html-keyboard-response","14","25087","0.0-6.0-2.0","","null","","null","delaylearn","learning","feedback_duration_window","5c6e7cc242fe6b000190936a","pdtGdRU46vg5MJQUklD9KU0PiYJ2","","","","","","","","","","","","","","","","","","3000","","",""
"html-keyboard-response","15","26590","0.0-6.0-3.0","","null","<div style='margin:auto;width: auto; font-size: 150%'><span style='font-weight: bold; font-size: 100px; color: red;'>0 points!</span><br><br></div>","null","delaylearn","learning","feedback_image_window","5c6e7cc242fe6b000190936a","pdtGdRU46vg5MJQUklD9KU0PiYJ2","","","","","","","","","","","","","","","","","","","","",""
"html-keyboard-response","16","28350","0.0-7.0","","null","<div style=""font-size:100px;"">+</div>","null","delaylearn","learning","ITI","5c6e7cc242fe6b000190936a","pdtGdRU46vg5MJQUklD9KU0PiYJ2","","","","","","","","","","","","","","","","","","","1756","",""
"html-keyboard-response","17","29021","0.0-8.0-0.0","","667.9999999999709","<div style=""display: flex; flex-direction: column; align-items: center; margin-top: -40px;""><img src=""images/demo_images/pattern_1.png"" style=""width: 234px; height: 230px; margin-top: -50px;""><div style=""display: flex; justify-content: space-between; margin-top: 33px;""><img src=""images/demo_images/choice_trial_1.png"" style=""width: 408px; height: 417px; margin-right: 200px;""><img src=""images/demo_images/choice_trial_2.png"" style=""width: 408px; height: 417px;""></div></div>","f","delaylearn","learning","trial","5c6e7cc242fe6b000190936a","pdtGdRU46vg5MJQUklD9KU0PiYJ2","3","images/demo_images/choice_trial_1.png","images/demo_images/choice_trial_2.png","images/demo_images/pattern_1.png","f","f","3000","1","2","20","0","4","1","1","1","20","","","","",""
"html-keyboard-response","18","30024","0.0-8.0-1.0","","null","<div style=""display: flex; flex-direction: column; align-items: center; margin-top: -40px;""><img src=""images/demo_images/pattern_1.png"" style=""width: 234px; height: 230px; margin-top: -50px;""><div style=""display: flex; justify-content: space-between; margin-top: 33px;""><img src=""images/demo_images/choice_trial_1.png"" style=""width: 408px; height: 417px; margin-right: 608px;""></div></div>","null","delaylearn","learning","display_response","5c6e7cc242fe6b000190936a","pdtGdRU46vg5MJQUklD9KU0PiYJ2","","","","","","","","","","","","","","","","","chosen stimuli: images/demo_images/choice_trial_1.png","","","",""
"html-keyboard-response","19","33027","0.0-8.0-2.0","","null","","null","delaylearn","learning","feedback_duration_window","5c6e7cc242fe6b000190936a","pdtGdRU46vg5MJQUklD9KU0PiYJ2","","","","","","","","","","","","","","","","","","3000","","",""
"html-keyboard-response","20","34530","0.0-8.0-3.0","","null","<div style='margin:auto;width: auto; font-size: 150%'><span style='font-weight: bold; font-size: 100px; color: green;'>+10 points!</span><br><br></div>","null","delaylearn","learning","feedback_image_window","5c6e7cc242fe6b000190936a","pdtGdRU46vg5MJQUklD9KU0PiYJ2","","","","","","","","","","","","","","","","","","","","",""
"html-keyboard-response","21","35033","0.0-9.0-0.0","","null","","null","","","mood_trial_fixation","","","","","","","","","","","","","","","","","","","","","","",""
"lmdlab-html-vas-response","22","41971","0.0-9.0-1.0","","5929","How happy are you right now?","0.7208333333333333","delaylearn","learning","mood_trial","5c6e7cc242fe6b000190936a","pdtGdRU46vg5MJQUklD9KU0PiYJ2","","","","","","","","","","","","","","","","","","","","[""Very unhappy"",""Very happy""]",""
"html-keyboard-response","23","43585","0.0-10.0","","null","<div style=""font-size:100px;"">+</div>","null","delaylearn","learning","ITI","5c6e7cc242fe6b000190936a","pdtGdRU46vg5MJQUklD9KU0PiYJ2","","","","","","","","","","","","","","","","","","","1612","",""
"html-keyboard-response","24","44548","0.0-11.0-0.0","","956.9999999999709","<div style=""display: flex; flex-direction: column; align-items: center; margin-top: -40px;""><img src=""images/demo_images/pattern_1.png"" style=""width: 234px; height: 230px; margin-top: -50px;""><div style=""display: flex; justify-content: space-between; margin-top: 33px;""><img src=""images/demo_images/choice_trial_2.png"" style=""width: 408px; height: 417px; margin-right: 200px;""><img src=""images/demo_images/choice_trial_1.png"" style=""width: 408px; height: 417px;""></div></div>","j","delaylearn","learning","trial","5c6e7cc242fe6b000190936a","pdtGdRU46vg5MJQUklD9KU0PiYJ2","3","images/demo_images/choice_trial_2.png","images/demo_images/choice_trial_1.png","images/demo_images/pattern_1.png","j","j","3000","2","1","20","1","5","1","1","1","30","","","","",""
"html-keyboard-response","25","45552","0.0-11.0-1.0","","null","<div style=""display: flex; flex-direction: column; align-items: center; margin-top: -40px;""><img src=""images/demo_images/pattern_1.png"" style=""width: 234px; height: 230px; margin-top: -50px;""><div style=""display: flex; justify-content: space-between; margin-top: 33px;""><img src=""images/demo_images/choice_trial_1.png"" style=""width: 408px; height: 417px; margin-left:608px;""></div></div>","null","delaylearn","learning","display_response","5c6e7cc242fe6b000190936a","pdtGdRU46vg5MJQUklD9KU0PiYJ2","","","","","","","","","","","","","","","","","chosen stimuli: images/demo_images/choice_trial_1.png","","","",""
"html-keyboard-response","26","48556","0.0-11.0-2.0","","null","","null","delaylearn","learning","feedback_duration_window","5c6e7cc242fe6b000190936a","pdtGdRU46vg5MJQUklD9KU0PiYJ2","","","","","","","","","","","","","","","","","","3000","","",""
"html-keyboard-response","27","50060","0.0-11.0-3.0","","null","<div style='margin:auto;width: auto; font-size: 150%'><span style='font-weight: bold; font-size: 100px; color: green;'>+10 points!</span><br><br></div>","null","delaylearn","learning","feedback_image_window","5c6e7cc242fe6b000190936a","pdtGdRU46vg5MJQUklD9KU0PiYJ2","","","","","","","","","","","","","","","","","","","","",""
"html-keyboard-response","28","52268","0.0-12.0","","null","<div style=""font-size:100px;"">+</div>","null","delaylearn","learning","ITI","5c6e7cc242fe6b000190936a","pdtGdRU46vg5MJQUklD9KU0PiYJ2","","","","","","","","","","","","","","","","","","","2205","",""
"html-keyboard-response","29","53073","0.0-13.0-0.0","","800.0000000000291","<div style=""display: flex; flex-direction: column; align-items: center; margin-top: -40px;""><img src=""images/demo_images/pattern_1.png"" style=""width: 234px; height: 230px; margin-top: -50px;""><div style=""display: flex; justify-content: space-between; margin-top: 33px;""><img src=""images/demo_images/choice_trial_1.png"" style=""width: 408px; height: 417px; margin-right: 200px;""><img src=""images/demo_images/choice_trial_2.png"" style=""width: 408px; height: 417px;""></div></div>","f","delaylearn","learning","trial","5c6e7cc242fe6b000190936a","pdtGdRU46vg5MJQUklD9KU0PiYJ2","3","images/demo_images/choice_trial_1.png","images/demo_images/choice_trial_2.png","images/demo_images/pattern_1.png","f","f","3000","1","2","20","0","6","1","1","1","40","","","","",""
"html-keyboard-response","30","54076","0.0-13.0-1.0","","null","<div style=""display: flex; flex-direction: column; align-items: center; margin-top: -40px;""><img src=""images/demo_images/pattern_1.png"" style=""width: 234px; height: 230px; margin-top: -50px;""><div style=""display: flex; justify-content: space-between; margin-top: 33px;""><img src=""images/demo_images/choice_trial_1.png"" style=""width: 408px; height: 417px; margin-right: 608px;""></div></div>","null","delaylearn","learning","display_response","5c6e7cc242fe6b000190936a","pdtGdRU46vg5MJQUklD9KU0PiYJ2","","","","","","","","","","","","","","","","","chosen stimuli: images/demo_images/choice_trial_1.png","","","",""
"html-keyboard-response","31","57079","0.0-13.0-2.0","","null","","null","delaylearn","learning","feedback_duration_window","5c6e7cc242fe6b000190936a","pdtGdRU46vg5MJQUklD9KU0PiYJ2","","","","","","","","","","","","","","","","","","3000","","",""
"html-keyboard-response","32","58583","0.0-13.0-3.0","","null","<div style='margin:auto;width: auto; font-size: 150%'><span style='font-weight: bold; font-size: 100px; color: green;'>+10 points!</span><br><br></div>","null","delaylearn","learning","feedback_image_window","5c6e7cc242fe6b000190936a","pdtGdRU46vg5MJQUklD9KU0PiYJ2","","","","","","","","","","","","","","","","","","","","",""
"html-keyboard-response","33","60737","0.0-14.0","","null","<div style=""font-size:100px;"">+</div>","null","delaylearn","learning","ITI","5c6e7cc242fe6b000190936a","pdtGdRU46vg5MJQUklD9KU0PiYJ2","","","","","","","","","","","","","","","","","","","2151","",""
"html-keyboard-response","34","61269","0.0-15.0-0.0","","529.0000000000291","<div style=""display: flex; flex-direction: column; align-items: center; margin-top: -40px;""><img src=""images/demo_images/pattern_1.png"" style=""width: 234px; height: 230px; margin-top: -50px;""><div style=""display: flex; justify-content: space-between; margin-top: 33px;""><img src=""images/demo_images/choice_trial_2.png"" style=""width: 408px; height: 417px; margin-right: 200px;""><img src=""images/demo_images/choice_trial_1.png"" style=""width: 408px; height: 417px;""></div></div>","j","delaylearn","learning","trial","5c6e7cc242fe6b000190936a","pdtGdRU46vg5MJQUklD9KU0PiYJ2","3","images/demo_images/choice_trial_2.png","images/demo_images/choice_trial_1.png","images/demo_images/pattern_1.png","j","j","3000","2","1","20","1","7","1","1","1","50","","","","",""
"html-keyboard-response","35","62273","0.0-15.0-1.0","","null","<div style=""display: flex; flex-direction: column; align-items: center; margin-top: -40px;""><img src=""images/demo_images/pattern_1.png"" style=""width: 234px; height: 230px; margin-top: -50px;""><div style=""display: flex; justify-content: space-between; margin-top: 33px;""><img src=""images/demo_images/choice_trial_1.png"" style=""width: 408px; height: 417px; margin-left:608px;""></div></div>","null","delaylearn","learning","display_response","5c6e7cc242fe6b000190936a","pdtGdRU46vg5MJQUklD9KU0PiYJ2","","","","","","","","","","","","","","","","","chosen stimuli: images/demo_images/choice_trial_1.png","","","",""
"html-keyboard-response","36","65276","0.0-15.0-2.0","","null","","null","delaylearn","learning","feedback_duration_window","5c6e7cc242fe6b000190936a","pdtGdRU46vg5MJQUklD9KU0PiYJ2","","","","","","","","","","","","","","","","","","3000","","",""
"html-keyboard-response","37","66779","0.0-15.0-3.0","","null","<div style='margin:auto;width: auto; font-size: 150%'><span style='font-weight: bold; font-size: 100px; color: green;'>+10 points!</span><br><br></div>","null","delaylearn","learning","feedback_image_window","5c6e7cc242fe6b000190936a","pdtGdRU46vg5MJQUklD9KU0PiYJ2","","","","","","","","","","","","","","","","","","","","",""
"html-keyboard-response","38","68376","0.0-16.0","","null","<div style=""font-size:100px;"">+</div>","null","delaylearn","learning","ITI","5c6e7cc242fe6b000190936a","pdtGdRU46vg5MJQUklD9KU0PiYJ2","","","","","","","","","","","","","","","","","","","1594","",""
"html-keyboard-response","39","69075","0.0-17.0-0.0","","695","<div style=""display: flex; flex-direction: column; align-items: center; margin-top: -40px;""><img src=""images/demo_images/pattern_1.png"" style=""width: 234px; height: 230px; margin-top: -50px;""><div style=""display: flex; justify-content: space-between; margin-top: 33px;""><img src=""images/demo_images/choice_trial_1.png"" style=""width: 408px; height: 417px; margin-right: 200px;""><img src=""images/demo_images/choice_trial_2.png"" style=""width: 408px; height: 417px;""></div></div>","f","delaylearn","learning","trial","5c6e7cc242fe6b000190936a","pdtGdRU46vg5MJQUklD9KU0PiYJ2","3","images/demo_images/choice_trial_1.png","images/demo_images/choice_trial_2.png","images/demo_images/pattern_1.png","f","f","3000","1","2","20","0","8","1","1","1","60","","","","",""
"html-keyboard-response","40","70078","0.0-17.0-1.0","","null","<div style=""display: flex; flex-direction: column; align-items: center; margin-top: -40px;""><img src=""images/demo_images/pattern_1.png"" style=""width: 234px; height: 230px; margin-top: -50px;""><div style=""display: flex; justify-content: space-between; margin-top: 33px;""><img src=""images/demo_images/choice_trial_1.png"" style=""width: 408px; height: 417px; margin-right: 608px;""></div></div>","null","delaylearn","learning","display_response","5c6e7cc242fe6b000190936a","pdtGdRU46vg5MJQUklD9KU0PiYJ2","","","","","","","","","","","","","","","","","chosen stimuli: images/demo_images/choice_trial_1.png","","","",""
"html-keyboard-response","41","73081","0.0-17.0-2.0","","null","","null","delaylearn","learning","feedback_duration_window","5c6e7cc242fe6b000190936a","pdtGdRU46vg5MJQUklD9KU0PiYJ2","","","","","","","","","","","","","","","","","","3000","","",""
"html-keyboard-response","42","74586","0.0-17.0-3.0","","null","<div style='margin:auto;width: auto; font-size: 150%'><span style='font-weight: bold; font-size: 100px; color: green;'>+10 points!</span><br><br></div>","null","delaylearn","learning","feedback_image_window","5c6e7cc242fe6b000190936a","pdtGdRU46vg5MJQUklD9KU0PiYJ2","","","","","","","","","","","","","","","","","","","","",""
"html-button-response","43","76692","0.0-18.0","","2104","
  <div style=""display: flex; align-items: center; justify-content: center; height: 80vh;"">
  <div>
          <img src=""images/inst_demo_finish.png"" style=""width: 80vw; height:auto;"">
          <br><br>
      </div>
      <br><br>
  </div>","0","","","","","","","","","","","","","","","","","","","","","","","","","",""
"html-keyboard-response","44","80608","0.0-19.0","","3914","
  <div style=""display: flex; align-items: center; justify-content: center; height: 80vh;"">
  <div>
          <img src=""images/inst_6.png"" style=""width: 80vw; height:auto;"">
          <br><br>
      </div>
      <br><br>
  </div>","f","","","","","","","","","","","","","","","","","","","","","","","","","",""
"html-keyboard-response","45","83611","0.0-20.0","","null","<div style=""font-size:100px;"">+</div>","null","delaylearn","learning","pre_fixation","5c6e7cc242fe6b000190936a","","","","","","","","","","","","","","","","","","","","","",""
"html-keyboard-response","46","85797","0.0-21.0","","null","<div style=""font-size:100px;"">+</div>","null","delaylearn","learning","ITI","5c6e7cc242fe6b000190936a","pdtGdRU46vg5MJQUklD9KU0PiYJ2","","","","","","","","","","","","","","","","","","","2180","",""
"html-keyboard-response","47","87499","0.0-22.0-0.0","","1697.0000000000582","<div style=""display: flex; flex-direction: column; align-items: center; margin-top: -40px;""><img src=""images/pattern_3.png"" style=""width: 234px; height: 230px; margin-top: -50px;""><div style=""display: flex; justify-content: space-between; margin-top: 33px;""><img src=""images/choice_trial_13.png"" style=""width: 408px; height: 417px; margin-right: 200px;""><img src=""images/choice_trial_10.png"" style=""width: 408px; height: 417px;""></div></div>","f","delaylearn","learning","trial","5c6e7cc242fe6b000190936a","pdtGdRU46vg5MJQUklD9KU0PiYJ2","3","images/choice_trial_13.png","images/choice_trial_10.png","images/pattern_3.png","f","f","7000","13","10","2","0","9","1","1","13","70","","","","",""
"html-keyboard-response","48","88503","0.0-22.0-1.0","","null","<div style=""display: flex; flex-direction: column; align-items: center; margin-top: -40px;""><img src=""images/pattern_3.png"" style=""width: 234px; height: 230px; margin-top: -50px;""><div style=""display: flex; justify-content: space-between; margin-top: 33px;""><img src=""images/choice_trial_13.png"" style=""width: 408px; height: 417px; margin-right: 608px;""></div></div>","null","delaylearn","learning","display_response","5c6e7cc242fe6b000190936a","pdtGdRU46vg5MJQUklD9KU0PiYJ2","","","","","","","","","","","","","","","","","chosen stimuli: images/choice_trial_13.png","","","",""
"html-keyboard-response","49","95506","0.0-22.0-2.0","","null","","null","delaylearn","learning","feedback_duration_window","5c6e7cc242fe6b000190936a","pdtGdRU46vg5MJQUklD9KU0PiYJ2","","","","","","","","","","","","","","","","","","7000","","",""
"html-keyboard-response","50","97011","0.0-22.0-3.0","","null","<div style='margin:auto;width: auto; font-size: 150%'><span style='font-weight: bold; font-size: 100px; color: green;'>+10 points!</span><br><br></div>","null","delaylearn","learning","feedback_image_window","5c6e7cc242fe6b000190936a","pdtGdRU46vg5MJQUklD9KU0PiYJ2","","","","","","","","","","","","","","","","","","","","",""
"html-keyboard-response","51","99469","0.0-23.0","","null","<div style=""font-size:100px;"">+</div>","null","delaylearn","learning","ITI","5c6e7cc242fe6b000190936a","pdtGdRU46vg5MJQUklD9KU0PiYJ2","","","","","","","","","","","","","","","","","","","2454","",""
"html-keyboard-response","52","102154","0.0-24.0-0.0","","2680","<div style=""display: flex; flex-direction: column; align-items: center; margin-top: -40px;""><img src=""images/pattern_7.png"" style=""width: 234px; height: 230px; margin-top: -50px;""><div style=""display: flex; justify-content: space-between; margin-top: 33px;""><img src=""images/choice_trial_12.png"" style=""width: 408px; height: 417px; margin-right: 200px;""><img src=""images/choice_trial_6.png"" style=""width: 408px; height: 417px;""></div></div>","j","delaylearn","learning","trial","5c6e7cc242fe6b000190936a","pdtGdRU46vg5MJQUklD9KU0PiYJ2","3","images/choice_trial_12.png","images/choice_trial_6.png","images/pattern_7.png","j","j","750","12","6","6","1","10","1","1","6","80","","","","",""
"html-keyboard-response","53","103158","0.0-24.0-1.0","","null","<div style=""display: flex; flex-direction: column; align-items: center; margin-top: -40px;""><img src=""images/pattern_7.png"" style=""width: 234px; height: 230px; margin-top: -50px;""><div style=""display: flex; justify-content: space-between; margin-top: 33px;""><img src=""images/choice_trial_6.png"" style=""width: 408px; height: 417px; margin-left:608px;""></div></div>","null","delaylearn","learning","display_response","5c6e7cc242fe6b000190936a","pdtGdRU46vg5MJQUklD9KU0PiYJ2","","","","","","","","","","","","","","","","","chosen stimuli: images/choice_trial_6.png","","","",""
"html-keyboard-response","54","103912","0.0-24.0-2.0","","null","","null","delaylearn","learning","feedback_duration_window","5c6e7cc242fe6b000190936a","pdtGdRU46vg5MJQUklD9KU0PiYJ2","","","","","","","","","","","","","","","","","","750","","",""
"html-keyboard-response","55","105415","0.0-24.0-3.0","","null","<div style='margin:auto;width: auto; font-size: 150%'><span style='font-weight: bold; font-size: 100px; color: green;'>+10 points!</span><br><br></div>","null","delaylearn","learning","feedback_image_window","5c6e7cc242fe6b000190936a","pdtGdRU46vg5MJQUklD9KU0PiYJ2","","","","","","","","","","","","","","","","","","","","",""
"html-keyboard-response","56","107385","0.0-25.0","","null","<div style=""font-size:100px;"">+</div>","null","delaylearn","learning","ITI","5c6e7cc242fe6b000190936a","pdtGdRU46vg5MJQUklD9KU0PiYJ2","","","","","","","","","","","","","","","","","","","1967","",""
"html-keyboard-response","57","109414","0.0-26.0-0.0","","2024","<div style=""display: flex; flex-direction: column; align-items: center; margin-top: -40px;""><img src=""images/pattern_4.png"" style=""width: 234px; height: 230px; margin-top: -50px;""><div style=""display: flex; justify-content: space-between; margin-top: 33px;""><img src=""images/choice_trial_15.png"" style=""width: 408px; height: 417px; margin-right: 200px;""><img src=""images/choice_trial_9.png"" style=""width: 408px; height: 417px;""></div></div>","f","delaylearn","learning","trial","5c6e7cc242fe6b000190936a","pdtGdRU46vg5MJQUklD9KU0PiYJ2","3","images/choice_trial_15.png","images/choice_trial_9.png","images/pattern_4.png","f","f","7000","15","9","3","0","11","1","1","15","90","","","","",""
"html-keyboard-response","58","110416","0.0-26.0-1.0","","null","<div style=""display: flex; flex-direction: column; align-items: center; margin-top: -40px;""><img src=""images/pattern_4.png"" style=""width: 234px; height: 230px; margin-top: -50px;""><div style=""display: flex; justify-content: space-between; margin-top: 33px;""><img src=""images/choice_trial_15.png"" style=""width: 408px; height: 417px; margin-right: 608px;""></div></div>","null","delaylearn","learning","display_response","5c6e7cc242fe6b000190936a","pdtGdRU46vg5MJQUklD9KU0PiYJ2","","","","","","","","","","","","","","","","","chosen stimuli: images/choice_trial_15.png","","","",""
"html-keyboard-response","59","117417","0.0-26.0-2.0","","null","","null","delaylearn","learning","feedback_duration_window","5c6e7cc242fe6b000190936a","pdtGdRU46vg5MJQUklD9KU0PiYJ2","","","","","","","","","","","","","","","","","","7000","","",""
"html-keyboard-response","60","118919","0.0-26.0-3.0","","null","<div style='margin:auto;width: auto; font-size: 150%'><span style='font-weight: bold; font-size: 100px; color: green;'>+10 points!</span><br><br></div>","null","delaylearn","learning","feedback_image_window","5c6e7cc242fe6b000190936a","pdtGdRU46vg5MJQUklD9KU0PiYJ2","","","","","","","","","","","","","","","","","","","","",""
"html-keyboard-response","61","120608","0.0-27.0","","null","<div style=""font-size:100px;"">+</div>","null","delaylearn","learning","ITI","5c6e7cc242fe6b000190936a","pdtGdRU46vg5MJQUklD9KU0PiYJ2","","","","","","","","","","","","","","","","","","","1687","",""
"html-keyboard-response","62","122286","0.0-28.0-0.0","","1672","<div style=""display: flex; flex-direction: column; align-items: center; margin-top: -40px;""><img src=""images/pattern_5.png"" style=""width: 234px; height: 230px; margin-top: -50px;""><div style=""display: flex; justify-content: space-between; margin-top: 33px;""><img src=""images/choice_trial_2.png"" style=""width: 408px; height: 417px; margin-right: 200px;""><img src=""images/choice_trial_11.png"" style=""width: 408px; height: 417px;""></div></div>","j","delaylearn","learning","trial","5c6e7cc242fe6b000190936a","pdtGdRU46vg5MJQUklD9KU0PiYJ2","3","images/choice_trial_2.png","images/choice_trial_11.png","images/pattern_5.png","j","j","750","2","11","4","1","12","1","1","11","100","","","","",""
"html-keyboard-response","63","123289","0.0-28.0-1.0","","null","<div style=""display: flex; flex-direction: column; align-items: center; margin-top: -40px;""><img src=""images/pattern_5.png"" style=""width: 234px; height: 230px; margin-top: -50px;""><div style=""display: flex; justify-content: space-between; margin-top: 33px;""><img src=""images/choice_trial_11.png"" style=""width: 408px; height: 417px; margin-left:608px;""></div></div>","null","delaylearn","learning","display_response","5c6e7cc242fe6b000190936a","pdtGdRU46vg5MJQUklD9KU0PiYJ2","","","","","","","","","","","","","","","","","chosen stimuli: images/choice_trial_11.png","","","",""
"html-keyboard-response","64","124042","0.0-28.0-2.0","","null","","null","delaylearn","learning","feedback_duration_window","5c6e7cc242fe6b000190936a","pdtGdRU46vg5MJQUklD9KU0PiYJ2","","","","","","","","","","","","","","","","","","750","","",""
"html-keyboard-response","65","125546","0.0-28.0-3.0","","null","<div style='margin:auto;width: auto; font-size: 150%'><span style='font-weight: bold; font-size: 100px; color: green;'>+10 points!</span><br><br></div>","null","delaylearn","learning","feedback_image_window","5c6e7cc242fe6b000190936a","pdtGdRU46vg5MJQUklD9KU0PiYJ2","","","","","","","","","","","","","","","","","","","","",""
"html-keyboard-response","66","127830","0.0-29.0","","null","<div style=""font-size:100px;"">+</div>","null","delaylearn","learning","ITI","5c6e7cc242fe6b000190936a","pdtGdRU46vg5MJQUklD9KU0PiYJ2","","","","","","","","","","","","","","","","","","","2281","",""
"html-keyboard-response","67","128879","0.0-30.0-0.0","","1045","<div style=""display: flex; flex-direction: column; align-items: center; margin-top: -40px;""><img src=""images/pattern_6.png"" style=""width: 234px; height: 230px; margin-top: -50px;""><div style=""display: flex; justify-content: space-between; margin-top: 33px;""><img src=""images/choice_trial_16.png"" style=""width: 408px; height: 417px; margin-right: 200px;""><img src=""images/choice_trial_3.png"" style=""width: 408px; height: 417px;""></div></div>","f","delaylearn","learning","trial","5c6e7cc242fe6b000190936a","pdtGdRU46vg5MJQUklD9KU0PiYJ2","3","images/choice_trial_16.png","images/choice_trial_3.png","images/pattern_6.png","j","f","750","16","3","5","0","13","1","0","16","100","","","","",""
"html-keyboard-response","68","129881","0.0-30.0-1.0","","null","<div style=""display: flex; flex-direction: column; align-items: center; margin-top: -40px;""><img src=""images/pattern_6.png"" style=""width: 234px; height: 230px; margin-top: -50px;""><div style=""display: flex; justify-content: space-between; margin-top: 33px;""><img src=""images/choice_trial_16.png"" style=""width: 408px; height: 417px; margin-right: 608px;""></div></div>","null","delaylearn","learning","display_response","5c6e7cc242fe6b000190936a","pdtGdRU46vg5MJQUklD9KU0PiYJ2","","","","","","","","","","","","","","","","","chosen stimuli: images/choice_trial_16.png","","","",""
"html-keyboard-response","69","130633","0.0-30.0-2.0","","null","","null","delaylearn","learning","feedback_duration_window","5c6e7cc242fe6b000190936a","pdtGdRU46vg5MJQUklD9KU0PiYJ2","","","","","","","","","","","","","","","","","","750","","",""
"html-keyboard-response","70","132137","0.0-30.0-3.0","","null","<div style='margin:auto;width: auto; font-size: 150%'><span style='font-weight: bold; font-size: 100px; color: red;'>0 points!</span><br><br></div>","null","delaylearn","learning","feedback_image_window","5c6e7cc242fe6b000190936a","pdtGdRU46vg5MJQUklD9KU0PiYJ2","","","","","","","","","","","","","","","","","","","","",""
"html-keyboard-response","71","132639","0.0-31.0-0.0","","null","","null","","","mood_trial_fixation","","","","","","","","","","","","","","","","","","","","","","",""
"lmdlab-html-vas-response","72","136651","0.0-31.0-1.0","","3005","How happy are you right now?","0.7041666666666667","delaylearn","learning","mood_trial","5c6e7cc242fe6b000190936a","pdtGdRU46vg5MJQUklD9KU0PiYJ2","","","","","","","","","","","","","","","","","","","","[""Very unhappy"",""Very happy""]",""
"html-keyboard-response","73","138902","0.0-32.0","","null","<div style=""font-size:100px;"">+</div>","null","delaylearn","learning","ITI","5c6e7cc242fe6b000190936a","pdtGdRU46vg5MJQUklD9KU0PiYJ2","","","","","","","","","","","","","","","","","","","2250","",""
"html-keyboard-response","74","140611","0.0-33.0-0.0","","1703","<div style=""display: flex; flex-direction: column; align-items: center; margin-top: -40px;""><img src=""images/pattern_1.png"" style=""width: 234px; height: 230px; margin-top: -50px;""><div style=""display: flex; justify-content: space-between; margin-top: 33px;""><img src=""images/choice_trial_8.png"" style=""width: 408px; height: 417px; margin-right: 200px;""><img src=""images/choice_trial_14.png"" style=""width: 408px; height: 417px;""></div></div>","j","delaylearn","learning","trial","5c6e7cc242fe6b000190936a","pdtGdRU46vg5MJQUklD9KU0PiYJ2","3","images/choice_trial_8.png","images/choice_trial_14.png","images/pattern_1.png","j","j","7000","8","14","1","1","14","1","1","14","110","","","","",""
"html-keyboard-response","75","141614","0.0-33.0-1.0","","null","<div style=""display: flex; flex-direction: column; align-items: center; margin-top: -40px;""><img src=""images/pattern_1.png"" style=""width: 234px; height: 230px; margin-top: -50px;""><div style=""display: flex; justify-content: space-between; margin-top: 33px;""><img src=""images/choice_trial_14.png"" style=""width: 408px; height: 417px; margin-left:608px;""></div></div>","null","delaylearn","learning","display_response","5c6e7cc242fe6b000190936a","pdtGdRU46vg5MJQUklD9KU0PiYJ2","","","","","","","","","","","","","","","","","chosen stimuli: images/choice_trial_14.png","","","",""
"html-keyboard-response","76","148617","0.0-33.0-2.0","","null","","null","delaylearn","learning","feedback_duration_window","5c6e7cc242fe6b000190936a","pdtGdRU46vg5MJQUklD9KU0PiYJ2","","","","","","","","","","","","","","","","","","7000","","",""
"html-keyboard-response","77","150120","0.0-33.0-3.0","","null","<div style='margin:auto;width: auto; font-size: 150%'><span style='font-weight: bold; font-size: 100px; color: green;'>+10 points!</span><br><br></div>","null","delaylearn","learning","feedback_image_window","5c6e7cc242fe6b000190936a","pdtGdRU46vg5MJQUklD9KU0PiYJ2","","","","","","","","","","","","","","","","","","","","",""
"html-keyboard-response","78","151757","0.0-34.0","","null","<div style=""font-size:100px;"">+</div>","null","delaylearn","learning","ITI","5c6e7cc242fe6b000190936a","pdtGdRU46vg5MJQUklD9KU0PiYJ2","","","","","","","","","","","","","","","","","","","1634","",""
"html-keyboard-response","79","153131","0.0-35.0-0.0","","1369","<div style=""display: flex; flex-direction: column; align-items: center; margin-top: -40px;""><img src=""images/pattern_3.png"" style=""width: 234px; height: 230px; margin-top: -50px;""><div style=""display: flex; justify-content: space-between; margin-top: 33px;""><img src=""images/choice_trial_10.png"" style=""width: 408px; height: 417px; margin-right: 200px;""><img src=""images/choice_trial_13.png"" style=""width: 408px; height: 417px;""></div></div>","j","delaylearn","learning","trial","5c6e7cc242fe6b000190936a","pdtGdRU46vg5MJQUklD9KU0PiYJ2","3","images/choice_trial_10.png","images/choice_trial_13.png","images/pattern_3.png","f","j","7000","10","13","2","1","15","1","0","13","110","","","","",""
"html-keyboard-response","80","154134","0.0-35.0-1.0","","null","<div style=""display: flex; flex-direction: column; align-items: center; margin-top: -40px;""><img src=""images/pattern_3.png"" style=""width: 234px; height: 230px; margin-top: -50px;""><div style=""display: flex; justify-content: space-between; margin-top: 33px;""><img src=""images/choice_trial_13.png"" style=""width: 408px; height: 417px; margin-left:608px;""></div></div>","null","delaylearn","learning","display_response","5c6e7cc242fe6b000190936a","pdtGdRU46vg5MJQUklD9KU0PiYJ2","","","","","","","","","","","","","","","","","chosen stimuli: images/choice_trial_13.png","","","",""
"html-keyboard-response","81","161138","0.0-35.0-2.0","","null","","null","delaylearn","learning","feedback_duration_window","5c6e7cc242fe6b000190936a","pdtGdRU46vg5MJQUklD9KU0PiYJ2","","","","","","","","","","","","","","","","","","7000","","",""
"html-keyboard-response","82","162641","0.0-35.0-3.0","","null","<div style='margin:auto;width: auto; font-size: 150%'><span style='font-weight: bold; font-size: 100px; color: red;'>0 points!</span><br><br></div>","null","delaylearn","learning","feedback_image_window","5c6e7cc242fe6b000190936a","pdtGdRU46vg5MJQUklD9KU0PiYJ2","","","","","","","","","","","","","","","","","","","","",""
"html-keyboard-response","83","164775","0.0-36.0","","null","<div style=""font-size:100px;"">+</div>","null","delaylearn","learning","ITI","5c6e7cc242fe6b000190936a","pdtGdRU46vg5MJQUklD9KU0PiYJ2","","","","","","","","","","","","","","","","","","","2130","",""
"html-keyboard-response","84","166693","0.0-37.0-0.0","","1912","<div style=""display: flex; flex-direction: column; align-items: center; margin-top: -40px;""><img src=""images/pattern_5.png"" style=""width: 234px; height: 230px; margin-top: -50px;""><div style=""display: flex; justify-content: space-between; margin-top: 33px;""><img src=""images/choice_trial_11.png"" style=""width: 408px; height: 417px; margin-right: 200px;""><img src=""images/choice_trial_2.png"" style=""width: 408px; height: 417px;""></div></div>","f","delaylearn","learning","trial","5c6e7cc242fe6b000190936a","pdtGdRU46vg5MJQUklD9KU0PiYJ2","3","images/choice_trial_11.png","images/choice_trial_2.png","images/pattern_5.png","f","f","750","11","2","4","0","16","1","1","11","120","","","","",""
"html-keyboard-response","85","167696","0.0-37.0-1.0","","null","<div style=""display: flex; flex-direction: column; align-items: center; margin-top: -40px;""><img src=""images/pattern_5.png"" style=""width: 234px; height: 230px; margin-top: -50px;""><div style=""display: flex; justify-content: space-between; margin-top: 33px;""><img src=""images/choice_trial_11.png"" style=""width: 408px; height: 417px; margin-right: 608px;""></div></div>","null","delaylearn","learning","display_response","5c6e7cc242fe6b000190936a","pdtGdRU46vg5MJQUklD9KU0PiYJ2","","","","","","","","","","","","","","","","","chosen stimuli: images/choice_trial_11.png","","","",""
"html-keyboard-response","86","168449","0.0-37.0-2.0","","null","","null","delaylearn","learning","feedback_duration_window","5c6e7cc242fe6b000190936a","pdtGdRU46vg5MJQUklD9KU0PiYJ2","","","","","","","","","","","","","","","","","","750","","",""
"html-keyboard-response","87","169953","0.0-37.0-3.0","","null","<div style='margin:auto;width: auto; font-size: 150%'><span style='font-weight: bold; font-size: 100px; color: green;'>+10 points!</span><br><br></div>","null","delaylearn","learning","feedback_image_window","5c6e7cc242fe6b000190936a","pdtGdRU46vg5MJQUklD9KU0PiYJ2","","","","","","","","","","","","","","","","","","","","",""
"html-keyboard-response","88","170455","0.0-38.0-0.0","","null","","null","","","mood_trial_fixation","","","","","","","","","","","","","","","","","","","","","","",""
"lmdlab-html-vas-response","89","174560","0.0-38.0-1.0","","3098","How happy are you right now?","0.7208333333333333","delaylearn","learning","mood_trial","5c6e7cc242fe6b000190936a","pdtGdRU46vg5MJQUklD9KU0PiYJ2","","","","","","","","","","","","","","","","","","","","[""Very unhappy"",""Very happy""]",""
"html-keyboard-response","90","176262","0.0-39.0","","null","<div style=""font-size:100px;"">+</div>","null","delaylearn","learning","ITI","5c6e7cc242fe6b000190936a","pdtGdRU46vg5MJQUklD9KU0PiYJ2","","","","","","","","","","","","","","","","","","","1700","",""
"html-keyboard-response","91","177727","0.0-40.0-0.0","","1461","<div style=""display: flex; flex-direction: column; align-items: center; margin-top: -40px;""><img src=""images/pattern_6.png"" style=""width: 234px; height: 230px; margin-top: -50px;""><div style=""display: flex; justify-content: space-between; margin-top: 33px;""><img src=""images/choice_trial_16.png"" style=""width: 408px; height: 417px; margin-right: 200px;""><img src=""images/choice_trial_3.png"" style=""width: 408px; height: 417px;""></div></div>","f","delaylearn","learning","trial","5c6e7cc242fe6b000190936a","pdtGdRU46vg5MJQUklD9KU0PiYJ2","3","images/choice_trial_16.png","images/choice_trial_3.png","images/pattern_6.png","f","f","750","16","3","5","0","17","1","1","16","130","","","","",""
"html-keyboard-response","92","178732","0.0-40.0-1.0","","null","<div style=""display: flex; flex-direction: column; align-items: center; margin-top: -40px;""><img src=""images/pattern_6.png"" style=""width: 234px; height: 230px; margin-top: -50px;""><div style=""display: flex; justify-content: space-between; margin-top: 33px;""><img src=""images/choice_trial_16.png"" style=""width: 408px; height: 417px; margin-right: 608px;""></div></div>","null","delaylearn","learning","display_response","5c6e7cc242fe6b000190936a","pdtGdRU46vg5MJQUklD9KU0PiYJ2","","","","","","","","","","","","","","","","","chosen stimuli: images/choice_trial_16.png","","","",""
"html-keyboard-response","93","179485","0.0-40.0-2.0","","null","","null","delaylearn","learning","feedback_duration_window","5c6e7cc242fe6b000190936a","pdtGdRU46vg5MJQUklD9KU0PiYJ2","","","","","","","","","","","","","","","","","","750","","",""
"html-keyboard-response","94","180987","0.0-40.0-3.0","","null","<div style='margin:auto;width: auto; font-size: 150%'><span style='font-weight: bold; font-size: 100px; color: green;'>+10 points!</span><br><br></div>","null","delaylearn","learning","feedback_image_window","5c6e7cc242fe6b000190936a","pdtGdRU46vg5MJQUklD9KU0PiYJ2","","","","","","","","","","","","","","","","","","","","",""
"html-keyboard-response","95","183469","0.0-41.0","","null","<div style=""font-size:100px;"">+</div>","null","delaylearn","learning","ITI","5c6e7cc242fe6b000190936a","pdtGdRU46vg5MJQUklD9KU0PiYJ2","","","","","","","","","","","","","","","","","","","2480","",""
"html-keyboard-response","96","184776","0.0-42.0-0.0","","1305","<div style=""display: flex; flex-direction: column; align-items: center; margin-top: -40px;""><img src=""images/pattern_4.png"" style=""width: 234px; height: 230px; margin-top: -50px;""><div style=""display: flex; justify-content: space-between; margin-top: 33px;""><img src=""images/choice_trial_9.png"" style=""width: 408px; height: 417px; margin-right: 200px;""><img src=""images/choice_trial_15.png"" style=""width: 408px; height: 417px;""></div></div>","j","delaylearn","learning","trial","5c6e7cc242fe6b000190936a","pdtGdRU46vg5MJQUklD9KU0PiYJ2","3","images/choice_trial_9.png","images/choice_trial_15.png","images/pattern_4.png","j","j","7000","9","15","3","1","18","1","1","15","140","","","","",""
"html-keyboard-response","97","185779","0.0-42.0-1.0","","null","<div style=""display: flex; flex-direction: column; align-items: center; margin-top: -40px;""><img src=""images/pattern_4.png"" style=""width: 234px; height: 230px; margin-top: -50px;""><div style=""display: flex; justify-content: space-between; margin-top: 33px;""><img src=""images/choice_trial_15.png"" style=""width: 408px; height: 417px; margin-left:608px;""></div></div>","null","delaylearn","learning","display_response","5c6e7cc242fe6b000190936a","pdtGdRU46vg5MJQUklD9KU0PiYJ2","","","","","","","","","","","","","","","","","chosen stimuli: images/choice_trial_15.png","","","",""
"html-keyboard-response","98","192782","0.0-42.0-2.0","","null","","null","delaylearn","learning","feedback_duration_window","5c6e7cc242fe6b000190936a","pdtGdRU46vg5MJQUklD9KU0PiYJ2","","","","","","","","","","","","","","","","","","7000","","",""
"html-keyboard-response","99","194286","0.0-42.0-3.0","","null","<div style='margin:auto;width: auto; font-size: 150%'><span style='font-weight: bold; font-size: 100px; color: green;'>+10 points!</span><br><br></div>","null","delaylearn","learning","feedback_image_window","5c6e7cc242fe6b000190936a","pdtGdRU46vg5MJQUklD9KU0PiYJ2","","","","","","","","","","","","","","","","","","","","",""
"html-keyboard-response","100","196042","0.0-43.0","","null","<div style=""font-size:100px;"">+</div>","null","delaylearn","learning","ITI","5c6e7cc242fe6b000190936a","pdtGdRU46vg5MJQUklD9KU0PiYJ2","","","","","","","","","","","","","","","","","","","1753","",""
"html-keyboard-response","101","197950","0.0-44.0-0.0","","1903","<div style=""display: flex; flex-direction: column; align-items: center; margin-top: -40px;""><img src=""images/pattern_7.png"" style=""width: 234px; height: 230px; margin-top: -50px;""><div style=""display: flex; justify-content: space-between; margin-top: 33px;""><img src=""images/choice_trial_6.png"" style=""width: 408px; height: 417px; margin-right: 200px;""><img src=""images/choice_trial_12.png"" style=""width: 408px; height: 417px;""></div></div>","f","delaylearn","learning","trial","5c6e7cc242fe6b000190936a","pdtGdRU46vg5MJQUklD9KU0PiYJ2","3","images/choice_trial_6.png","images/choice_trial_12.png","images/pattern_7.png","j","f","750","6","12","6","0","19","1","0","6","140","","","","",""
"html-keyboard-response","102","198954","0.0-44.0-1.0","","null","<div style=""display: flex; flex-direction: column; align-items: center; margin-top: -40px;""><img src=""images/pattern_7.png"" style=""width: 234px; height: 230px; margin-top: -50px;""><div style=""display: flex; justify-content: space-between; margin-top: 33px;""><img src=""images/choice_trial_6.png"" style=""width: 408px; height: 417px; margin-right: 608px;""></div></div>","null","delaylearn","learning","display_response","5c6e7cc242fe6b000190936a","pdtGdRU46vg5MJQUklD9KU0PiYJ2","","","","","","","","","","","","","","","","","chosen stimuli: images/choice_trial_6.png","","","",""
"html-keyboard-response","103","199707","0.0-44.0-2.0","","null","","null","delaylearn","learning","feedback_duration_window","5c6e7cc242fe6b000190936a","pdtGdRU46vg5MJQUklD9KU0PiYJ2","","","","","","","","","","","","","","","","","","750","","",""
"html-keyboard-response","104","201210","0.0-44.0-3.0","","null","<div style='margin:auto;width: auto; font-size: 150%'><span style='font-weight: bold; font-size: 100px; color: red;'>0 points!</span><br><br></div>","null","delaylearn","learning","feedback_image_window","5c6e7cc242fe6b000190936a","pdtGdRU46vg5MJQUklD9KU0PiYJ2","","","","","","","","","","","","","","","","","","","","",""
"html-keyboard-response","105","203199","0.0-45.0","","null","<div style=""font-size:100px;"">+</div>","null","delaylearn","learning","ITI","5c6e7cc242fe6b000190936a","pdtGdRU46vg5MJQUklD9KU0PiYJ2","","","","","","","","","","","","","","","","","","","1987","",""
"html-keyboard-response","106","204471","0.0-46.0-0.0","","1268","<div style=""display: flex; flex-direction: column; align-items: center; margin-top: -40px;""><img src=""images/pattern_1.png"" style=""width: 234px; height: 230px; margin-top: -50px;""><div style=""display: flex; justify-content: space-between; margin-top: 33px;""><img src=""images/choice_trial_14.png"" style=""width: 408px; height: 417px; margin-right: 200px;""><img src=""images/choice_trial_8.png"" style=""width: 408px; height: 417px;""></div></div>","f","delaylearn","learning","trial","5c6e7cc242fe6b000190936a","pdtGdRU46vg5MJQUklD9KU0PiYJ2","3","images/choice_trial_14.png","images/choice_trial_8.png","images/pattern_1.png","f","f","7000","14","8","1","0","20","1","1","14","150","","","","",""
"html-keyboard-response","107","205475","0.0-46.0-1.0","","null","<div style=""display: flex; flex-direction: column; align-items: center; margin-top: -40px;""><img src=""images/pattern_1.png"" style=""width: 234px; height: 230px; margin-top: -50px;""><div style=""display: flex; justify-content: space-between; margin-top: 33px;""><img src=""images/choice_trial_14.png"" style=""width: 408px; height: 417px; margin-right: 608px;""></div></div>","null","delaylearn","learning","display_response","5c6e7cc242fe6b000190936a","pdtGdRU46vg5MJQUklD9KU0PiYJ2","","","","","","","","","","","","","","","","","chosen stimuli: images/choice_trial_14.png","","","",""
"html-keyboard-response","108","212478","0.0-46.0-2.0","","null","","null","delaylearn","learning","feedback_duration_window","5c6e7cc242fe6b000190936a","pdtGdRU46vg5MJQUklD9KU0PiYJ2","","","","","","","","","","","","","","","","","","7000","","",""
"html-keyboard-response","109","213981","0.0-46.0-3.0","","null","<div style='margin:auto;width: auto; font-size: 150%'><span style='font-weight: bold; font-size: 100px; color: green;'>+10 points!</span><br><br></div>","null","delaylearn","learning","feedback_image_window","5c6e7cc242fe6b000190936a","pdtGdRU46vg5MJQUklD9KU0PiYJ2","","","","","","","","","","","","","","","","","","","","",""
"html-keyboard-response","110","216335","0.0-47.0","","null","<div style=""font-size:100px;"">+</div>","null","delaylearn","learning","ITI","5c6e7cc242fe6b000190936a","pdtGdRU46vg5MJQUklD9KU0PiYJ2","","","","","","","","","","","","","","","","","","","2350","",""
"html-keyboard-response","111","219341","0.0-48.0-0.0","","null","<div style=""display: flex; flex-direction: column; align-items: center; margin-top: -40px;""><img src=""images/pattern_6.png"" style=""width: 234px; height: 230px; margin-top: -50px;""><div style=""display: flex; justify-content: space-between; margin-top: 33px;""><img src=""images/choice_trial_3.png"" style=""width: 408px; height: 417px; margin-right: 200px;""><img src=""images/choice_trial_16.png"" style=""width: 408px; height: 417px;""></div></div>","null","delaylearn","learning","trial","5c6e7cc242fe6b000190936a","pdtGdRU46vg5MJQUklD9KU0PiYJ2","3","images/choice_trial_3.png","images/choice_trial_16.png","images/pattern_6.png","j","j","750","3","16","5","1","21","0","0","0","150","","","","",""
"html-keyboard-response","112","220346","0.0-48.0-1.0","","null","<div style='font-weight: bold; font-size: 75px; color: red;'>Missed Trial <br><br><br><br> Please respond faster</div>","null","delaylearn","learning","display_response","5c6e7cc242fe6b000190936a","pdtGdRU46vg5MJQUklD9KU0PiYJ2","","","","","","","","","","","","","","","","","Missed trial","","","",""
"html-keyboard-response","113","220349","0.0-48.0-2.0","","null","","null","delaylearn","learning","feedback_duration_window","5c6e7cc242fe6b000190936a","pdtGdRU46vg5MJQUklD9KU0PiYJ2","","","","","","","","","","","","","","","","","","0","","",""
"html-keyboard-response","114","220350","0.0-48.0-3.0","","null","","null","delaylearn","learning","feedback_image_window","5c6e7cc242fe6b000190936a","pdtGdRU46vg5MJQUklD9KU0PiYJ2","","","","","","","","","","","","","","","","","","","","",""
"html-keyboard-response","115","221861","0.0-49.0","","null","<div style=""font-size:100px;"">+</div>","null","delaylearn","learning","ITI","5c6e7cc242fe6b000190936a","pdtGdRU46vg5MJQUklD9KU0PiYJ2","","","","","","","","","","","","","","","","","","","1509","",""
"html-keyboard-response","116","222713","0.0-50.0-0.0","","847","<div style=""display: flex; flex-direction: column; align-items: center; margin-top: -40px;""><img src=""images/pattern_4.png"" style=""width: 234px; height: 230px; margin-top: -50px;""><div style=""display: flex; justify-content: space-between; margin-top: 33px;""><img src=""images/choice_trial_15.png"" style=""width: 408px; height: 417px; margin-right: 200px;""><img src=""images/choice_trial_9.png"" style=""width: 408px; height: 417px;""></div></div>","f","delaylearn","learning","trial","5c6e7cc242fe6b000190936a","pdtGdRU46vg5MJQUklD9KU0PiYJ2","3","images/choice_trial_15.png","images/choice_trial_9.png","images/pattern_4.png","f","f","7000","15","9","3","0","22","1","1","15","160","","","","",""
"html-keyboard-response","117","223716","0.0-50.0-1.0","","null","<div style=""display: flex; flex-direction: column; align-items: center; margin-top: -40px;""><img src=""images/pattern_4.png"" style=""width: 234px; height: 230px; margin-top: -50px;""><div style=""display: flex; justify-content: space-between; margin-top: 33px;""><img src=""images/choice_trial_15.png"" style=""width: 408px; height: 417px; margin-right: 608px;""></div></div>","null","delaylearn","learning","display_response","5c6e7cc242fe6b000190936a","pdtGdRU46vg5MJQUklD9KU0PiYJ2","","","","","","","","","","","","","","","","","chosen stimuli: images/choice_trial_15.png","","","",""
"html-keyboard-response","118","230719","0.0-50.0-2.0","","null","","null","delaylearn","learning","feedback_duration_window","5c6e7cc242fe6b000190936a","pdtGdRU46vg5MJQUklD9KU0PiYJ2","","","","","","","","","","","","","","","","","","7000","","",""
"html-keyboard-response","119","232222","0.0-50.0-3.0","","null","<div style='margin:auto;width: auto; font-size: 150%'><span style='font-weight: bold; font-size: 100px; color: green;'>+10 points!</span><br><br></div>","null","delaylearn","learning","feedback_image_window","5c6e7cc242fe6b000190936a","pdtGdRU46vg5MJQUklD9KU0PiYJ2","","","","","","","","","","","","","","","","","","","","",""
"html-keyboard-response","120","232725","0.0-51.0-0.0","","null","","null","","","mood_trial_fixation","","","","","","","","","","","","","","","","","","","","","","",""
"lmdlab-html-vas-response","121","236807","0.0-51.0-1.0","","3069","How happy are you right now?","0.5104166666666666","delaylearn","learning","mood_trial","5c6e7cc242fe6b000190936a","pdtGdRU46vg5MJQUklD9KU0PiYJ2","","","","","","","","","","","","","","","","","","","","[""Very unhappy"",""Very happy""]",""
"html-keyboard-response","122","239116","0.0-52.0","","null","<div style=""font-size:100px;"">+</div>","null","delaylearn","learning","ITI","5c6e7cc242fe6b000190936a","pdtGdRU46vg5MJQUklD9KU0PiYJ2","","","","","","","","","","","","","","","","","","","2307","",""
"html-keyboard-response","123","240389","0.0-53.0-0.0","","1270.9999999999418","<div style=""display: flex; flex-direction: column; align-items: center; margin-top: -40px;""><img src=""images/pattern_7.png"" style=""width: 234px; height: 230px; margin-top: -50px;""><div style=""display: flex; justify-content: space-between; margin-top: 33px;""><img src=""images/choice_trial_12.png"" style=""width: 408px; height: 417px; margin-right: 200px;""><img src=""images/choice_trial_6.png"" style=""width: 408px; height: 417px;""></div></div>","f","delaylearn","learning","trial","5c6e7cc242fe6b000190936a","pdtGdRU46vg5MJQUklD9KU0PiYJ2","3","images/choice_trial_12.png","images/choice_trial_6.png","images/pattern_7.png","j","j","750","12","6","6","1","23","0","0","12","160","","","","",""
"html-keyboard-response","124","241392","0.0-53.0-1.0","","null","<div style=""display: flex; flex-direction: column; align-items: center; margin-top: -40px;""><img src=""images/pattern_7.png"" style=""width: 234px; height: 230px; margin-top: -50px;""><div style=""display: flex; justify-content: space-between; margin-top: 33px;""><img src=""images/choice_trial_12.png"" style=""width: 408px; height: 417px; margin-right: 608px;""></div></div>","null","delaylearn","learning","display_response","5c6e7cc242fe6b000190936a","pdtGdRU46vg5MJQUklD9KU0PiYJ2","","","","","","","","","","","","","","","","","chosen stimuli: images/choice_trial_12.png","","","",""
"html-keyboard-response","125","242145","0.0-53.0-2.0","","null","","null","delaylearn","learning","feedback_duration_window","5c6e7cc242fe6b000190936a","pdtGdRU46vg5MJQUklD9KU0PiYJ2","","","","","","","","","","","","","","","","","","750","","",""
"html-keyboard-response","126","243648","0.0-53.0-3.0","","null","<div style='margin:auto;width: auto; font-size: 150%'><span style='font-weight: bold; font-size: 100px; color: red;'>0 points!</span><br><br></div>","null","delaylearn","learning","feedback_image_window","5c6e7cc242fe6b000190936a","pdtGdRU46vg5MJQUklD9KU0PiYJ2","","","","","","","","","","","","","","","","","","","","",""
"html-keyboard-response","127","245603","0.0-54.0","","null","<div style=""font-size:100px;"">+</div>","null","delaylearn","learning","ITI","5c6e7cc242fe6b000190936a","pdtGdRU46vg5MJQUklD9KU0PiYJ2","","","","","","","","","","","","","","","","","","","1952","",""
"html-keyboard-response","128","246826","0.0-55.0-0.0","","1217","<div style=""display: flex; flex-direction: column; align-items: center; margin-top: -40px;""><img src=""images/pattern_1.png"" style=""width: 234px; height: 230px; margin-top: -50px;""><div style=""display: flex; justify-content: space-between; margin-top: 33px;""><img src=""images/choice_trial_8.png"" style=""width: 408px; height: 417px; margin-right: 200px;""><img src=""images/choice_trial_14.png"" style=""width: 408px; height: 417px;""></div></div>","j","delaylearn","learning","trial","5c6e7cc242fe6b000190936a","pdtGdRU46vg5MJQUklD9KU0PiYJ2","3","images/choice_trial_8.png","images/choice_trial_14.png","images/pattern_1.png","f","j","7000","8","14","1","1","24","1","0","14","160","","","","",""
"html-keyboard-response","129","247830","0.0-55.0-1.0","","null","<div style=""display: flex; flex-direction: column; align-items: center; margin-top: -40px;""><img src=""images/pattern_1.png"" style=""width: 234px; height: 230px; margin-top: -50px;""><div style=""display: flex; justify-content: space-between; margin-top: 33px;""><img src=""images/choice_trial_14.png"" style=""width: 408px; height: 417px; margin-left:608px;""></div></div>","null","delaylearn","learning","display_response","5c6e7cc242fe6b000190936a","pdtGdRU46vg5MJQUklD9KU0PiYJ2","","","","","","","","","","","","","","","","","chosen stimuli: images/choice_trial_14.png","","","",""
"html-keyboard-response","130","254833","0.0-55.0-2.0","","null","","null","delaylearn","learning","feedback_duration_window","5c6e7cc242fe6b000190936a","pdtGdRU46vg5MJQUklD9KU0PiYJ2","","","","","","","","","","","","","","","","","","7000","","",""
"html-keyboard-response","131","256337","0.0-55.0-3.0","","null","<div style='margin:auto;width: auto; font-size: 150%'><span style='font-weight: bold; font-size: 100px; color: red;'>0 points!</span><br><br></div>","null","delaylearn","learning","feedback_image_window","5c6e7cc242fe6b000190936a","pdtGdRU46vg5MJQUklD9KU0PiYJ2","","","","","","","","","","","","","","","","","","","","",""
"html-keyboard-response","132","258118","0.0-56.0","","null","<div style=""font-size:100px;"">+</div>","null","delaylearn","learning","ITI","5c6e7cc242fe6b000190936a","pdtGdRU46vg5MJQUklD9KU0PiYJ2","","","","","","","","","","","","","","","","","","","1778","",""
"html-keyboard-response","133","259197","0.0-57.0-0.0","","1075","<div style=""display: flex; flex-direction: column; align-items: center; margin-top: -40px;""><img src=""images/pattern_5.png"" style=""width: 234px; height: 230px; margin-top: -50px;""><div style=""display: flex; justify-content: space-between; margin-top: 33px;""><img src=""images/choice_trial_2.png"" style=""width: 408px; height: 417px; margin-right: 200px;""><img src=""images/choice_trial_11.png"" style=""width: 408px; height: 417px;""></div></div>","j","delaylearn","learning","trial","5c6e7cc242fe6b000190936a","pdtGdRU46vg5MJQUklD9KU0PiYJ2","3","images/choice_trial_2.png","images/choice_trial_11.png","images/pattern_5.png","j","j","750","2","11","4","1","25","1","1","11","170","","","","",""
"html-keyboard-response","134","260201","0.0-57.0-1.0","","null","<div style=""display: flex; flex-direction: column; align-items: center; margin-top: -40px;""><img src=""images/pattern_5.png"" style=""width: 234px; height: 230px; margin-top: -50px;""><div style=""display: flex; justify-content: space-between; margin-top: 33px;""><img src=""images/choice_trial_11.png"" style=""width: 408px; height: 417px; margin-left:608px;""></div></div>","null","delaylearn","learning","display_response","5c6e7cc242fe6b000190936a","pdtGdRU46vg5MJQUklD9KU0PiYJ2","","","","","","","","","","","","","","","","","chosen stimuli: images/choice_trial_11.png","","","",""
"html-keyboard-response","135","260953","0.0-57.0-2.0","","null","","null","delaylearn","learning","feedback_duration_window","5c6e7cc242fe6b000190936a","pdtGdRU46vg5MJQUklD9KU0PiYJ2","","","","","","","","","","","","","","","","","","750","","",""
"html-keyboard-response","136","262457","0.0-57.0-3.0","","null","<div style='margin:auto;width: auto; font-size: 150%'><span style='font-weight: bold; font-size: 100px; color: green;'>+10 points!</span><br><br></div>","null","delaylearn","learning","feedback_image_window","5c6e7cc242fe6b000190936a","pdtGdRU46vg5MJQUklD9KU0PiYJ2","","","","","","","","","","","","","","","","","","","","",""
"html-keyboard-response","137","264242","0.0-58.0","","null","<div style=""font-size:100px;"">+</div>","null","delaylearn","learning","ITI","5c6e7cc242fe6b000190936a","pdtGdRU46vg5MJQUklD9KU0PiYJ2","","","","","","","","","","","","","","","","","","","1782","",""
"html-keyboard-response","138","265397","0.0-59.0-0.0","","1150","<div style=""display: flex; flex-direction: column; align-items: center; margin-top: -40px;""><img src=""images/pattern_3.png"" style=""width: 234px; height: 230px; margin-top: -50px;""><div style=""display: flex; justify-content: space-between; margin-top: 33px;""><img src=""images/choice_trial_10.png"" style=""width: 408px; height: 417px; margin-right: 200px;""><img src=""images/choice_trial_13.png"" style=""width: 408px; height: 417px;""></div></div>","j","delaylearn","learning","trial","5c6e7cc242fe6b000190936a","pdtGdRU46vg5MJQUklD9KU0PiYJ2","3","images/choice_trial_10.png","images/choice_trial_13.png","images/pattern_3.png","j","j","7000","10","13","2","1","26","1","1","13","180","","","","",""
"html-keyboard-response","139","266400","0.0-59.0-1.0","","null","<div style=""display: flex; flex-direction: column; align-items: center; margin-top: -40px;""><img src=""images/pattern_3.png"" style=""width: 234px; height: 230px; margin-top: -50px;""><div style=""display: flex; justify-content: space-between; margin-top: 33px;""><img src=""images/choice_trial_13.png"" style=""width: 408px; height: 417px; margin-left:608px;""></div></div>","null","delaylearn","learning","display_response","5c6e7cc242fe6b000190936a","pdtGdRU46vg5MJQUklD9KU0PiYJ2","","","","","","","","","","","","","","","","","chosen stimuli: images/choice_trial_13.png","","","",""
"html-keyboard-response","140","273402","0.0-59.0-2.0","","null","","null","delaylearn","learning","feedback_duration_window","5c6e7cc242fe6b000190936a","pdtGdRU46vg5MJQUklD9KU0PiYJ2","","","","","","","","","","","","","","","","","","7000","","",""
"html-keyboard-response","141","274905","0.0-59.0-3.0","","null","<div style='margin:auto;width: auto; font-size: 150%'><span style='font-weight: bold; font-size: 100px; color: green;'>+10 points!</span><br><br></div>","null","delaylearn","learning","feedback_image_window","5c6e7cc242fe6b000190936a","pdtGdRU46vg5MJQUklD9KU0PiYJ2","","","","","","","","","","","","","","","","","","","","",""
"lmdlab-html-vas-response","142","279808","0.0-60.0-0.0","","3395","*How <b><u>confident</u></b> are you feeling about your answers at this moment?*","0.10625","rewlearn","rate_confidence","","5c6e7cc242fe6b000190936a","pdtGdRU46vg5MJQUklD9KU0PiYJ2","","","","","","","","","","","","","","","","","","","","[""No confidence"",""Complete confidence""]",""
"lmdlab-rest-trial-limit","143","321144","0.0-60.0-1.0","","39829","<div style=""font-size:40px;""><b>Please take a break!</b><br><br><br><br><p>Great work: you earned 180 points.<br><br><br><p>You have completed part(s) 1 of 5.<br><br><br><br>When you are ready to continue<br><br><br>please click the button.</p><br><br>","0","delaylearn","learning","break","5c6e7cc242fe6b000190936a","pdtGdRU46vg5MJQUklD9KU0PiYJ2","","","","","","","","","","","","","","","","","","","","","0"
"html-keyboard-response","144","324148","0.0-60.0-2.0","","null","<div style=""font-size:100px;"">+</div>","null","delaylearn","learning","pre_fixation","5c6e7cc242fe6b000190936a","","","","","","","","","","","","","","","","","","","","","",""
"lmdlab-html-vas-response","145","327456","0.0-60.0-3.0-0.0","","2298","How happy are you right now?","0.3770833333333333","delaylearn","learning","mood_baseline","5c6e7cc242fe6b000190936a","pdtGdRU46vg5MJQUklD9KU0PiYJ2","","","","","","","","","","","","","","","","","","","","[""Very unhappy"",""Very happy""]",""
"html-keyboard-response","146","328958","0.0-60.0-3.0-1.0","","null","","null","","","mood_baseline_fixation","","","","","","","","","","","","","","","","","","","","","","",""
"html-keyboard-response","147","331167","0.0-61.0","","null","<div style=""font-size:100px;"">+</div>","null","delaylearn","learning","ITI","5c6e7cc242fe6b000190936a","pdtGdRU46vg5MJQUklD9KU0PiYJ2","","","","","","","","","","","","","","","","","","","2207","",""
"html-keyboard-response","148","332479","0.0-62.0-0.0","","1308.9999999999418","<div style=""display: flex; flex-direction: column; align-items: center; margin-top: -40px;""><img src=""images/pattern_7.png"" style=""width: 234px; height: 230px; margin-top: -50px;""><div style=""display: flex; justify-content: space-between; margin-top: 33px;""><img src=""images/choice_trial_12.png"" style=""width: 408px; height: 417px; margin-right: 200px;""><img src=""images/choice_trial_6.png"" style=""width: 408px; height: 417px;""></div></div>","f","delaylearn","learning","trial","5c6e7cc242fe6b000190936a","pdtGdRU46vg5MJQUklD9KU0PiYJ2","3","images/choice_trial_12.png","images/choice_trial_6.png","images/pattern_7.png","j","j","750","12","6","6","1","27","0","0","12","180","","","","",""
"html-keyboard-response","149","333482","0.0-62.0-1.0","","null","<div style=""display: flex; flex-direction: column; align-items: center; margin-top: -40px;""><img src=""images/pattern_7.png"" style=""width: 234px; height: 230px; margin-top: -50px;""><div style=""display: flex; justify-content: space-between; margin-top: 33px;""><img src=""images/choice_trial_12.png"" style=""width: 408px; height: 417px; margin-right: 608px;""></div></div>","null","delaylearn","learning","display_response","5c6e7cc242fe6b000190936a","pdtGdRU46vg5MJQUklD9KU0PiYJ2","","","","","","","","","","","","","","","","","chosen stimuli: images/choice_trial_12.png","","","",""
"html-keyboard-response","150","334235","0.0-62.0-2.0","","null","","null","delaylearn","learning","feedback_duration_window","5c6e7cc242fe6b000190936a","pdtGdRU46vg5MJQUklD9KU0PiYJ2","","","","","","","","","","","","","","","","","","750","","",""
"html-keyboard-response","151","335740","0.0-62.0-3.0","","null","<div style='margin:auto;width: auto; font-size: 150%'><span style='font-weight: bold; font-size: 100px; color: red;'>0 points!</span><br><br></div>","null","delaylearn","learning","feedback_image_window","5c6e7cc242fe6b000190936a","pdtGdRU46vg5MJQUklD9KU0PiYJ2","","","","","","","","","","","","","","","","","","","","",""
"html-keyboard-response","152","336244","0.0-63.0-0.0","","null","","null","","","mood_trial_fixation","","","","","","","","","","","","","","","","","","","","","","",""
"lmdlab-html-vas-response","153","339887","0.0-63.0-1.0","","2637","How happy are you right now?","0.44583333333333336","delaylearn","learning","mood_trial","5c6e7cc242fe6b000190936a","pdtGdRU46vg5MJQUklD9KU0PiYJ2","","","","","","","","","","","","","","","","","","","","[""Very unhappy"",""Very happy""]",""
"html-keyboard-response","154","342211","0.0-64.0","","null","<div style=""font-size:100px;"">+</div>","null","delaylearn","learning","ITI","5c6e7cc242fe6b000190936a","pdtGdRU46vg5MJQUklD9KU0PiYJ2","","","","","","","","","","","","","","","","","","","2322","",""
"html-keyboard-response","155","344170","0.0-65.0-0.0","","1954","<div style=""display: flex; flex-direction: column; align-items: center; margin-top: -40px;""><img src=""images/pattern_1.png"" style=""width: 234px; height: 230px; margin-top: -50px;""><div style=""display: flex; justify-content: space-between; margin-top: 33px;""><img src=""images/choice_trial_14.png"" style=""width: 408px; height: 417px; margin-right: 200px;""><img src=""images/choice_trial_8.png"" style=""width: 408px; height: 417px;""></div></div>","f","delaylearn","learning","trial","5c6e7cc242fe6b000190936a","pdtGdRU46vg5MJQUklD9KU0PiYJ2","3","images/choice_trial_14.png","images/choice_trial_8.png","images/pattern_1.png","f","f","7000","14","8","1","0","28","1","1","14","190","","","","",""
"html-keyboard-response","156","345174","0.0-65.0-1.0","","null","<div style=""display: flex; flex-direction: column; align-items: center; margin-top: -40px;""><img src=""images/pattern_1.png"" style=""width: 234px; height: 230px; margin-top: -50px;""><div style=""display: flex; justify-content: space-between; margin-top: 33px;""><img src=""images/choice_trial_14.png"" style=""width: 408px; height: 417px; margin-right: 608px;""></div></div>","null","delaylearn","learning","display_response","5c6e7cc242fe6b000190936a","pdtGdRU46vg5MJQUklD9KU0PiYJ2","","","","","","","","","","","","","","","","","chosen stimuli: images/choice_trial_14.png","","","",""
"html-keyboard-response","157","352177","0.0-65.0-2.0","","null","","null","delaylearn","learning","feedback_duration_window","5c6e7cc242fe6b000190936a","pdtGdRU46vg5MJQUklD9KU0PiYJ2","","","","","","","","","","","","","","","","","","7000","","",""
"html-keyboard-response","158","353681","0.0-65.0-3.0","","null","<div style='margin:auto;width: auto; font-size: 150%'><span style='font-weight: bold; font-size: 100px; color: green;'>+10 points!</span><br><br></div>","null","delaylearn","learning","feedback_image_window","5c6e7cc242fe6b000190936a","pdtGdRU46vg5MJQUklD9KU0PiYJ2","","","","","","","","","","","","","","","","","","","","",""
"html-keyboard-response","159","355622","0.0-66.0","","null","<div style=""font-size:100px;"">+</div>","null","delaylearn","learning","ITI","5c6e7cc242fe6b000190936a","pdtGdRU46vg5MJQUklD9KU0PiYJ2","","","","","","","","","","","","","","","","","","","1937","",""
"html-keyboard-response","160","356760","0.0-67.0-0.0","","1133","<div style=""display: flex; flex-direction: column; align-items: center; margin-top: -40px;""><img src=""images/pattern_5.png"" style=""width: 234px; height: 230px; margin-top: -50px;""><div style=""display: flex; justify-content: space-between; margin-top: 33px;""><img src=""images/choice_trial_11.png"" style=""width: 408px; height: 417px; margin-right: 200px;""><img src=""images/choice_trial_2.png"" style=""width: 408px; height: 417px;""></div></div>","f","delaylearn","learning","trial","5c6e7cc242fe6b000190936a","pdtGdRU46vg5MJQUklD9KU0PiYJ2","3","images/choice_trial_11.png","images/choice_trial_2.png","images/pattern_5.png","f","f","750","11","2","4","0","29","1","1","11","200","","","","",""
"html-keyboard-response","161","357764","0.0-67.0-1.0","","null","<div style=""display: flex; flex-direction: column; align-items: center; margin-top: -40px;""><img src=""images/pattern_5.png"" style=""width: 234px; height: 230px; margin-top: -50px;""><div style=""display: flex; justify-content: space-between; margin-top: 33px;""><img src=""images/choice_trial_11.png"" style=""width: 408px; height: 417px; margin-right: 608px;""></div></div>","null","delaylearn","learning","display_response","5c6e7cc242fe6b000190936a","pdtGdRU46vg5MJQUklD9KU0PiYJ2","","","","","","","","","","","","","","","","","chosen stimuli: images/choice_trial_11.png","","","",""
"html-keyboard-response","162","358518","0.0-67.0-2.0","","null","","null","delaylearn","learning","feedback_duration_window","5c6e7cc242fe6b000190936a","pdtGdRU46vg5MJQUklD9KU0PiYJ2","","","","","","","","","","","","","","","","","","750","","",""
"html-keyboard-response","163","360021","0.0-67.0-3.0","","null","<div style='margin:auto;width: auto; font-size: 150%'><span style='font-weight: bold; font-size: 100px; color: green;'>+10 points!</span><br><br></div>","null","delaylearn","learning","feedback_image_window","5c6e7cc242fe6b000190936a","pdtGdRU46vg5MJQUklD9KU0PiYJ2","","","","","","","","","","","","","","","","","","","","",""
"html-keyboard-response","164","362195","0.0-68.0","","null","<div style=""font-size:100px;"">+</div>","null","delaylearn","learning","ITI","5c6e7cc242fe6b000190936a","pdtGdRU46vg5MJQUklD9KU0PiYJ2","","","","","","","","","","","","","","","","","","","2170","",""
"html-keyboard-response","165","363043","0.0-69.0-0.0","","844","<div style=""display: flex; flex-direction: column; align-items: center; margin-top: -40px;""><img src=""images/pattern_6.png"" style=""width: 234px; height: 230px; margin-top: -50px;""><div style=""display: flex; justify-content: space-between; margin-top: 33px;""><img src=""images/choice_trial_3.png"" style=""width: 408px; height: 417px; margin-right: 200px;""><img src=""images/choice_trial_16.png"" style=""width: 408px; height: 417px;""></div></div>","j","delaylearn","learning","trial","5c6e7cc242fe6b000190936a","pdtGdRU46vg5MJQUklD9KU0PiYJ2","3","images/choice_trial_3.png","images/choice_trial_16.png","images/pattern_6.png","j","j","750","3","16","5","1","30","1","1","16","210","","","","",""
"html-keyboard-response","166","364046","0.0-69.0-1.0","","null","<div style=""display: flex; flex-direction: column; align-items: center; margin-top: -40px;""><img src=""images/pattern_6.png"" style=""width: 234px; height: 230px; margin-top: -50px;""><div style=""display: flex; justify-content: space-between; margin-top: 33px;""><img src=""images/choice_trial_16.png"" style=""width: 408px; height: 417px; margin-left:608px;""></div></div>","null","delaylearn","learning","display_response","5c6e7cc242fe6b000190936a","pdtGdRU46vg5MJQUklD9KU0PiYJ2","","","","","","","","","","","","","","","","","chosen stimuli: images/choice_trial_16.png","","","",""
"html-keyboard-response","167","364799","0.0-69.0-2.0","","null","","null","delaylearn","learning","feedback_duration_window","5c6e7cc242fe6b000190936a","pdtGdRU46vg5MJQUklD9KU0PiYJ2","","","","","","","","","","","","","","","","","","750","","",""
"html-keyboard-response","168","366303","0.0-69.0-3.0","","null","<div style='margin:auto;width: auto; font-size: 150%'><span style='font-weight: bold; font-size: 100px; color: green;'>+10 points!</span><br><br></div>","null","delaylearn","learning","feedback_image_window","5c6e7cc242fe6b000190936a","pdtGdRU46vg5MJQUklD9KU0PiYJ2","","","","","","","","","","","","","","","","","","","","",""
"html-keyboard-response","169","366805","0.0-70.0-0.0","","null","","null","","","mood_trial_fixation","","","","","","","","","","","","","","","","","","","","","","",""
"lmdlab-html-vas-response","170","371859","0.0-70.0-1.0","","4042","How happy are you right now?","0.33125","delaylearn","learning","mood_trial","5c6e7cc242fe6b000190936a","pdtGdRU46vg5MJQUklD9KU0PiYJ2","","","","","","","","","","","","","","","","","","","","[""Very unhappy"",""Very happy""]",""
"html-keyboard-response","171","373920","0.0-71.0","","null","<div style=""font-size:100px;"">+</div>","null","delaylearn","learning","ITI","5c6e7cc242fe6b000190936a","pdtGdRU46vg5MJQUklD9KU0PiYJ2","","","","","","","","","","","","","","","","","","","2059","",""
"html-keyboard-response","172","375537","0.0-72.0-0.0","","1612","<div style=""display: flex; flex-direction: column; align-items: center; margin-top: -40px;""><img src=""images/pattern_4.png"" style=""width: 234px; height: 230px; margin-top: -50px;""><div style=""display: flex; justify-content: space-between; margin-top: 33px;""><img src=""images/choice_trial_9.png"" style=""width: 408px; height: 417px; margin-right: 200px;""><img src=""images/choice_trial_15.png"" style=""width: 408px; height: 417px;""></div></div>","j","delaylearn","learning","trial","5c6e7cc242fe6b000190936a","pdtGdRU46vg5MJQUklD9KU0PiYJ2","3","images/choice_trial_9.png","images/choice_trial_15.png","images/pattern_4.png","j","j","7000","9","15","3","1","31","1","1","15","220","","","","",""
"html-keyboard-response","173","376540","0.0-72.0-1.0","","null","<div style=""display: flex; flex-direction: column; align-items: center; margin-top: -40px;""><img src=""images/pattern_4.png"" style=""width: 234px; height: 230px; margin-top: -50px;""><div style=""display: flex; justify-content: space-between; margin-top: 33px;""><img src=""images/choice_trial_15.png"" style=""width: 408px; height: 417px; margin-left:608px;""></div></div>","null","delaylearn","learning","display_response","5c6e7cc242fe6b000190936a","pdtGdRU46vg5MJQUklD9KU0PiYJ2","","","","","","","","","","","","","","","","","chosen stimuli: images/choice_trial_15.png","","","",""
"html-keyboard-response","174","383543","0.0-72.0-2.0","","null","","null","delaylearn","learning","feedback_duration_window","5c6e7cc242fe6b000190936a","pdtGdRU46vg5MJQUklD9KU0PiYJ2","","","","","","","","","","","","","","","","","","7000","","",""
"html-keyboard-response","175","385047","0.0-72.0-3.0","","null","<div style='margin:auto;width: auto; font-size: 150%'><span style='font-weight: bold; font-size: 100px; color: green;'>+10 points!</span><br><br></div>","null","delaylearn","learning","feedback_image_window","5c6e7cc242fe6b000190936a","pdtGdRU46vg5MJQUklD9KU0PiYJ2","","","","","","","","","","","","","","","","","","","","",""
"html-keyboard-response","176","387148","0.0-73.0","","null","<div style=""font-size:100px;"">+</div>","null","delaylearn","learning","ITI","5c6e7cc242fe6b000190936a","pdtGdRU46vg5MJQUklD9KU0PiYJ2","","","","","","","","","","","","","","","","","","","2099","",""
"html-keyboard-response","177","388862","0.0-74.0-0.0","","1709.0000000001164","<div style=""display: flex; flex-direction: column; align-items: center; margin-top: -40px;""><img src=""images/pattern_3.png"" style=""width: 234px; height: 230px; margin-top: -50px;""><div style=""display: flex; justify-content: space-between; margin-top: 33px;""><img src=""images/choice_trial_10.png"" style=""width: 408px; height: 417px; margin-right: 200px;""><img src=""images/choice_trial_13.png"" style=""width: 408px; height: 417px;""></div></div>","f","delaylearn","learning","trial","5c6e7cc242fe6b000190936a","pdtGdRU46vg5MJQUklD9KU0PiYJ2","3","images/choice_trial_10.png","images/choice_trial_13.png","images/pattern_3.png","j","j","7000","10","13","2","1","32","0","0","10","220","","","","",""
"html-keyboard-response","178","389871","0.0-74.0-1.0","","null","<div style=""display: flex; flex-direction: column; align-items: center; margin-top: -40px;""><img src=""images/pattern_3.png"" style=""width: 234px; height: 230px; margin-top: -50px;""><div style=""display: flex; justify-content: space-between; margin-top: 33px;""><img src=""images/choice_trial_10.png"" style=""width: 408px; height: 417px; margin-right: 608px;""></div></div>","null","delaylearn","learning","display_response","5c6e7cc242fe6b000190936a","pdtGdRU46vg5MJQUklD9KU0PiYJ2","","","","","","","","","","","","","","","","","chosen stimuli: images/choice_trial_10.png","","","",""
"html-keyboard-response","179","396874","0.0-74.0-2.0","","null","","null","delaylearn","learning","feedback_duration_window","5c6e7cc242fe6b000190936a","pdtGdRU46vg5MJQUklD9KU0PiYJ2","","","","","","","","","","","","","","","","","","7000","","",""
"html-keyboard-response","180","398378","0.0-74.0-3.0","","null","<div style='margin:auto;width: auto; font-size: 150%'><span style='font-weight: bold; font-size: 100px; color: red;'>0 points!</span><br><br></div>","null","delaylearn","learning","feedback_image_window","5c6e7cc242fe6b000190936a","pdtGdRU46vg5MJQUklD9KU0PiYJ2","","","","","","","","","","","","","","","","","","","","",""
"html-keyboard-response","181","400567","0.0-75.0","","null","<div style=""font-size:100px;"">+</div>","null","delaylearn","learning","ITI","5c6e7cc242fe6b000190936a","pdtGdRU46vg5MJQUklD9KU0PiYJ2","","","","","","","","","","","","","","","","","","","2186","",""
"html-keyboard-response","182","401712","0.0-76.0-0.0","","1138","<div style=""display: flex; flex-direction: column; align-items: center; margin-top: -40px;""><img src=""images/pattern_5.png"" style=""width: 234px; height: 230px; margin-top: -50px;""><div style=""display: flex; justify-content: space-between; margin-top: 33px;""><img src=""images/choice_trial_11.png"" style=""width: 408px; height: 417px; margin-right: 200px;""><img src=""images/choice_trial_2.png"" style=""width: 408px; height: 417px;""></div></div>","f","delaylearn","learning","trial","5c6e7cc242fe6b000190936a","pdtGdRU46vg5MJQUklD9KU0PiYJ2","3","images/choice_trial_11.png","images/choice_trial_2.png","images/pattern_5.png","j","f","750","11","2","4","0","33","1","0","11","220","","","","",""
"html-keyboard-response","183","402717","0.0-76.0-1.0","","null","<div style=""display: flex; flex-direction: column; align-items: center; margin-top: -40px;""><img src=""images/pattern_5.png"" style=""width: 234px; height: 230px; margin-top: -50px;""><div style=""display: flex; justify-content: space-between; margin-top: 33px;""><img src=""images/choice_trial_11.png"" style=""width: 408px; height: 417px; margin-right: 608px;""></div></div>","null","delaylearn","learning","display_response","5c6e7cc242fe6b000190936a","pdtGdRU46vg5MJQUklD9KU0PiYJ2","","","","","","","","","","","","","","","","","chosen stimuli: images/choice_trial_11.png","","","",""
"html-keyboard-response","184","403470","0.0-76.0-2.0","","null","","null","delaylearn","learning","feedback_duration_window","5c6e7cc242fe6b000190936a","pdtGdRU46vg5MJQUklD9KU0PiYJ2","","","","","","","","","","","","","","","","","","750","","",""
"html-keyboard-response","185","404973","0.0-76.0-3.0","","null","<div style='margin:auto;width: auto; font-size: 150%'><span style='font-weight: bold; font-size: 100px; color: red;'>0 points!</span><br><br></div>","null","delaylearn","learning","feedback_image_window","5c6e7cc242fe6b000190936a","pdtGdRU46vg5MJQUklD9KU0PiYJ2","","","","","","","","","","","","","","","","","","","","",""
"html-keyboard-response","186","407287","0.0-77.0","","null","<div style=""font-size:100px;"">+</div>","null","delaylearn","learning","ITI","5c6e7cc242fe6b000190936a","pdtGdRU46vg5MJQUklD9KU0PiYJ2","","","","","","","","","","","","","","","","","","","2311","",""
"html-keyboard-response","187","408325","0.0-78.0-0.0","","1033","<div style=""display: flex; flex-direction: column; align-items: center; margin-top: -40px;""><img src=""images/pattern_1.png"" style=""width: 234px; height: 230px; margin-top: -50px;""><div style=""display: flex; justify-content: space-between; margin-top: 33px;""><img src=""images/choice_trial_14.png"" style=""width: 408px; height: 417px; margin-right: 200px;""><img src=""images/choice_trial_8.png"" style=""width: 408px; height: 417px;""></div></div>","f","delaylearn","learning","trial","5c6e7cc242fe6b000190936a","pdtGdRU46vg5MJQUklD9KU0PiYJ2","3","images/choice_trial_14.png","images/choice_trial_8.png","images/pattern_1.png","f","f","7000","14","8","1","0","34","1","1","14","230","","","","",""
"html-keyboard-response","188","409327","0.0-78.0-1.0","","null","<div style=""display: flex; flex-direction: column; align-items: center; margin-top: -40px;""><img src=""images/pattern_1.png"" style=""width: 234px; height: 230px; margin-top: -50px;""><div style=""display: flex; justify-content: space-between; margin-top: 33px;""><img src=""images/choice_trial_14.png"" style=""width: 408px; height: 417px; margin-right: 608px;""></div></div>","null","delaylearn","learning","display_response","5c6e7cc242fe6b000190936a","pdtGdRU46vg5MJQUklD9KU0PiYJ2","","","","","","","","","","","","","","","","","chosen stimuli: images/choice_trial_14.png","","","",""
"html-keyboard-response","189","416330","0.0-78.0-2.0","","null","","null","delaylearn","learning","feedback_duration_window","5c6e7cc242fe6b000190936a","pdtGdRU46vg5MJQUklD9KU0PiYJ2","","","","","","","","","","","","","","","","","","7000","","",""
"html-keyboard-response","190","417833","0.0-78.0-3.0","","null","<div style='margin:auto;width: auto; font-size: 150%'><span style='font-weight: bold; font-size: 100px; color: green;'>+10 points!</span><br><br></div>","null","delaylearn","learning","feedback_image_window","5c6e7cc242fe6b000190936a","pdtGdRU46vg5MJQUklD9KU0PiYJ2","","","","","","","","","","","","","","","","","","","","",""
"html-keyboard-response","191","418336","0.0-79.0-0.0","","null","","null","","","mood_trial_fixation","","","","","","","","","","","","","","","","","","","","","","",""
"lmdlab-html-vas-response","192","426095","0.0-79.0-1.0","","6752","How happy are you right now?","0.4625","delaylearn","learning","mood_trial","5c6e7cc242fe6b000190936a","pdtGdRU46vg5MJQUklD9KU0PiYJ2","","","","","","","","","","","","","","","","","","","","[""Very unhappy"",""Very happy""]",""
"html-keyboard-response","193","428094","0.0-80.0","","null","<div style=""font-size:100px;"">+</div>","null","delaylearn","learning","ITI","5c6e7cc242fe6b000190936a","pdtGdRU46vg5MJQUklD9KU0PiYJ2","","","","","","","","","","","","","","","","","","","1997","",""
"html-keyboard-response","194","429172","0.0-81.0-0.0","","1074","<div style=""display: flex; flex-direction: column; align-items: center; margin-top: -40px;""><img src=""images/pattern_6.png"" style=""width: 234px; height: 230px; margin-top: -50px;""><div style=""display: flex; justify-content: space-between; margin-top: 33px;""><img src=""images/choice_trial_16.png"" style=""width: 408px; height: 417px; margin-right: 200px;""><img src=""images/choice_trial_3.png"" style=""width: 408px; height: 417px;""></div></div>","f","delaylearn","learning","trial","5c6e7cc242fe6b000190936a","pdtGdRU46vg5MJQUklD9KU0PiYJ2","3","images/choice_trial_16.png","images/choice_trial_3.png","images/pattern_6.png","j","f","750","16","3","5","0","35","1","0","16","230","","","","",""
"html-keyboard-response","195","430175","0.0-81.0-1.0","","null","<div style=""display: flex; flex-direction: column; align-items: center; margin-top: -40px;""><img src=""images/pattern_6.png"" style=""width: 234px; height: 230px; margin-top: -50px;""><div style=""display: flex; justify-content: space-between; margin-top: 33px;""><img src=""images/choice_trial_16.png"" style=""width: 408px; height: 417px; margin-right: 608px;""></div></div>","null","delaylearn","learning","display_response","5c6e7cc242fe6b000190936a","pdtGdRU46vg5MJQUklD9KU0PiYJ2","","","","","","","","","","","","","","","","","chosen stimuli: images/choice_trial_16.png","","","",""
"html-keyboard-response","196","430929","0.0-81.0-2.0","","null","","null","delaylearn","learning","feedback_duration_window","5c6e7cc242fe6b000190936a","pdtGdRU46vg5MJQUklD9KU0PiYJ2","","","","","","","","","","","","","","","","","","750","","",""
"html-keyboard-response","197","432433","0.0-81.0-3.0","","null","<div style='margin:auto;width: auto; font-size: 150%'><span style='font-weight: bold; font-size: 100px; color: red;'>0 points!</span><br><br></div>","null","delaylearn","learning","feedback_image_window","5c6e7cc242fe6b000190936a","pdtGdRU46vg5MJQUklD9KU0PiYJ2","","","","","","","","","","","","","","","","","","","","",""
"html-keyboard-response","198","434432","0.0-82.0","","null","<div style=""font-size:100px;"">+</div>","null","delaylearn","learning","ITI","5c6e7cc242fe6b000190936a","pdtGdRU46vg5MJQUklD9KU0PiYJ2","","","","","","","","","","","","","","","","","","","1995","",""
"html-keyboard-response","199","436444","0.0-83.0-0.0","","2006","<div style=""display: flex; flex-direction: column; align-items: center; margin-top: -40px;""><img src=""images/pattern_3.png"" style=""width: 234px; height: 230px; margin-top: -50px;""><div style=""display: flex; justify-content: space-between; margin-top: 33px;""><img src=""images/choice_trial_10.png"" style=""width: 408px; height: 417px; margin-right: 200px;""><img src=""images/choice_trial_13.png"" style=""width: 408px; height: 417px;""></div></div>","f","delaylearn","learning","trial","5c6e7cc242fe6b000190936a","pdtGdRU46vg5MJQUklD9KU0PiYJ2","3","images/choice_trial_10.png","images/choice_trial_13.png","images/pattern_3.png","j","j","7000","10","13","2","1","36","0","0","10","230","","","","",""
"html-keyboard-response","200","437447","0.0-83.0-1.0","","null","<div style=""display: flex; flex-direction: column; align-items: center; margin-top: -40px;""><img src=""images/pattern_3.png"" style=""width: 234px; height: 230px; margin-top: -50px;""><div style=""display: flex; justify-content: space-between; margin-top: 33px;""><img src=""images/choice_trial_10.png"" style=""width: 408px; height: 417px; margin-right: 608px;""></div></div>","null","delaylearn","learning","display_response","5c6e7cc242fe6b000190936a","pdtGdRU46vg5MJQUklD9KU0PiYJ2","","","","","","","","","","","","","","","","","chosen stimuli: images/choice_trial_10.png","","","",""
"html-keyboard-response","201","444450","0.0-83.0-2.0","","null","","null","delaylearn","learning","feedback_duration_window","5c6e7cc242fe6b000190936a","pdtGdRU46vg5MJQUklD9KU0PiYJ2","","","","","","","","","","","","","","","","","","7000","","",""
"html-keyboard-response","202","445952","0.0-83.0-3.0","","null","<div style='margin:auto;width: auto; font-size: 150%'><span style='font-weight: bold; font-size: 100px; color: red;'>0 points!</span><br><br></div>","null","delaylearn","learning","feedback_image_window","5c6e7cc242fe6b000190936a","pdtGdRU46vg5MJQUklD9KU0PiYJ2","","","","","","","","","","","","","","","","","","","","",""
"html-keyboard-response","203","447972","0.0-84.0","","null","<div style=""font-size:100px;"">+</div>","null","delaylearn","learning","ITI","5c6e7cc242fe6b000190936a","pdtGdRU46vg5MJQUklD9KU0PiYJ2","","","","","","","","","","","","","","","","","","","2016","",""
"html-keyboard-response","204","448732","0.0-85.0-0.0","","755.0000000001164","<div style=""display: flex; flex-direction: column; align-items: center; margin-top: -40px;""><img src=""images/pattern_4.png"" style=""width: 234px; height: 230px; margin-top: -50px;""><div style=""display: flex; justify-content: space-between; margin-top: 33px;""><img src=""images/choice_trial_9.png"" style=""width: 408px; height: 417px; margin-right: 200px;""><img src=""images/choice_trial_15.png"" style=""width: 408px; height: 417px;""></div></div>","j","delaylearn","learning","trial","5c6e7cc242fe6b000190936a","pdtGdRU46vg5MJQUklD9KU0PiYJ2","3","images/choice_trial_9.png","images/choice_trial_15.png","images/pattern_4.png","f","j","7000","9","15","3","1","37","1","0","15","230","","","","",""
"html-keyboard-response","205","449736","0.0-85.0-1.0","","null","<div style=""display: flex; flex-direction: column; align-items: center; margin-top: -40px;""><img src=""images/pattern_4.png"" style=""width: 234px; height: 230px; margin-top: -50px;""><div style=""display: flex; justify-content: space-between; margin-top: 33px;""><img src=""images/choice_trial_15.png"" style=""width: 408px; height: 417px; margin-left:608px;""></div></div>","null","delaylearn","learning","display_response","5c6e7cc242fe6b000190936a","pdtGdRU46vg5MJQUklD9KU0PiYJ2","","","","","","","","","","","","","","","","","chosen stimuli: images/choice_trial_15.png","","","",""
"html-keyboard-response","206","456740","0.0-85.0-2.0","","null","","null","delaylearn","learning","feedback_duration_window","5c6e7cc242fe6b000190936a","pdtGdRU46vg5MJQUklD9KU0PiYJ2","","","","","","","","","","","","","","","","","","7000","","",""
"html-keyboard-response","207","458244","0.0-85.0-3.0","","null","<div style='margin:auto;width: auto; font-size: 150%'><span style='font-weight: bold; font-size: 100px; color: red;'>0 points!</span><br><br></div>","null","delaylearn","learning","feedback_image_window","5c6e7cc242fe6b000190936a","pdtGdRU46vg5MJQUklD9KU0PiYJ2","","","","","","","","","","","","","","","","","","","","",""
"html-keyboard-response","208","459926","0.0-86.0","","null","<div style=""font-size:100px;"">+</div>","null","delaylearn","learning","ITI","5c6e7cc242fe6b000190936a","pdtGdRU46vg5MJQUklD9KU0PiYJ2","","","","","","","","","","","","","","","","","","","1678","",""
"html-keyboard-response","209","460759","0.0-87.0-0.0","","828","<div style=""display: flex; flex-direction: column; align-items: center; margin-top: -40px;""><img src=""images/pattern_7.png"" style=""width: 234px; height: 230px; margin-top: -50px;""><div style=""display: flex; justify-content: space-between; margin-top: 33px;""><img src=""images/choice_trial_6.png"" style=""width: 408px; height: 417px; margin-right: 200px;""><img src=""images/choice_trial_12.png"" style=""width: 408px; height: 417px;""></div></div>","f","delaylearn","learning","trial","5c6e7cc242fe6b000190936a","pdtGdRU46vg5MJQUklD9KU0PiYJ2","3","images/choice_trial_6.png","images/choice_trial_12.png","images/pattern_7.png","f","f","750","6","12","6","0","38","1","1","6","240","","","","",""
"html-keyboard-response","210","461763","0.0-87.0-1.0","","null","<div style=""display: flex; flex-direction: column; align-items: center; margin-top: -40px;""><img src=""images/pattern_7.png"" style=""width: 234px; height: 230px; margin-top: -50px;""><div style=""display: flex; justify-content: space-between; margin-top: 33px;""><img src=""images/choice_trial_6.png"" style=""width: 408px; height: 417px; margin-right: 608px;""></div></div>","null","delaylearn","learning","display_response","5c6e7cc242fe6b000190936a","pdtGdRU46vg5MJQUklD9KU0PiYJ2","","","","","","","","","","","","","","","","","chosen stimuli: images/choice_trial_6.png","","","",""
"html-keyboard-response","211","462516","0.0-87.0-2.0","","null","","null","delaylearn","learning","feedback_duration_window","5c6e7cc242fe6b000190936a","pdtGdRU46vg5MJQUklD9KU0PiYJ2","","","","","","","","","","","","","","","","","","750","","",""
"html-keyboard-response","212","464020","0.0-87.0-3.0","","null","<div style='margin:auto;width: auto; font-size: 150%'><span style='font-weight: bold; font-size: 100px; color: green;'>+10 points!</span><br><br></div>","null","delaylearn","learning","feedback_image_window","5c6e7cc242fe6b000190936a","pdtGdRU46vg5MJQUklD9KU0PiYJ2","","","","","","","","","","","","","","","","","","","","",""
"html-keyboard-response","213","465812","0.0-88.0","","null","<div style=""font-size:100px;"">+</div>","null","delaylearn","learning","ITI","5c6e7cc242fe6b000190936a","pdtGdRU46vg5MJQUklD9KU0PiYJ2","","","","","","","","","","","","","","","","","","","1789","",""
"html-keyboard-response","214","466749","0.0-89.0-0.0","","931","<div style=""display: flex; flex-direction: column; align-items: center; margin-top: -40px;""><img src=""images/pattern_1.png"" style=""width: 234px; height: 230px; margin-top: -50px;""><div style=""display: flex; justify-content: space-between; margin-top: 33px;""><img src=""images/choice_trial_14.png"" style=""width: 408px; height: 417px; margin-right: 200px;""><img src=""images/choice_trial_8.png"" style=""width: 408px; height: 417px;""></div></div>","f","delaylearn","learning","trial","5c6e7cc242fe6b000190936a","pdtGdRU46vg5MJQUklD9KU0PiYJ2","3","images/choice_trial_14.png","images/choice_trial_8.png","images/pattern_1.png","f","f","7000","14","8","1","0","39","1","1","14","250","","","","",""
"html-keyboard-response","215","467752","0.0-89.0-1.0","","null","<div style=""display: flex; flex-direction: column; align-items: center; margin-top: -40px;""><img src=""images/pattern_1.png"" style=""width: 234px; height: 230px; margin-top: -50px;""><div style=""display: flex; justify-content: space-between; margin-top: 33px;""><img src=""images/choice_trial_14.png"" style=""width: 408px; height: 417px; margin-right: 608px;""></div></div>","null","delaylearn","learning","display_response","5c6e7cc242fe6b000190936a","pdtGdRU46vg5MJQUklD9KU0PiYJ2","","","","","","","","","","","","","","","","","chosen stimuli: images/choice_trial_14.png","","","",""
"html-keyboard-response","216","474755","0.0-89.0-2.0","","null","","null","delaylearn","learning","feedback_duration_window","5c6e7cc242fe6b000190936a","pdtGdRU46vg5MJQUklD9KU0PiYJ2","","","","","","","","","","","","","","","","","","7000","","",""
"html-keyboard-response","217","476259","0.0-89.0-3.0","","null","<div style='margin:auto;width: auto; font-size: 150%'><span style='font-weight: bold; font-size: 100px; color: green;'>+10 points!</span><br><br></div>","null","delaylearn","learning","feedback_image_window","5c6e7cc242fe6b000190936a","pdtGdRU46vg5MJQUklD9KU0PiYJ2","","","","","","","","","","","","","","","","","","","","",""
"html-keyboard-response","218","476763","0.0-90.0-0.0","","null","","null","","","mood_trial_fixation","","","","","","","","","","","","","","","","","","","","","","",""
"lmdlab-html-vas-response","219","480660","0.0-90.0-1.0","","2892","How happy are you right now?","0.48333333333333334","delaylearn","learning","mood_trial","5c6e7cc242fe6b000190936a","pdtGdRU46vg5MJQUklD9KU0PiYJ2","","","","","","","","","","","","","","","","","","","","[""Very unhappy"",""Very happy""]",""
"html-keyboard-response","220","482434","0.0-91.0","","null","<div style=""font-size:100px;"">+</div>","null","delaylearn","learning","ITI","5c6e7cc242fe6b000190936a","pdtGdRU46vg5MJQUklD9KU0PiYJ2","","","","","","","","","","","","","","","","","","","1771","",""
"html-keyboard-response","221","484829","0.0-92.0-0.0","","2389.9999999998836","<div style=""display: flex; flex-direction: column; align-items: center; margin-top: -40px;""><img src=""images/pattern_3.png"" style=""width: 234px; height: 230px; margin-top: -50px;""><div style=""display: flex; justify-content: space-between; margin-top: 33px;""><img src=""images/choice_trial_13.png"" style=""width: 408px; height: 417px; margin-right: 200px;""><img src=""images/choice_trial_10.png"" style=""width: 408px; height: 417px;""></div></div>","j","delaylearn","learning","trial","5c6e7cc242fe6b000190936a","pdtGdRU46vg5MJQUklD9KU0PiYJ2","3","images/choice_trial_13.png","images/choice_trial_10.png","images/pattern_3.png","j","f","7000","13","10","2","0","40","0","1","10","260","","","","",""
