"trial_type","trial_index","time_elapsed","internal_node_id","participant","rt","stimulus","response","exp_name","exp_stage","test_part","subjectID","databaseID","counterbal","choice_stimuli_1","choice_stimuli_2","pattern_stimuli","rewarded_answer","correct_answer","feedback_duration_times","stim_left","stim_right","pair","leftright_counter","trial","response_correct","response_rewarded","chosen_stim","counter","displayed_choice","feedback_durations","ITI_duration","labels","rest_warning"
"pavlovia","0","533","0.0-0.0","","","","","","","","","","","","","","","","","","","","","","","","","","","","","",""
"html-keyboard-response","1","3537","0.0-1.0","","null","<div style=""font-size:100px;"">+</div>","null","delaylearn","learning","pre_fixation","64402288403028bd9abd98a7","","","","","","","","","","","","","","","","","","","","","",""
"html-keyboard-response","2","4281","0.0-2.0-0.0","","741.8000000044703","<div style=""display: flex; flex-direction: column; align-items: center; margin-top: -40px;""><img src=""images/demo_images/pattern_1.png"" style=""width: 234px; height: 230px; margin-top: -50px;""><div style=""display: flex; justify-content: space-between; margin-top: 33px;""><img src=""images/demo_images/choice_trial_2.png"" style=""width: 408px; height: 417px; margin-right: 200px;""><img src=""images/demo_images/choice_trial_1.png"" style=""width: 408px; height: 417px;""></div></div>","j","delaylearn","learning","trial","64402288403028bd9abd98a7","88RRSRL8dxQpEkAzgxhFRbPA8fr1","1","images/demo_images/choice_trial_2.png","images/demo_images/choice_trial_1.png","images/demo_images/pattern_1.png","j","j","3000","2","1","20","1","1","1","1","1","10","","","","",""
"html-keyboard-response","3","5286","0.0-2.0-1.0","","null","<div style=""display: flex; flex-direction: column; align-items: center; margin-top: -40px;""><img src=""images/demo_images/pattern_1.png"" style=""width: 234px; height: 230px; margin-top: -50px;""><div style=""display: flex; justify-content: space-between; margin-top: 33px;""><img src=""images/demo_images/choice_trial_1.png"" style=""width: 408px; height: 417px; margin-left:608px;""></div></div>","null","delaylearn","learning","display_response","64402288403028bd9abd98a7","88RRSRL8dxQpEkAzgxhFRbPA8fr1","","","","","","","","","","","","","","","","","chosen stimuli: images/demo_images/choice_trial_1.png","","","",""
"html-keyboard-response","4","8301","0.0-2.0-2.0","","null","","null","delaylearn","learning","feedback_duration_window","64402288403028bd9abd98a7","88RRSRL8dxQpEkAzgxhFRbPA8fr1","","","","","","","","","","","","","","","","","","3000","","",""
"html-keyboard-response","5","9814","0.0-2.0-3.0","","null","<div style='margin:auto;width: auto; font-size: 150%'><span style='font-weight: bold; font-size: 100px; color: green;'>+10 points!</span><br><br></div>","null","delaylearn","learning","feedback_image_window","64402288403028bd9abd98a7","88RRSRL8dxQpEkAzgxhFRbPA8fr1","","","","","","","","","","","","","","","","","","","","",""
"html-keyboard-response","6","11652","0.0-3.0","","null","<div style=""font-size:100px;"">+</div>","null","delaylearn","learning","ITI","64402288403028bd9abd98a7","88RRSRL8dxQpEkAzgxhFRbPA8fr1","","","","","","","","","","","","","","","","","","","1817","",""
"html-keyboard-response","7","12313","0.0-4.0-0.0","","658.1000000014901","<div style=""display: flex; flex-direction: column; align-items: center; margin-top: -40px;""><img src=""images/demo_images/pattern_1.png"" style=""width: 234px; height: 230px; margin-top: -50px;""><div style=""display: flex; justify-content: space-between; margin-top: 33px;""><img src=""images/demo_images/choice_trial_2.png"" style=""width: 408px; height: 417px; margin-right: 200px;""><img src=""images/demo_images/choice_trial_1.png"" style=""width: 408px; height: 417px;""></div></div>","j","delaylearn","learning","trial","64402288403028bd9abd98a7","88RRSRL8dxQpEkAzgxhFRbPA8fr1","1","images/demo_images/choice_trial_2.png","images/demo_images/choice_trial_1.png","images/demo_images/pattern_1.png","j","j","3000","2","1","20","1","2","1","1","1","20","","","","",""
"html-keyboard-response","8","13332","0.0-4.0-1.0","","null","<div style=""display: flex; flex-direction: column; align-items: center; margin-top: -40px;""><img src=""images/demo_images/pattern_1.png"" style=""width: 234px; height: 230px; margin-top: -50px;""><div style=""display: flex; justify-content: space-between; margin-top: 33px;""><img src=""images/demo_images/choice_trial_1.png"" style=""width: 408px; height: 417px; margin-left:608px;""></div></div>","null","delaylearn","learning","display_response","64402288403028bd9abd98a7","88RRSRL8dxQpEkAzgxhFRbPA8fr1","","","","","","","","","","","","","","","","","chosen stimuli: images/demo_images/choice_trial_1.png","","","",""
"html-keyboard-response","9","16344","0.0-4.0-2.0","","null","","null","delaylearn","learning","feedback_duration_window","64402288403028bd9abd98a7","88RRSRL8dxQpEkAzgxhFRbPA8fr1","","","","","","","","","","","","","","","","","","3000","","",""
"html-keyboard-response","10","17846","0.0-4.0-3.0","","null","<div style='margin:auto;width: auto; font-size: 150%'><span style='font-weight: bold; font-size: 100px; color: green;'>+10 points!</span><br><br></div>","null","delaylearn","learning","feedback_image_window","64402288403028bd9abd98a7","88RRSRL8dxQpEkAzgxhFRbPA8fr1","","","","","","","","","","","","","","","","","","","","",""
"html-keyboard-response","11","19642","0.0-5.0","","null","<div style=""font-size:100px;"">+</div>","null","delaylearn","learning","ITI","64402288403028bd9abd98a7","88RRSRL8dxQpEkAzgxhFRbPA8fr1","","","","","","","","","","","","","","","","","","","1785","",""
"html-keyboard-response","12","20487","0.0-6.0-0.0","","842","<div style=""display: flex; flex-direction: column; align-items: center; margin-top: -40px;""><img src=""images/demo_images/pattern_1.png"" style=""width: 234px; height: 230px; margin-top: -50px;""><div style=""display: flex; justify-content: space-between; margin-top: 33px;""><img src=""images/demo_images/choice_trial_1.png"" style=""width: 408px; height: 417px; margin-right: 200px;""><img src=""images/demo_images/choice_trial_2.png"" style=""width: 408px; height: 417px;""></div></div>","f","delaylearn","learning","trial","64402288403028bd9abd98a7","88RRSRL8dxQpEkAzgxhFRbPA8fr1","1","images/demo_images/choice_trial_1.png","images/demo_images/choice_trial_2.png","images/demo_images/pattern_1.png","j","f","3000","1","2","20","0","3","1","0","1","20","","","","",""
"html-keyboard-response","13","21509","0.0-6.0-1.0","","null","<div style=""display: flex; flex-direction: column; align-items: center; margin-top: -40px;""><img src=""images/demo_images/pattern_1.png"" style=""width: 234px; height: 230px; margin-top: -50px;""><div style=""display: flex; justify-content: space-between; margin-top: 33px;""><img src=""images/demo_images/choice_trial_1.png"" style=""width: 408px; height: 417px; margin-right: 608px;""></div></div>","null","delaylearn","learning","display_response","64402288403028bd9abd98a7","88RRSRL8dxQpEkAzgxhFRbPA8fr1","","","","","","","","","","","","","","","","","chosen stimuli: images/demo_images/choice_trial_1.png","","","",""
"html-keyboard-response","14","24519","0.0-6.0-2.0","","null","","null","delaylearn","learning","feedback_duration_window","64402288403028bd9abd98a7","88RRSRL8dxQpEkAzgxhFRbPA8fr1","","","","","","","","","","","","","","","","","","3000","","",""
"html-keyboard-response","15","26034","0.0-6.0-3.0","","null","<div style='margin:auto;width: auto; font-size: 150%'><span style='font-weight: bold; font-size: 100px; color: red;'>0 points!</span><br><br></div>","null","delaylearn","learning","feedback_image_window","64402288403028bd9abd98a7","88RRSRL8dxQpEkAzgxhFRbPA8fr1","","","","","","","","","","","","","","","","","","","","",""
"html-keyboard-response","16","27572","0.0-7.0","","null","<div style=""font-size:100px;"">+</div>","null","delaylearn","learning","ITI","64402288403028bd9abd98a7","88RRSRL8dxQpEkAzgxhFRbPA8fr1","","","","","","","","","","","","","","","","","","","1527","",""
"html-keyboard-response","17","28572","0.0-8.0-0.0","","998.1000000014901","<div style=""display: flex; flex-direction: column; align-items: center; margin-top: -40px;""><img src=""images/demo_images/pattern_1.png"" style=""width: 234px; height: 230px; margin-top: -50px;""><div style=""display: flex; justify-content: space-between; margin-top: 33px;""><img src=""images/demo_images/choice_trial_1.png"" style=""width: 408px; height: 417px; margin-right: 200px;""><img src=""images/demo_images/choice_trial_2.png"" style=""width: 408px; height: 417px;""></div></div>","j","delaylearn","learning","trial","64402288403028bd9abd98a7","88RRSRL8dxQpEkAzgxhFRbPA8fr1","1","images/demo_images/choice_trial_1.png","images/demo_images/choice_trial_2.png","images/demo_images/pattern_1.png","f","f","3000","1","2","20","0","4","0","0","2","20","","","","",""
"html-keyboard-response","18","29597","0.0-8.0-1.0","","null","<div style=""display: flex; flex-direction: column; align-items: center; margin-top: -40px;""><img src=""images/demo_images/pattern_1.png"" style=""width: 234px; height: 230px; margin-top: -50px;""><div style=""display: flex; justify-content: space-between; margin-top: 33px;""><img src=""images/demo_images/choice_trial_2.png"" style=""width: 408px; height: 417px; margin-left:608px;""></div></div>","null","delaylearn","learning","display_response","64402288403028bd9abd98a7","88RRSRL8dxQpEkAzgxhFRbPA8fr1","","","","","","","","","","","","","","","","","chosen stimuli: images/demo_images/choice_trial_2.png","","","",""
"html-keyboard-response","19","32612","0.0-8.0-2.0","","null","","null","delaylearn","learning","feedback_duration_window","64402288403028bd9abd98a7","88RRSRL8dxQpEkAzgxhFRbPA8fr1","","","","","","","","","","","","","","","","","","3000","","",""
"html-keyboard-response","20","34124","0.0-8.0-3.0","","null","<div style='margin:auto;width: auto; font-size: 150%'><span style='font-weight: bold; font-size: 100px; color: red;'>0 points!</span><br><br></div>","null","delaylearn","learning","feedback_image_window","64402288403028bd9abd98a7","88RRSRL8dxQpEkAzgxhFRbPA8fr1","","","","","","","","","","","","","","","","","","","","",""
"html-keyboard-response","21","34641","0.0-9.0-0.0","","null","","null","","","mood_trial_fixation","","","","","","","","","","","","","","","","","","","","","","",""
"lmdlab-html-vas-response","22","39294","0.0-9.0-1.0","","3620","How happy are you right now?","0.5995370370370371","delaylearn","learning","mood_trial","64402288403028bd9abd98a7","88RRSRL8dxQpEkAzgxhFRbPA8fr1","","","","","","","","","","","","","","","","","","","","[""Very unhappy"",""Very happy""]",""
"html-keyboard-response","23","41368","0.0-10.0","","null","<div style=""font-size:100px;"">+</div>","null","delaylearn","learning","ITI","64402288403028bd9abd98a7","88RRSRL8dxQpEkAzgxhFRbPA8fr1","","","","","","","","","","","","","","","","","","","2061","",""
"html-keyboard-response","24","42063","0.0-11.0-0.0","","692.7999999970198","<div style=""display: flex; flex-direction: column; align-items: center; margin-top: -40px;""><img src=""images/demo_images/pattern_1.png"" style=""width: 234px; height: 230px; margin-top: -50px;""><div style=""display: flex; justify-content: space-between; margin-top: 33px;""><img src=""images/demo_images/choice_trial_2.png"" style=""width: 408px; height: 417px; margin-right: 200px;""><img src=""images/demo_images/choice_trial_1.png"" style=""width: 408px; height: 417px;""></div></div>","j","delaylearn","learning","trial","64402288403028bd9abd98a7","88RRSRL8dxQpEkAzgxhFRbPA8fr1","1","images/demo_images/choice_trial_2.png","images/demo_images/choice_trial_1.png","images/demo_images/pattern_1.png","j","j","3000","2","1","20","1","5","1","1","1","30","","","","",""
"html-keyboard-response","25","43090","0.0-11.0-1.0","","null","<div style=""display: flex; flex-direction: column; align-items: center; margin-top: -40px;""><img src=""images/demo_images/pattern_1.png"" style=""width: 234px; height: 230px; margin-top: -50px;""><div style=""display: flex; justify-content: space-between; margin-top: 33px;""><img src=""images/demo_images/choice_trial_1.png"" style=""width: 408px; height: 417px; margin-left:608px;""></div></div>","null","delaylearn","learning","display_response","64402288403028bd9abd98a7","88RRSRL8dxQpEkAzgxhFRbPA8fr1","","","","","","","","","","","","","","","","","chosen stimuli: images/demo_images/choice_trial_1.png","","","",""
"html-keyboard-response","26","46109","0.0-11.0-2.0","","null","","null","delaylearn","learning","feedback_duration_window","64402288403028bd9abd98a7","88RRSRL8dxQpEkAzgxhFRbPA8fr1","","","","","","","","","","","","","","","","","","3000","","",""
"html-keyboard-response","27","47634","0.0-11.0-3.0","","null","<div style='margin:auto;width: auto; font-size: 150%'><span style='font-weight: bold; font-size: 100px; color: green;'>+10 points!</span><br><br></div>","null","delaylearn","learning","feedback_image_window","64402288403028bd9abd98a7","88RRSRL8dxQpEkAzgxhFRbPA8fr1","","","","","","","","","","","","","","","","","","","","",""
"html-keyboard-response","28","49241","0.0-12.0","","null","<div style=""font-size:100px;"">+</div>","null","delaylearn","learning","ITI","64402288403028bd9abd98a7","88RRSRL8dxQpEkAzgxhFRbPA8fr1","","","","","","","","","","","","","","","","","","","1603","",""
"html-keyboard-response","29","50738","0.0-13.0-0.0","","1492.7999999970198","<div style=""display: flex; flex-direction: column; align-items: center; margin-top: -40px;""><img src=""images/demo_images/pattern_1.png"" style=""width: 234px; height: 230px; margin-top: -50px;""><div style=""display: flex; justify-content: space-between; margin-top: 33px;""><img src=""images/demo_images/choice_trial_1.png"" style=""width: 408px; height: 417px; margin-right: 200px;""><img src=""images/demo_images/choice_trial_2.png"" style=""width: 408px; height: 417px;""></div></div>","j","delaylearn","learning","trial","64402288403028bd9abd98a7","88RRSRL8dxQpEkAzgxhFRbPA8fr1","1","images/demo_images/choice_trial_1.png","images/demo_images/choice_trial_2.png","images/demo_images/pattern_1.png","f","f","3000","1","2","20","0","6","0","0","2","30","","","","",""
"html-keyboard-response","30","51758","0.0-13.0-1.0","","null","<div style=""display: flex; flex-direction: column; align-items: center; margin-top: -40px;""><img src=""images/demo_images/pattern_1.png"" style=""width: 234px; height: 230px; margin-top: -50px;""><div style=""display: flex; justify-content: space-between; margin-top: 33px;""><img src=""images/demo_images/choice_trial_2.png"" style=""width: 408px; height: 417px; margin-left:608px;""></div></div>","null","delaylearn","learning","display_response","64402288403028bd9abd98a7","88RRSRL8dxQpEkAzgxhFRbPA8fr1","","","","","","","","","","","","","","","","","chosen stimuli: images/demo_images/choice_trial_2.png","","","",""
"html-keyboard-response","31","54762","0.0-13.0-2.0","","null","","null","delaylearn","learning","feedback_duration_window","64402288403028bd9abd98a7","88RRSRL8dxQpEkAzgxhFRbPA8fr1","","","","","","","","","","","","","","","","","","3000","","",""
"html-keyboard-response","32","56274","0.0-13.0-3.0","","null","<div style='margin:auto;width: auto; font-size: 150%'><span style='font-weight: bold; font-size: 100px; color: red;'>0 points!</span><br><br></div>","null","delaylearn","learning","feedback_image_window","64402288403028bd9abd98a7","88RRSRL8dxQpEkAzgxhFRbPA8fr1","","","","","","","","","","","","","","","","","","","","",""
"html-keyboard-response","33","58353","0.0-14.0","","null","<div style=""font-size:100px;"">+</div>","null","delaylearn","learning","ITI","64402288403028bd9abd98a7","88RRSRL8dxQpEkAzgxhFRbPA8fr1","","","","","","","","","","","","","","","","","","","2074","",""
"html-keyboard-response","34","59105","0.0-15.0-0.0","","748.6999999955297","<div style=""display: flex; flex-direction: column; align-items: center; margin-top: -40px;""><img src=""images/demo_images/pattern_1.png"" style=""width: 234px; height: 230px; margin-top: -50px;""><div style=""display: flex; justify-content: space-between; margin-top: 33px;""><img src=""images/demo_images/choice_trial_2.png"" style=""width: 408px; height: 417px; margin-right: 200px;""><img src=""images/demo_images/choice_trial_1.png"" style=""width: 408px; height: 417px;""></div></div>","j","delaylearn","learning","trial","64402288403028bd9abd98a7","88RRSRL8dxQpEkAzgxhFRbPA8fr1","1","images/demo_images/choice_trial_2.png","images/demo_images/choice_trial_1.png","images/demo_images/pattern_1.png","j","j","3000","2","1","20","1","7","1","1","1","40","","","","",""
"html-keyboard-response","35","60111","0.0-15.0-1.0","","null","<div style=""display: flex; flex-direction: column; align-items: center; margin-top: -40px;""><img src=""images/demo_images/pattern_1.png"" style=""width: 234px; height: 230px; margin-top: -50px;""><div style=""display: flex; justify-content: space-between; margin-top: 33px;""><img src=""images/demo_images/choice_trial_1.png"" style=""width: 408px; height: 417px; margin-left:608px;""></div></div>","null","delaylearn","learning","display_response","64402288403028bd9abd98a7","88RRSRL8dxQpEkAzgxhFRbPA8fr1","","","","","","","","","","","","","","","","","chosen stimuli: images/demo_images/choice_trial_1.png","","","",""
"html-keyboard-response","36","63128","0.0-15.0-2.0","","null","","null","delaylearn","learning","feedback_duration_window","64402288403028bd9abd98a7","88RRSRL8dxQpEkAzgxhFRbPA8fr1","","","","","","","","","","","","","","","","","","3000","","",""
"html-keyboard-response","37","64640","0.0-15.0-3.0","","null","<div style='margin:auto;width: auto; font-size: 150%'><span style='font-weight: bold; font-size: 100px; color: green;'>+10 points!</span><br><br></div>","null","delaylearn","learning","feedback_image_window","64402288403028bd9abd98a7","88RRSRL8dxQpEkAzgxhFRbPA8fr1","","","","","","","","","","","","","","","","","","","","",""
"html-keyboard-response","38","66649","0.0-16.0","","null","<div style=""font-size:100px;"">+</div>","null","delaylearn","learning","ITI","64402288403028bd9abd98a7","88RRSRL8dxQpEkAzgxhFRbPA8fr1","","","","","","","","","","","","","","","","","","","1993","",""
"html-keyboard-response","39","67855","0.0-17.0-0.0","","1202.5","<div style=""display: flex; flex-direction: column; align-items: center; margin-top: -40px;""><img src=""images/demo_images/pattern_1.png"" style=""width: 234px; height: 230px; margin-top: -50px;""><div style=""display: flex; justify-content: space-between; margin-top: 33px;""><img src=""images/demo_images/choice_trial_1.png"" style=""width: 408px; height: 417px; margin-right: 200px;""><img src=""images/demo_images/choice_trial_2.png"" style=""width: 408px; height: 417px;""></div></div>","f","delaylearn","learning","trial","64402288403028bd9abd98a7","88RRSRL8dxQpEkAzgxhFRbPA8fr1","1","images/demo_images/choice_trial_1.png","images/demo_images/choice_trial_2.png","images/demo_images/pattern_1.png","f","f","3000","1","2","20","0","8","1","1","1","50","","","","",""
"html-keyboard-response","40","68872","0.0-17.0-1.0","","null","<div style=""display: flex; flex-direction: column; align-items: center; margin-top: -40px;""><img src=""images/demo_images/pattern_1.png"" style=""width: 234px; height: 230px; margin-top: -50px;""><div style=""display: flex; justify-content: space-between; margin-top: 33px;""><img src=""images/demo_images/choice_trial_1.png"" style=""width: 408px; height: 417px; margin-right: 608px;""></div></div>","null","delaylearn","learning","display_response","64402288403028bd9abd98a7","88RRSRL8dxQpEkAzgxhFRbPA8fr1","","","","","","","","","","","","","","","","","chosen stimuli: images/demo_images/choice_trial_1.png","","","",""
"html-keyboard-response","41","71883","0.0-17.0-2.0","","null","","null","delaylearn","learning","feedback_duration_window","64402288403028bd9abd98a7","88RRSRL8dxQpEkAzgxhFRbPA8fr1","","","","","","","","","","","","","","","","","","3000","","",""
"html-keyboard-response","42","73396","0.0-17.0-3.0","","null","<div style='margin:auto;width: auto; font-size: 150%'><span style='font-weight: bold; font-size: 100px; color: green;'>+10 points!</span><br><br></div>","null","delaylearn","learning","feedback_image_window","64402288403028bd9abd98a7","88RRSRL8dxQpEkAzgxhFRbPA8fr1","","","","","","","","","","","","","","","","","","","","",""
"html-button-response","43","76026","0.0-18.0","","2627.2000000029802","
  <div style=""display: flex; align-items: center; justify-content: center; height: 80vh;"">
  <div>
          <img src=""images/inst_demo_finish.png"" style=""width: 80vw; height:auto;"">
          <br><br>
      </div>
      <br><br>
  </div>","0","","","","","","","","","","","","","","","","","","","","","","","","","",""
"html-keyboard-response","44","81307","0.0-19.0","","5278.9000000059605","
  <div style=""display: flex; align-items: center; justify-content: center; height: 80vh;"">
  <div>
          <img src=""images/inst_6.png"" style=""width: 80vw; height:auto;"">
          <br><br>
      </div>
      <br><br>
  </div>","j","","","","","","","","","","","","","","","","","","","","","","","","","",""
"html-keyboard-response","45","84331","0.0-20.0","","null","<div style=""font-size:100px;"">+</div>","null","delaylearn","learning","pre_fixation","64402288403028bd9abd98a7","","","","","","","","","","","","","","","","","","","","","",""
"html-keyboard-response","46","85914","0.0-21.0","","null","<div style=""font-size:100px;"">+</div>","null","delaylearn","learning","ITI","64402288403028bd9abd98a7","88RRSRL8dxQpEkAzgxhFRbPA8fr1","","","","","","","","","","","","","","","","","","","1560","",""
"html-keyboard-response","47","86798","0.0-22.0-0.0","","880.3999999985099","<div style=""display: flex; flex-direction: column; align-items: center; margin-top: -40px;""><img src=""images/pattern_3.png"" style=""width: 234px; height: 230px; margin-top: -50px;""><div style=""display: flex; justify-content: space-between; margin-top: 33px;""><img src=""images/choice_trial_5.png"" style=""width: 408px; height: 417px; margin-right: 200px;""><img src=""images/choice_trial_6.png"" style=""width: 408px; height: 417px;""></div></div>","j","delaylearn","learning","trial","64402288403028bd9abd98a7","88RRSRL8dxQpEkAzgxhFRbPA8fr1","1","images/choice_trial_5.png","images/choice_trial_6.png","images/pattern_3.png","f","f","7000","5","6","2","0","9","0","0","6","50","","","","",""
"html-keyboard-response","48","87814","0.0-22.0-1.0","","null","<div style=""display: flex; flex-direction: column; align-items: center; margin-top: -40px;""><img src=""images/pattern_3.png"" style=""width: 234px; height: 230px; margin-top: -50px;""><div style=""display: flex; justify-content: space-between; margin-top: 33px;""><img src=""images/choice_trial_6.png"" style=""width: 408px; height: 417px; margin-left:608px;""></div></div>","null","delaylearn","learning","display_response","64402288403028bd9abd98a7","88RRSRL8dxQpEkAzgxhFRbPA8fr1","","","","","","","","","","","","","","","","","chosen stimuli: images/choice_trial_6.png","","","",""
"html-keyboard-response","49","94827","0.0-22.0-2.0","","null","","null","delaylearn","learning","feedback_duration_window","64402288403028bd9abd98a7","88RRSRL8dxQpEkAzgxhFRbPA8fr1","","","","","","","","","","","","","","","","","","7000","","",""
"html-keyboard-response","50","96342","0.0-22.0-3.0","","null","<div style='margin:auto;width: auto; font-size: 150%'><span style='font-weight: bold; font-size: 100px; color: red;'>0 points!</span><br><br></div>","null","delaylearn","learning","feedback_image_window","64402288403028bd9abd98a7","88RRSRL8dxQpEkAzgxhFRbPA8fr1","","","","","","","","","","","","","","","","","","","","",""
"html-keyboard-response","51","97996","0.0-23.0","","null","<div style=""font-size:100px;"">+</div>","null","delaylearn","learning","ITI","64402288403028bd9abd98a7","88RRSRL8dxQpEkAzgxhFRbPA8fr1","","","","","","","","","","","","","","","","","","","1642","",""
"html-keyboard-response","52","99446","0.0-24.0-0.0","","1446.2999999970198","<div style=""display: flex; flex-direction: column; align-items: center; margin-top: -40px;""><img src=""images/pattern_7.png"" style=""width: 234px; height: 230px; margin-top: -50px;""><div style=""display: flex; justify-content: space-between; margin-top: 33px;""><img src=""images/choice_trial_14.png"" style=""width: 408px; height: 417px; margin-right: 200px;""><img src=""images/choice_trial_13.png"" style=""width: 408px; height: 417px;""></div></div>","f","delaylearn","learning","trial","64402288403028bd9abd98a7","88RRSRL8dxQpEkAzgxhFRbPA8fr1","1","images/choice_trial_14.png","images/choice_trial_13.png","images/pattern_7.png","j","j","750","14","13","6","1","10","0","0","14","50","","","","",""
"html-keyboard-response","53","100460","0.0-24.0-1.0","","null","<div style=""display: flex; flex-direction: column; align-items: center; margin-top: -40px;""><img src=""images/pattern_7.png"" style=""width: 234px; height: 230px; margin-top: -50px;""><div style=""display: flex; justify-content: space-between; margin-top: 33px;""><img src=""images/choice_trial_14.png"" style=""width: 408px; height: 417px; margin-right: 608px;""></div></div>","null","delaylearn","learning","display_response","64402288403028bd9abd98a7","88RRSRL8dxQpEkAzgxhFRbPA8fr1","","","","","","","","","","","","","","","","","chosen stimuli: images/choice_trial_14.png","","","",""
"html-keyboard-response","54","101213","0.0-24.0-2.0","","null","","null","delaylearn","learning","feedback_duration_window","64402288403028bd9abd98a7","88RRSRL8dxQpEkAzgxhFRbPA8fr1","","","","","","","","","","","","","","","","","","750","","",""
"html-keyboard-response","55","102726","0.0-24.0-3.0","","null","<div style='margin:auto;width: auto; font-size: 150%'><span style='font-weight: bold; font-size: 100px; color: red;'>0 points!</span><br><br></div>","null","delaylearn","learning","feedback_image_window","64402288403028bd9abd98a7","88RRSRL8dxQpEkAzgxhFRbPA8fr1","","","","","","","","","","","","","","","","","","","","",""
"html-keyboard-response","56","104265","0.0-25.0","","null","<div style=""font-size:100px;"">+</div>","null","delaylearn","learning","ITI","64402288403028bd9abd98a7","88RRSRL8dxQpEkAzgxhFRbPA8fr1","","","","","","","","","","","","","","","","","","","1529","",""
"html-keyboard-response","57","105565","0.0-26.0-0.0","","1296.1000000014901","<div style=""display: flex; flex-direction: column; align-items: center; margin-top: -40px;""><img src=""images/pattern_4.png"" style=""width: 234px; height: 230px; margin-top: -50px;""><div style=""display: flex; justify-content: space-between; margin-top: 33px;""><img src=""images/choice_trial_7.png"" style=""width: 408px; height: 417px; margin-right: 200px;""><img src=""images/choice_trial_8.png"" style=""width: 408px; height: 417px;""></div></div>","j","delaylearn","learning","trial","64402288403028bd9abd98a7","88RRSRL8dxQpEkAzgxhFRbPA8fr1","1","images/choice_trial_7.png","images/choice_trial_8.png","images/pattern_4.png","f","f","7000","7","8","3","0","11","0","0","8","50","","","","",""
"html-keyboard-response","58","106594","0.0-26.0-1.0","","null","<div style=""display: flex; flex-direction: column; align-items: center; margin-top: -40px;""><img src=""images/pattern_4.png"" style=""width: 234px; height: 230px; margin-top: -50px;""><div style=""display: flex; justify-content: space-between; margin-top: 33px;""><img src=""images/choice_trial_8.png"" style=""width: 408px; height: 417px; margin-left:608px;""></div></div>","null","delaylearn","learning","display_response","64402288403028bd9abd98a7","88RRSRL8dxQpEkAzgxhFRbPA8fr1","","","","","","","","","","","","","","","","","chosen stimuli: images/choice_trial_8.png","","","",""
"html-keyboard-response","59","113608","0.0-26.0-2.0","","null","","null","delaylearn","learning","feedback_duration_window","64402288403028bd9abd98a7","88RRSRL8dxQpEkAzgxhFRbPA8fr1","","","","","","","","","","","","","","","","","","7000","","",""
"html-keyboard-response","60","115118","0.0-26.0-3.0","","null","<div style='margin:auto;width: auto; font-size: 150%'><span style='font-weight: bold; font-size: 100px; color: red;'>0 points!</span><br><br></div>","null","delaylearn","learning","feedback_image_window","64402288403028bd9abd98a7","88RRSRL8dxQpEkAzgxhFRbPA8fr1","","","","","","","","","","","","","","","","","","","","",""
"html-keyboard-response","61","117033","0.0-27.0","","null","<div style=""font-size:100px;"">+</div>","null","delaylearn","learning","ITI","64402288403028bd9abd98a7","88RRSRL8dxQpEkAzgxhFRbPA8fr1","","","","","","","","","","","","","","","","","","","1912","",""
"html-keyboard-response","62","118300","0.0-28.0-0.0","","1264.2999999970198","<div style=""display: flex; flex-direction: column; align-items: center; margin-top: -40px;""><img src=""images/pattern_5.png"" style=""width: 234px; height: 230px; margin-top: -50px;""><div style=""display: flex; justify-content: space-between; margin-top: 33px;""><img src=""images/choice_trial_10.png"" style=""width: 408px; height: 417px; margin-right: 200px;""><img src=""images/choice_trial_9.png"" style=""width: 408px; height: 417px;""></div></div>","j","delaylearn","learning","trial","64402288403028bd9abd98a7","88RRSRL8dxQpEkAzgxhFRbPA8fr1","1","images/choice_trial_10.png","images/choice_trial_9.png","images/pattern_5.png","j","j","750","10","9","4","1","12","1","1","9","60","","","","",""
"html-keyboard-response","63","119330","0.0-28.0-1.0","","null","<div style=""display: flex; flex-direction: column; align-items: center; margin-top: -40px;""><img src=""images/pattern_5.png"" style=""width: 234px; height: 230px; margin-top: -50px;""><div style=""display: flex; justify-content: space-between; margin-top: 33px;""><img src=""images/choice_trial_9.png"" style=""width: 408px; height: 417px; margin-left:608px;""></div></div>","null","delaylearn","learning","display_response","64402288403028bd9abd98a7","88RRSRL8dxQpEkAzgxhFRbPA8fr1","","","","","","","","","","","","","","","","","chosen stimuli: images/choice_trial_9.png","","","",""
"html-keyboard-response","64","120090","0.0-28.0-2.0","","null","","null","delaylearn","learning","feedback_duration_window","64402288403028bd9abd98a7","88RRSRL8dxQpEkAzgxhFRbPA8fr1","","","","","","","","","","","","","","","","","","750","","",""
"html-keyboard-response","65","121601","0.0-28.0-3.0","","null","<div style='margin:auto;width: auto; font-size: 150%'><span style='font-weight: bold; font-size: 100px; color: green;'>+10 points!</span><br><br></div>","null","delaylearn","learning","feedback_image_window","64402288403028bd9abd98a7","88RRSRL8dxQpEkAzgxhFRbPA8fr1","","","","","","","","","","","","","","","","","","","","",""
"html-keyboard-response","66","123630","0.0-29.0","","null","<div style=""font-size:100px;"">+</div>","null","delaylearn","learning","ITI","64402288403028bd9abd98a7","88RRSRL8dxQpEkAzgxhFRbPA8fr1","","","","","","","","","","","","","","","","","","","2023","",""
"html-keyboard-response","67","125404","0.0-30.0-0.0","","1770.5","<div style=""display: flex; flex-direction: column; align-items: center; margin-top: -40px;""><img src=""images/pattern_6.png"" style=""width: 234px; height: 230px; margin-top: -50px;""><div style=""display: flex; justify-content: space-between; margin-top: 33px;""><img src=""images/choice_trial_11.png"" style=""width: 408px; height: 417px; margin-right: 200px;""><img src=""images/choice_trial_12.png"" style=""width: 408px; height: 417px;""></div></div>","f","delaylearn","learning","trial","64402288403028bd9abd98a7","88RRSRL8dxQpEkAzgxhFRbPA8fr1","1","images/choice_trial_11.png","images/choice_trial_12.png","images/pattern_6.png","j","f","750","11","12","5","0","13","1","0","11","60","","","","",""
"html-keyboard-response","68","126416","0.0-30.0-1.0","","null","<div style=""display: flex; flex-direction: column; align-items: center; margin-top: -40px;""><img src=""images/pattern_6.png"" style=""width: 234px; height: 230px; margin-top: -50px;""><div style=""display: flex; justify-content: space-between; margin-top: 33px;""><img src=""images/choice_trial_11.png"" style=""width: 408px; height: 417px; margin-right: 608px;""></div></div>","null","delaylearn","learning","display_response","64402288403028bd9abd98a7","88RRSRL8dxQpEkAzgxhFRbPA8fr1","","","","","","","","","","","","","","","","","chosen stimuli: images/choice_trial_11.png","","","",""
"html-keyboard-response","69","127182","0.0-30.0-2.0","","null","","null","delaylearn","learning","feedback_duration_window","64402288403028bd9abd98a7","88RRSRL8dxQpEkAzgxhFRbPA8fr1","","","","","","","","","","","","","","","","","","750","","",""
"html-keyboard-response","70","128689","0.0-30.0-3.0","","null","<div style='margin:auto;width: auto; font-size: 150%'><span style='font-weight: bold; font-size: 100px; color: red;'>0 points!</span><br><br></div>","null","delaylearn","learning","feedback_image_window","64402288403028bd9abd98a7","88RRSRL8dxQpEkAzgxhFRbPA8fr1","","","","","","","","","","","","","","","","","","","","",""
"html-keyboard-response","71","129194","0.0-31.0-0.0","","null","","null","","","mood_trial_fixation","","","","","","","","","","","","","","","","","","","","","","",""
"lmdlab-html-vas-response","72","133013","0.0-31.0-1.0","","2807","How happy are you right now?","0.4930555555555556","delaylearn","learning","mood_trial","64402288403028bd9abd98a7","88RRSRL8dxQpEkAzgxhFRbPA8fr1","","","","","","","","","","","","","","","","","","","","[""Very unhappy"",""Very happy""]",""
"html-keyboard-response","73","135345","0.0-32.0","","null","<div style=""font-size:100px;"">+</div>","null","delaylearn","learning","ITI","64402288403028bd9abd98a7","88RRSRL8dxQpEkAzgxhFRbPA8fr1","","","","","","","","","","","","","","","","","","","2318","",""
"html-keyboard-response","74","136590","0.0-33.0-0.0","","1241.7999999970198","<div style=""display: flex; flex-direction: column; align-items: center; margin-top: -40px;""><img src=""images/pattern_1.png"" style=""width: 234px; height: 230px; margin-top: -50px;""><div style=""display: flex; justify-content: space-between; margin-top: 33px;""><img src=""images/choice_trial_2.png"" style=""width: 408px; height: 417px; margin-right: 200px;""><img src=""images/choice_trial_1.png"" style=""width: 408px; height: 417px;""></div></div>","j","delaylearn","learning","trial","64402288403028bd9abd98a7","88RRSRL8dxQpEkAzgxhFRbPA8fr1","1","images/choice_trial_2.png","images/choice_trial_1.png","images/pattern_1.png","j","j","7000","2","1","1","1","14","1","1","1","70","","","","",""
"html-keyboard-response","75","137598","0.0-33.0-1.0","","null","<div style=""display: flex; flex-direction: column; align-items: center; margin-top: -40px;""><img src=""images/pattern_1.png"" style=""width: 234px; height: 230px; margin-top: -50px;""><div style=""display: flex; justify-content: space-between; margin-top: 33px;""><img src=""images/choice_trial_1.png"" style=""width: 408px; height: 417px; margin-left:608px;""></div></div>","null","delaylearn","learning","display_response","64402288403028bd9abd98a7","88RRSRL8dxQpEkAzgxhFRbPA8fr1","","","","","","","","","","","","","","","","","chosen stimuli: images/choice_trial_1.png","","","",""
"html-keyboard-response","76","144618","0.0-33.0-2.0","","null","","null","delaylearn","learning","feedback_duration_window","64402288403028bd9abd98a7","88RRSRL8dxQpEkAzgxhFRbPA8fr1","","","","","","","","","","","","","","","","","","7000","","",""
"html-keyboard-response","77","146125","0.0-33.0-3.0","","null","<div style='margin:auto;width: auto; font-size: 150%'><span style='font-weight: bold; font-size: 100px; color: green;'>+10 points!</span><br><br></div>","null","delaylearn","learning","feedback_image_window","64402288403028bd9abd98a7","88RRSRL8dxQpEkAzgxhFRbPA8fr1","","","","","","","","","","","","","","","","","","","","",""
"html-keyboard-response","78","148151","0.0-34.0","","null","<div style=""font-size:100px;"">+</div>","null","delaylearn","learning","ITI","64402288403028bd9abd98a7","88RRSRL8dxQpEkAzgxhFRbPA8fr1","","","","","","","","","","","","","","","","","","","2017","",""
"html-keyboard-response","79","149998","0.0-35.0-0.0","","1843.3999999985099","<div style=""display: flex; flex-direction: column; align-items: center; margin-top: -40px;""><img src=""images/pattern_3.png"" style=""width: 234px; height: 230px; margin-top: -50px;""><div style=""display: flex; justify-content: space-between; margin-top: 33px;""><img src=""images/choice_trial_6.png"" style=""width: 408px; height: 417px; margin-right: 200px;""><img src=""images/choice_trial_5.png"" style=""width: 408px; height: 417px;""></div></div>","j","delaylearn","learning","trial","64402288403028bd9abd98a7","88RRSRL8dxQpEkAzgxhFRbPA8fr1","1","images/choice_trial_6.png","images/choice_trial_5.png","images/pattern_3.png","f","j","7000","6","5","2","1","15","1","0","5","70","","","","",""
"html-keyboard-response","80","151012","0.0-35.0-1.0","","null","<div style=""display: flex; flex-direction: column; align-items: center; margin-top: -40px;""><img src=""images/pattern_3.png"" style=""width: 234px; height: 230px; margin-top: -50px;""><div style=""display: flex; justify-content: space-between; margin-top: 33px;""><img src=""images/choice_trial_5.png"" style=""width: 408px; height: 417px; margin-left:608px;""></div></div>","null","delaylearn","learning","display_response","64402288403028bd9abd98a7","88RRSRL8dxQpEkAzgxhFRbPA8fr1","","","","","","","","","","","","","","","","","chosen stimuli: images/choice_trial_5.png","","","",""
"html-keyboard-response","81","158019","0.0-35.0-2.0","","null","","null","delaylearn","learning","feedback_duration_window","64402288403028bd9abd98a7","88RRSRL8dxQpEkAzgxhFRbPA8fr1","","","","","","","","","","","","","","","","","","7000","","",""
"html-keyboard-response","82","159526","0.0-35.0-3.0","","null","<div style='margin:auto;width: auto; font-size: 150%'><span style='font-weight: bold; font-size: 100px; color: red;'>0 points!</span><br><br></div>","null","delaylearn","learning","feedback_image_window","64402288403028bd9abd98a7","88RRSRL8dxQpEkAzgxhFRbPA8fr1","","","","","","","","","","","","","","","","","","","","",""
"html-keyboard-response","83","161458","0.0-36.0","","null","<div style=""font-size:100px;"">+</div>","null","delaylearn","learning","ITI","64402288403028bd9abd98a7","88RRSRL8dxQpEkAzgxhFRbPA8fr1","","","","","","","","","","","","","","","","","","","1924","",""
"html-keyboard-response","84","162654","0.0-37.0-0.0","","1191.2999999970198","<div style=""display: flex; flex-direction: column; align-items: center; margin-top: -40px;""><img src=""images/pattern_5.png"" style=""width: 234px; height: 230px; margin-top: -50px;""><div style=""display: flex; justify-content: space-between; margin-top: 33px;""><img src=""images/choice_trial_9.png"" style=""width: 408px; height: 417px; margin-right: 200px;""><img src=""images/choice_trial_10.png"" style=""width: 408px; height: 417px;""></div></div>","j","delaylearn","learning","trial","64402288403028bd9abd98a7","88RRSRL8dxQpEkAzgxhFRbPA8fr1","1","images/choice_trial_9.png","images/choice_trial_10.png","images/pattern_5.png","f","f","750","9","10","4","0","16","0","0","10","70","","","","",""
"html-keyboard-response","85","163665","0.0-37.0-1.0","","null","<div style=""display: flex; flex-direction: column; align-items: center; margin-top: -40px;""><img src=""images/pattern_5.png"" style=""width: 234px; height: 230px; margin-top: -50px;""><div style=""display: flex; justify-content: space-between; margin-top: 33px;""><img src=""images/choice_trial_10.png"" style=""width: 408px; height: 417px; margin-left:608px;""></div></div>","null","delaylearn","learning","display_response","64402288403028bd9abd98a7","88RRSRL8dxQpEkAzgxhFRbPA8fr1","","","","","","","","","","","","","","","","","chosen stimuli: images/choice_trial_10.png","","","",""
"html-keyboard-response","86","164422","0.0-37.0-2.0","","null","","null","delaylearn","learning","feedback_duration_window","64402288403028bd9abd98a7","88RRSRL8dxQpEkAzgxhFRbPA8fr1","","","","","","","","","","","","","","","","","","750","","",""
"html-keyboard-response","87","165933","0.0-37.0-3.0","","null","<div style='margin:auto;width: auto; font-size: 150%'><span style='font-weight: bold; font-size: 100px; color: red;'>0 points!</span><br><br></div>","null","delaylearn","learning","feedback_image_window","64402288403028bd9abd98a7","88RRSRL8dxQpEkAzgxhFRbPA8fr1","","","","","","","","","","","","","","","","","","","","",""
"html-keyboard-response","88","166454","0.0-38.0-0.0","","null","","null","","","mood_trial_fixation","","","","","","","","","","","","","","","","","","","","","","",""
"lmdlab-html-vas-response","89","171991","0.0-38.0-1.0","","4531","How happy are you right now?","0.3101851851851852","delaylearn","learning","mood_trial","64402288403028bd9abd98a7","88RRSRL8dxQpEkAzgxhFRbPA8fr1","","","","","","","","","","","","","","","","","","","","[""Very unhappy"",""Very happy""]",""
"html-keyboard-response","90","174218","0.0-39.0","","null","<div style=""font-size:100px;"">+</div>","null","delaylearn","learning","ITI","64402288403028bd9abd98a7","88RRSRL8dxQpEkAzgxhFRbPA8fr1","","","","","","","","","","","","","","","","","","","2223","",""
"html-keyboard-response","91","175861","0.0-40.0-0.0","","1638.7999999970198","<div style=""display: flex; flex-direction: column; align-items: center; margin-top: -40px;""><img src=""images/pattern_6.png"" style=""width: 234px; height: 230px; margin-top: -50px;""><div style=""display: flex; justify-content: space-between; margin-top: 33px;""><img src=""images/choice_trial_11.png"" style=""width: 408px; height: 417px; margin-right: 200px;""><img src=""images/choice_trial_12.png"" style=""width: 408px; height: 417px;""></div></div>","j","delaylearn","learning","trial","64402288403028bd9abd98a7","88RRSRL8dxQpEkAzgxhFRbPA8fr1","1","images/choice_trial_11.png","images/choice_trial_12.png","images/pattern_6.png","f","f","750","11","12","5","0","17","0","0","12","70","","","","",""
"html-keyboard-response","92","176878","0.0-40.0-1.0","","null","<div style=""display: flex; flex-direction: column; align-items: center; margin-top: -40px;""><img src=""images/pattern_6.png"" style=""width: 234px; height: 230px; margin-top: -50px;""><div style=""display: flex; justify-content: space-between; margin-top: 33px;""><img src=""images/choice_trial_12.png"" style=""width: 408px; height: 417px; margin-left:608px;""></div></div>","null","delaylearn","learning","display_response","64402288403028bd9abd98a7","88RRSRL8dxQpEkAzgxhFRbPA8fr1","","","","","","","","","","","","","","","","","chosen stimuli: images/choice_trial_12.png","","","",""
"html-keyboard-response","93","177640","0.0-40.0-2.0","","null","","null","delaylearn","learning","feedback_duration_window","64402288403028bd9abd98a7","88RRSRL8dxQpEkAzgxhFRbPA8fr1","","","","","","","","","","","","","","","","","","750","","",""
"html-keyboard-response","94","179150","0.0-40.0-3.0","","null","<div style='margin:auto;width: auto; font-size: 150%'><span style='font-weight: bold; font-size: 100px; color: red;'>0 points!</span><br><br></div>","null","delaylearn","learning","feedback_image_window","64402288403028bd9abd98a7","88RRSRL8dxQpEkAzgxhFRbPA8fr1","","","","","","","","","","","","","","","","","","","","",""
"html-keyboard-response","95","180992","0.0-41.0","","null","<div style=""font-size:100px;"">+</div>","null","delaylearn","learning","ITI","64402288403028bd9abd98a7","88RRSRL8dxQpEkAzgxhFRbPA8fr1","","","","","","","","","","","","","","","","","","","1833","",""
"html-keyboard-response","96","182633","0.0-42.0-0.0","","1636.9000000059605","<div style=""display: flex; flex-direction: column; align-items: center; margin-top: -40px;""><img src=""images/pattern_4.png"" style=""width: 234px; height: 230px; margin-top: -50px;""><div style=""display: flex; justify-content: space-between; margin-top: 33px;""><img src=""images/choice_trial_8.png"" style=""width: 408px; height: 417px; margin-right: 200px;""><img src=""images/choice_trial_7.png"" style=""width: 408px; height: 417px;""></div></div>","j","delaylearn","learning","trial","64402288403028bd9abd98a7","88RRSRL8dxQpEkAzgxhFRbPA8fr1","1","images/choice_trial_8.png","images/choice_trial_7.png","images/pattern_4.png","j","j","7000","8","7","3","1","18","1","1","7","80","","","","",""
"html-keyboard-response","97","183639","0.0-42.0-1.0","","null","<div style=""display: flex; flex-direction: column; align-items: center; margin-top: -40px;""><img src=""images/pattern_4.png"" style=""width: 234px; height: 230px; margin-top: -50px;""><div style=""display: flex; justify-content: space-between; margin-top: 33px;""><img src=""images/choice_trial_7.png"" style=""width: 408px; height: 417px; margin-left:608px;""></div></div>","null","delaylearn","learning","display_response","64402288403028bd9abd98a7","88RRSRL8dxQpEkAzgxhFRbPA8fr1","","","","","","","","","","","","","","","","","chosen stimuli: images/choice_trial_7.png","","","",""
"html-keyboard-response","98","190658","0.0-42.0-2.0","","null","","null","delaylearn","learning","feedback_duration_window","64402288403028bd9abd98a7","88RRSRL8dxQpEkAzgxhFRbPA8fr1","","","","","","","","","","","","","","","","","","7000","","",""
"html-keyboard-response","99","192169","0.0-42.0-3.0","","null","<div style='margin:auto;width: auto; font-size: 150%'><span style='font-weight: bold; font-size: 100px; color: green;'>+10 points!</span><br><br></div>","null","delaylearn","learning","feedback_image_window","64402288403028bd9abd98a7","88RRSRL8dxQpEkAzgxhFRbPA8fr1","","","","","","","","","","","","","","","","","","","","",""
"html-keyboard-response","100","193854","0.0-43.0","","null","<div style=""font-size:100px;"">+</div>","null","delaylearn","learning","ITI","64402288403028bd9abd98a7","88RRSRL8dxQpEkAzgxhFRbPA8fr1","","","","","","","","","","","","","","","","","","","1677","",""
"html-keyboard-response","101","195483","0.0-44.0-0.0","","1624.5999999940395","<div style=""display: flex; flex-direction: column; align-items: center; margin-top: -40px;""><img src=""images/pattern_7.png"" style=""width: 234px; height: 230px; margin-top: -50px;""><div style=""display: flex; justify-content: space-between; margin-top: 33px;""><img src=""images/choice_trial_13.png"" style=""width: 408px; height: 417px; margin-right: 200px;""><img src=""images/choice_trial_14.png"" style=""width: 408px; height: 417px;""></div></div>","f","delaylearn","learning","trial","64402288403028bd9abd98a7","88RRSRL8dxQpEkAzgxhFRbPA8fr1","1","images/choice_trial_13.png","images/choice_trial_14.png","images/pattern_7.png","j","f","750","13","14","6","0","19","1","0","13","80","","","","",""
"html-keyboard-response","102","196497","0.0-44.0-1.0","","null","<div style=""display: flex; flex-direction: column; align-items: center; margin-top: -40px;""><img src=""images/pattern_7.png"" style=""width: 234px; height: 230px; margin-top: -50px;""><div style=""display: flex; justify-content: space-between; margin-top: 33px;""><img src=""images/choice_trial_13.png"" style=""width: 408px; height: 417px; margin-right: 608px;""></div></div>","null","delaylearn","learning","display_response","64402288403028bd9abd98a7","88RRSRL8dxQpEkAzgxhFRbPA8fr1","","","","","","","","","","","","","","","","","chosen stimuli: images/choice_trial_13.png","","","",""
"html-keyboard-response","103","197268","0.0-44.0-2.0","","null","","null","delaylearn","learning","feedback_duration_window","64402288403028bd9abd98a7","88RRSRL8dxQpEkAzgxhFRbPA8fr1","","","","","","","","","","","","","","","","","","750","","",""
"html-keyboard-response","104","198782","0.0-44.0-3.0","","null","<div style='margin:auto;width: auto; font-size: 150%'><span style='font-weight: bold; font-size: 100px; color: red;'>0 points!</span><br><br></div>","null","delaylearn","learning","feedback_image_window","64402288403028bd9abd98a7","88RRSRL8dxQpEkAzgxhFRbPA8fr1","","","","","","","","","","","","","","","","","","","","",""
"html-keyboard-response","105","200639","0.0-45.0","","null","<div style=""font-size:100px;"">+</div>","null","delaylearn","learning","ITI","64402288403028bd9abd98a7","88RRSRL8dxQpEkAzgxhFRbPA8fr1","","","","","","","","","","","","","","","","","","","1840","",""
"html-keyboard-response","106","202136","0.0-46.0-0.0","","1492.4000000059605","<div style=""display: flex; flex-direction: column; align-items: center; margin-top: -40px;""><img src=""images/pattern_1.png"" style=""width: 234px; height: 230px; margin-top: -50px;""><div style=""display: flex; justify-content: space-between; margin-top: 33px;""><img src=""images/choice_trial_1.png"" style=""width: 408px; height: 417px; margin-right: 200px;""><img src=""images/choice_trial_2.png"" style=""width: 408px; height: 417px;""></div></div>","j","delaylearn","learning","trial","64402288403028bd9abd98a7","88RRSRL8dxQpEkAzgxhFRbPA8fr1","1","images/choice_trial_1.png","images/choice_trial_2.png","images/pattern_1.png","f","f","7000","1","2","1","0","20","0","0","2","80","","","","",""
"html-keyboard-response","107","203145","0.0-46.0-1.0","","null","<div style=""display: flex; flex-direction: column; align-items: center; margin-top: -40px;""><img src=""images/pattern_1.png"" style=""width: 234px; height: 230px; margin-top: -50px;""><div style=""display: flex; justify-content: space-between; margin-top: 33px;""><img src=""images/choice_trial_2.png"" style=""width: 408px; height: 417px; margin-left:608px;""></div></div>","null","delaylearn","learning","display_response","64402288403028bd9abd98a7","88RRSRL8dxQpEkAzgxhFRbPA8fr1","","","","","","","","","","","","","","","","","chosen stimuli: images/choice_trial_2.png","","","",""
"html-keyboard-response","108","210156","0.0-46.0-2.0","","null","","null","delaylearn","learning","feedback_duration_window","64402288403028bd9abd98a7","88RRSRL8dxQpEkAzgxhFRbPA8fr1","","","","","","","","","","","","","","","","","","7000","","",""
"html-keyboard-response","109","211665","0.0-46.0-3.0","","null","<div style='margin:auto;width: auto; font-size: 150%'><span style='font-weight: bold; font-size: 100px; color: red;'>0 points!</span><br><br></div>","null","delaylearn","learning","feedback_image_window","64402288403028bd9abd98a7","88RRSRL8dxQpEkAzgxhFRbPA8fr1","","","","","","","","","","","","","","","","","","","","",""
"html-keyboard-response","110","213357","0.0-47.0","","null","<div style=""font-size:100px;"">+</div>","null","delaylearn","learning","ITI","64402288403028bd9abd98a7","88RRSRL8dxQpEkAzgxhFRbPA8fr1","","","","","","","","","","","","","","","","","","","1676","",""
"html-keyboard-response","111","215281","0.0-48.0-0.0","","1919.8999999985099","<div style=""display: flex; flex-direction: column; align-items: center; margin-top: -40px;""><img src=""images/pattern_6.png"" style=""width: 234px; height: 230px; margin-top: -50px;""><div style=""display: flex; justify-content: space-between; margin-top: 33px;""><img src=""images/choice_trial_12.png"" style=""width: 408px; height: 417px; margin-right: 200px;""><img src=""images/choice_trial_11.png"" style=""width: 408px; height: 417px;""></div></div>","f","delaylearn","learning","trial","64402288403028bd9abd98a7","88RRSRL8dxQpEkAzgxhFRbPA8fr1","1","images/choice_trial_12.png","images/choice_trial_11.png","images/pattern_6.png","j","j","750","12","11","5","1","21","0","0","12","80","","","","",""
"html-keyboard-response","112","216299","0.0-48.0-1.0","","null","<div style=""display: flex; flex-direction: column; align-items: center; margin-top: -40px;""><img src=""images/pattern_6.png"" style=""width: 234px; height: 230px; margin-top: -50px;""><div style=""display: flex; justify-content: space-between; margin-top: 33px;""><img src=""images/choice_trial_12.png"" style=""width: 408px; height: 417px; margin-right: 608px;""></div></div>","null","delaylearn","learning","display_response","64402288403028bd9abd98a7","88RRSRL8dxQpEkAzgxhFRbPA8fr1","","","","","","","","","","","","","","","","","chosen stimuli: images/choice_trial_12.png","","","",""
"html-keyboard-response","113","217053","0.0-48.0-2.0","","null","","null","delaylearn","learning","feedback_duration_window","64402288403028bd9abd98a7","88RRSRL8dxQpEkAzgxhFRbPA8fr1","","","","","","","","","","","","","","","","","","750","","",""
"html-keyboard-response","114","218569","0.0-48.0-3.0","","null","<div style='margin:auto;width: auto; font-size: 150%'><span style='font-weight: bold; font-size: 100px; color: red;'>0 points!</span><br><br></div>","null","delaylearn","learning","feedback_image_window","64402288403028bd9abd98a7","88RRSRL8dxQpEkAzgxhFRbPA8fr1","","","","","","","","","","","","","","","","","","","","",""
"html-keyboard-response","115","220193","0.0-49.0","","null","<div style=""font-size:100px;"">+</div>","null","delaylearn","learning","ITI","64402288403028bd9abd98a7","88RRSRL8dxQpEkAzgxhFRbPA8fr1","","","","","","","","","","","","","","","","","","","1622","",""
"html-keyboard-response","116","221685","0.0-50.0-0.0","","1487.6000000014901","<div style=""display: flex; flex-direction: column; align-items: center; margin-top: -40px;""><img src=""images/pattern_4.png"" style=""width: 234px; height: 230px; margin-top: -50px;""><div style=""display: flex; justify-content: space-between; margin-top: 33px;""><img src=""images/choice_trial_7.png"" style=""width: 408px; height: 417px; margin-right: 200px;""><img src=""images/choice_trial_8.png"" style=""width: 408px; height: 417px;""></div></div>","f","delaylearn","learning","trial","64402288403028bd9abd98a7","88RRSRL8dxQpEkAzgxhFRbPA8fr1","1","images/choice_trial_7.png","images/choice_trial_8.png","images/pattern_4.png","f","f","7000","7","8","3","0","22","1","1","7","90","","","","",""
"html-keyboard-response","117","222707","0.0-50.0-1.0","","null","<div style=""display: flex; flex-direction: column; align-items: center; margin-top: -40px;""><img src=""images/pattern_4.png"" style=""width: 234px; height: 230px; margin-top: -50px;""><div style=""display: flex; justify-content: space-between; margin-top: 33px;""><img src=""images/choice_trial_7.png"" style=""width: 408px; height: 417px; margin-right: 608px;""></div></div>","null","delaylearn","learning","display_response","64402288403028bd9abd98a7","88RRSRL8dxQpEkAzgxhFRbPA8fr1","","","","","","","","","","","","","","","","","chosen stimuli: images/choice_trial_7.png","","","",""
"html-keyboard-response","118","229713","0.0-50.0-2.0","","null","","null","delaylearn","learning","feedback_duration_window","64402288403028bd9abd98a7","88RRSRL8dxQpEkAzgxhFRbPA8fr1","","","","","","","","","","","","","","","","","","7000","","",""
"html-keyboard-response","119","231225","0.0-50.0-3.0","","null","<div style='margin:auto;width: auto; font-size: 150%'><span style='font-weight: bold; font-size: 100px; color: green;'>+10 points!</span><br><br></div>","null","delaylearn","learning","feedback_image_window","64402288403028bd9abd98a7","88RRSRL8dxQpEkAzgxhFRbPA8fr1","","","","","","","","","","","","","","","","","","","","",""
"html-keyboard-response","120","231727","0.0-51.0-0.0","","null","","null","","","mood_trial_fixation","","","","","","","","","","","","","","","","","","","","","","",""
"lmdlab-html-vas-response","121","236587","0.0-51.0-1.0","","3853","How happy are you right now?","0.2361111111111111","delaylearn","learning","mood_trial","64402288403028bd9abd98a7","88RRSRL8dxQpEkAzgxhFRbPA8fr1","","","","","","","","","","","","","","","","","","","","[""Very unhappy"",""Very happy""]",""
"html-keyboard-response","122","238804","0.0-52.0","","null","<div style=""font-size:100px;"">+</div>","null","delaylearn","learning","ITI","64402288403028bd9abd98a7","88RRSRL8dxQpEkAzgxhFRbPA8fr1","","","","","","","","","","","","","","","","","","","2214","",""
"html-keyboard-response","123","240132","0.0-53.0-0.0","","1323.3000000044703","<div style=""display: flex; flex-direction: column; align-items: center; margin-top: -40px;""><img src=""images/pattern_7.png"" style=""width: 234px; height: 230px; margin-top: -50px;""><div style=""display: flex; justify-content: space-between; margin-top: 33px;""><img src=""images/choice_trial_14.png"" style=""width: 408px; height: 417px; margin-right: 200px;""><img src=""images/choice_trial_13.png"" style=""width: 408px; height: 417px;""></div></div>","f","delaylearn","learning","trial","64402288403028bd9abd98a7","88RRSRL8dxQpEkAzgxhFRbPA8fr1","1","images/choice_trial_14.png","images/choice_trial_13.png","images/pattern_7.png","j","j","750","14","13","6","1","23","0","0","14","90","","","","",""
"html-keyboard-response","124","241142","0.0-53.0-1.0","","null","<div style=""display: flex; flex-direction: column; align-items: center; margin-top: -40px;""><img src=""images/pattern_7.png"" style=""width: 234px; height: 230px; margin-top: -50px;""><div style=""display: flex; justify-content: space-between; margin-top: 33px;""><img src=""images/choice_trial_14.png"" style=""width: 408px; height: 417px; margin-right: 608px;""></div></div>","null","delaylearn","learning","display_response","64402288403028bd9abd98a7","88RRSRL8dxQpEkAzgxhFRbPA8fr1","","","","","","","","","","","","","","","","","chosen stimuli: images/choice_trial_14.png","","","",""
"html-keyboard-response","125","241896","0.0-53.0-2.0","","null","","null","delaylearn","learning","feedback_duration_window","64402288403028bd9abd98a7","88RRSRL8dxQpEkAzgxhFRbPA8fr1","","","","","","","","","","","","","","","","","","750","","",""
"html-keyboard-response","126","243414","0.0-53.0-3.0","","null","<div style='margin:auto;width: auto; font-size: 150%'><span style='font-weight: bold; font-size: 100px; color: red;'>0 points!</span><br><br></div>","null","delaylearn","learning","feedback_image_window","64402288403028bd9abd98a7","88RRSRL8dxQpEkAzgxhFRbPA8fr1","","","","","","","","","","","","","","","","","","","","",""
"html-keyboard-response","127","244941","0.0-54.0","","null","<div style=""font-size:100px;"">+</div>","null","delaylearn","learning","ITI","64402288403028bd9abd98a7","88RRSRL8dxQpEkAzgxhFRbPA8fr1","","","","","","","","","","","","","","","","","","","1513","",""
"html-keyboard-response","128","246355","0.0-55.0-0.0","","1411.3000000044703","<div style=""display: flex; flex-direction: column; align-items: center; margin-top: -40px;""><img src=""images/pattern_1.png"" style=""width: 234px; height: 230px; margin-top: -50px;""><div style=""display: flex; justify-content: space-between; margin-top: 33px;""><img src=""images/choice_trial_2.png"" style=""width: 408px; height: 417px; margin-right: 200px;""><img src=""images/choice_trial_1.png"" style=""width: 408px; height: 417px;""></div></div>","f","delaylearn","learning","trial","64402288403028bd9abd98a7","88RRSRL8dxQpEkAzgxhFRbPA8fr1","1","images/choice_trial_2.png","images/choice_trial_1.png","images/pattern_1.png","f","j","7000","2","1","1","1","24","0","1","2","100","","","","",""
"html-keyboard-response","129","247374","0.0-55.0-1.0","","null","<div style=""display: flex; flex-direction: column; align-items: center; margin-top: -40px;""><img src=""images/pattern_1.png"" style=""width: 234px; height: 230px; margin-top: -50px;""><div style=""display: flex; justify-content: space-between; margin-top: 33px;""><img src=""images/choice_trial_2.png"" style=""width: 408px; height: 417px; margin-right: 608px;""></div></div>","null","delaylearn","learning","display_response","64402288403028bd9abd98a7","88RRSRL8dxQpEkAzgxhFRbPA8fr1","","","","","","","","","","","","","","","","","chosen stimuli: images/choice_trial_2.png","","","",""
"html-keyboard-response","130","254391","0.0-55.0-2.0","","null","","null","delaylearn","learning","feedback_duration_window","64402288403028bd9abd98a7","88RRSRL8dxQpEkAzgxhFRbPA8fr1","","","","","","","","","","","","","","","","","","7000","","",""
"html-keyboard-response","131","255896","0.0-55.0-3.0","","null","<div style='margin:auto;width: auto; font-size: 150%'><span style='font-weight: bold; font-size: 100px; color: green;'>+10 points!</span><br><br></div>","null","delaylearn","learning","feedback_image_window","64402288403028bd9abd98a7","88RRSRL8dxQpEkAzgxhFRbPA8fr1","","","","","","","","","","","","","","","","","","","","",""
"html-keyboard-response","132","257855","0.0-56.0","","null","<div style=""font-size:100px;"">+</div>","null","delaylearn","learning","ITI","64402288403028bd9abd98a7","88RRSRL8dxQpEkAzgxhFRbPA8fr1","","","","","","","","","","","","","","","","","","","1953","",""
"html-keyboard-response","133","259670","0.0-57.0-0.0","","1812.2000000029802","<div style=""display: flex; flex-direction: column; align-items: center; margin-top: -40px;""><img src=""images/pattern_5.png"" style=""width: 234px; height: 230px; margin-top: -50px;""><div style=""display: flex; justify-content: space-between; margin-top: 33px;""><img src=""images/choice_trial_10.png"" style=""width: 408px; height: 417px; margin-right: 200px;""><img src=""images/choice_trial_9.png"" style=""width: 408px; height: 417px;""></div></div>","j","delaylearn","learning","trial","64402288403028bd9abd98a7","88RRSRL8dxQpEkAzgxhFRbPA8fr1","1","images/choice_trial_10.png","images/choice_trial_9.png","images/pattern_5.png","j","j","750","10","9","4","1","25","1","1","9","110","","","","",""
"html-keyboard-response","134","260678","0.0-57.0-1.0","","null","<div style=""display: flex; flex-direction: column; align-items: center; margin-top: -40px;""><img src=""images/pattern_5.png"" style=""width: 234px; height: 230px; margin-top: -50px;""><div style=""display: flex; justify-content: space-between; margin-top: 33px;""><img src=""images/choice_trial_9.png"" style=""width: 408px; height: 417px; margin-left:608px;""></div></div>","null","delaylearn","learning","display_response","64402288403028bd9abd98a7","88RRSRL8dxQpEkAzgxhFRbPA8fr1","","","","","","","","","","","","","","","","","chosen stimuli: images/choice_trial_9.png","","","",""
"html-keyboard-response","135","261432","0.0-57.0-2.0","","null","","null","delaylearn","learning","feedback_duration_window","64402288403028bd9abd98a7","88RRSRL8dxQpEkAzgxhFRbPA8fr1","","","","","","","","","","","","","","","","","","750","","",""
"html-keyboard-response","136","262941","0.0-57.0-3.0","","null","<div style='margin:auto;width: auto; font-size: 150%'><span style='font-weight: bold; font-size: 100px; color: green;'>+10 points!</span><br><br></div>","null","delaylearn","learning","feedback_image_window","64402288403028bd9abd98a7","88RRSRL8dxQpEkAzgxhFRbPA8fr1","","","","","","","","","","","","","","","","","","","","",""
"html-keyboard-response","137","265283","0.0-58.0","","null","<div style=""font-size:100px;"">+</div>","null","delaylearn","learning","ITI","64402288403028bd9abd98a7","88RRSRL8dxQpEkAzgxhFRbPA8fr1","","","","","","","","","","","","","","","","","","","2338","",""
"html-keyboard-response","138","267464","0.0-59.0-0.0","","2177.5","<div style=""display: flex; flex-direction: column; align-items: center; margin-top: -40px;""><img src=""images/pattern_3.png"" style=""width: 234px; height: 230px; margin-top: -50px;""><div style=""display: flex; justify-content: space-between; margin-top: 33px;""><img src=""images/choice_trial_6.png"" style=""width: 408px; height: 417px; margin-right: 200px;""><img src=""images/choice_trial_5.png"" style=""width: 408px; height: 417px;""></div></div>","f","delaylearn","learning","trial","64402288403028bd9abd98a7","88RRSRL8dxQpEkAzgxhFRbPA8fr1","1","images/choice_trial_6.png","images/choice_trial_5.png","images/pattern_3.png","j","j","7000","6","5","2","1","26","0","0","6","110","","","","",""
"html-keyboard-response","139","268473","0.0-59.0-1.0","","null","<div style=""display: flex; flex-direction: column; align-items: center; margin-top: -40px;""><img src=""images/pattern_3.png"" style=""width: 234px; height: 230px; margin-top: -50px;""><div style=""display: flex; justify-content: space-between; margin-top: 33px;""><img src=""images/choice_trial_6.png"" style=""width: 408px; height: 417px; margin-right: 608px;""></div></div>","null","delaylearn","learning","display_response","64402288403028bd9abd98a7","88RRSRL8dxQpEkAzgxhFRbPA8fr1","","","","","","","","","","","","","","","","","chosen stimuli: images/choice_trial_6.png","","","",""
"html-keyboard-response","140","275483","0.0-59.0-2.0","","null","","null","delaylearn","learning","feedback_duration_window","64402288403028bd9abd98a7","88RRSRL8dxQpEkAzgxhFRbPA8fr1","","","","","","","","","","","","","","","","","","7000","","",""
"html-keyboard-response","141","276991","0.0-59.0-3.0","","null","<div style='margin:auto;width: auto; font-size: 150%'><span style='font-weight: bold; font-size: 100px; color: red;'>0 points!</span><br><br></div>","null","delaylearn","learning","feedback_image_window","64402288403028bd9abd98a7","88RRSRL8dxQpEkAzgxhFRbPA8fr1","","","","","","","","","","","","","","","","","","","","",""
"lmdlab-html-vas-response","142","283696","0.0-60.0-0.0","","5188","*How <b><u>confident</u></b> are you feeling about your answers at this moment?*","0.2708333333333333","rewlearn","rate_confidence","","64402288403028bd9abd98a7","88RRSRL8dxQpEkAzgxhFRbPA8fr1","","","","","","","","","","","","","","","","","","","","[""No confidence"",""Complete confidence""]",""
"lmdlab-rest-trial-limit","143","292529","0.0-60.0-1.0","","7313.79999999702","<div style=""font-size:40px;""><b>Please take a break!</b><br><br><br><br><p>Great work: you earned 110 points.<br><br><br><p>You have completed part(s) 1 of 5.<br><br><br><br>When you are ready to continue<br><br><br>please click the button.</p><br><br>","0","delaylearn","learning","break","64402288403028bd9abd98a7","88RRSRL8dxQpEkAzgxhFRbPA8fr1","","","","","","","","","","","","","","","","","","","","","0"
"html-keyboard-response","144","295549","0.0-60.0-2.0","","null","<div style=""font-size:100px;"">+</div>","null","delaylearn","learning","pre_fixation","64402288403028bd9abd98a7","","","","","","","","","","","","","","","","","","","","","",""
"lmdlab-html-vas-response","145","301487","0.0-60.0-3.0-0.0","","4918","How happy are you right now?","0.6111111111111112","delaylearn","learning","mood_baseline","64402288403028bd9abd98a7","88RRSRL8dxQpEkAzgxhFRbPA8fr1","","","","","","","","","","","","","","","","","","","","[""Very unhappy"",""Very happy""]",""
"html-keyboard-response","146","302995","0.0-60.0-3.0-1.0","","null","","null","","","mood_baseline_fixation","","","","","","","","","","","","","","","","","","","","","","",""
"html-keyboard-response","147","304702","0.0-61.0","","null","<div style=""font-size:100px;"">+</div>","null","delaylearn","learning","ITI","64402288403028bd9abd98a7","88RRSRL8dxQpEkAzgxhFRbPA8fr1","","","","","","","","","","","","","","","","","","","1704","",""
"html-keyboard-response","148","306216","0.0-62.0-0.0","","1510.8999999985099","<div style=""display: flex; flex-direction: column; align-items: center; margin-top: -40px;""><img src=""images/pattern_7.png"" style=""width: 234px; height: 230px; margin-top: -50px;""><div style=""display: flex; justify-content: space-between; margin-top: 33px;""><img src=""images/choice_trial_14.png"" style=""width: 408px; height: 417px; margin-right: 200px;""><img src=""images/choice_trial_13.png"" style=""width: 408px; height: 417px;""></div></div>","j","delaylearn","learning","trial","64402288403028bd9abd98a7","88RRSRL8dxQpEkAzgxhFRbPA8fr1","1","images/choice_trial_14.png","images/choice_trial_13.png","images/pattern_7.png","j","j","750","14","13","6","1","27","1","1","13","120","","","","",""
"html-keyboard-response","149","307219","0.0-62.0-1.0","","null","<div style=""display: flex; flex-direction: column; align-items: center; margin-top: -40px;""><img src=""images/pattern_7.png"" style=""width: 234px; height: 230px; margin-top: -50px;""><div style=""display: flex; justify-content: space-between; margin-top: 33px;""><img src=""images/choice_trial_13.png"" style=""width: 408px; height: 417px; margin-left:608px;""></div></div>","null","delaylearn","learning","display_response","64402288403028bd9abd98a7","88RRSRL8dxQpEkAzgxhFRbPA8fr1","","","","","","","","","","","","","","","","","chosen stimuli: images/choice_trial_13.png","","","",""
"html-keyboard-response","150","307980","0.0-62.0-2.0","","null","","null","delaylearn","learning","feedback_duration_window","64402288403028bd9abd98a7","88RRSRL8dxQpEkAzgxhFRbPA8fr1","","","","","","","","","","","","","","","","","","750","","",""
"html-keyboard-response","151","309486","0.0-62.0-3.0","","null","<div style='margin:auto;width: auto; font-size: 150%'><span style='font-weight: bold; font-size: 100px; color: green;'>+10 points!</span><br><br></div>","null","delaylearn","learning","feedback_image_window","64402288403028bd9abd98a7","88RRSRL8dxQpEkAzgxhFRbPA8fr1","","","","","","","","","","","","","","","","","","","","",""
"html-keyboard-response","152","309996","0.0-63.0-0.0","","null","","null","","","mood_trial_fixation","","","","","","","","","","","","","","","","","","","","","","",""
"lmdlab-html-vas-response","153","313992","0.0-63.0-1.0","","2975","How happy are you right now?","0.7013888888888888","delaylearn","learning","mood_trial","64402288403028bd9abd98a7","88RRSRL8dxQpEkAzgxhFRbPA8fr1","","","","","","","","","","","","","","","","","","","","[""Very unhappy"",""Very happy""]",""
"html-keyboard-response","154","315509","0.0-64.0","","null","<div style=""font-size:100px;"">+</div>","null","delaylearn","learning","ITI","64402288403028bd9abd98a7","88RRSRL8dxQpEkAzgxhFRbPA8fr1","","","","","","","","","","","","","","","","","","","1507","",""
"html-keyboard-response","155","317066","0.0-65.0-0.0","","1554.2999999970198","<div style=""display: flex; flex-direction: column; align-items: center; margin-top: -40px;""><img src=""images/pattern_1.png"" style=""width: 234px; height: 230px; margin-top: -50px;""><div style=""display: flex; justify-content: space-between; margin-top: 33px;""><img src=""images/choice_trial_1.png"" style=""width: 408px; height: 417px; margin-right: 200px;""><img src=""images/choice_trial_2.png"" style=""width: 408px; height: 417px;""></div></div>","j","delaylearn","learning","trial","64402288403028bd9abd98a7","88RRSRL8dxQpEkAzgxhFRbPA8fr1","1","images/choice_trial_1.png","images/choice_trial_2.png","images/pattern_1.png","f","f","7000","1","2","1","0","28","0","0","2","120","","","","",""
"html-keyboard-response","156","318076","0.0-65.0-1.0","","null","<div style=""display: flex; flex-direction: column; align-items: center; margin-top: -40px;""><img src=""images/pattern_1.png"" style=""width: 234px; height: 230px; margin-top: -50px;""><div style=""display: flex; justify-content: space-between; margin-top: 33px;""><img src=""images/choice_trial_2.png"" style=""width: 408px; height: 417px; margin-left:608px;""></div></div>","null","delaylearn","learning","display_response","64402288403028bd9abd98a7","88RRSRL8dxQpEkAzgxhFRbPA8fr1","","","","","","","","","","","","","","","","","chosen stimuli: images/choice_trial_2.png","","","",""
"html-keyboard-response","157","325081","0.0-65.0-2.0","","null","","null","delaylearn","learning","feedback_duration_window","64402288403028bd9abd98a7","88RRSRL8dxQpEkAzgxhFRbPA8fr1","","","","","","","","","","","","","","","","","","7000","","",""
"html-keyboard-response","158","326609","0.0-65.0-3.0","","null","<div style='margin:auto;width: auto; font-size: 150%'><span style='font-weight: bold; font-size: 100px; color: red;'>0 points!</span><br><br></div>","null","delaylearn","learning","feedback_image_window","64402288403028bd9abd98a7","88RRSRL8dxQpEkAzgxhFRbPA8fr1","","","","","","","","","","","","","","","","","","","","",""
"html-keyboard-response","159","328854","0.0-66.0","","null","<div style=""font-size:100px;"">+</div>","null","delaylearn","learning","ITI","64402288403028bd9abd98a7","88RRSRL8dxQpEkAzgxhFRbPA8fr1","","","","","","","","","","","","","","","","","","","2233","",""
"html-keyboard-response","160","330587","0.0-67.0-0.0","","1730","<div style=""display: flex; flex-direction: column; align-items: center; margin-top: -40px;""><img src=""images/pattern_5.png"" style=""width: 234px; height: 230px; margin-top: -50px;""><div style=""display: flex; justify-content: space-between; margin-top: 33px;""><img src=""images/choice_trial_9.png"" style=""width: 408px; height: 417px; margin-right: 200px;""><img src=""images/choice_trial_10.png"" style=""width: 408px; height: 417px;""></div></div>","j","delaylearn","learning","trial","64402288403028bd9abd98a7","88RRSRL8dxQpEkAzgxhFRbPA8fr1","1","images/choice_trial_9.png","images/choice_trial_10.png","images/pattern_5.png","f","f","750","9","10","4","0","29","0","0","10","120","","","","",""
"html-keyboard-response","161","331608","0.0-67.0-1.0","","null","<div style=""display: flex; flex-direction: column; align-items: center; margin-top: -40px;""><img src=""images/pattern_5.png"" style=""width: 234px; height: 230px; margin-top: -50px;""><div style=""display: flex; justify-content: space-between; margin-top: 33px;""><img src=""images/choice_trial_10.png"" style=""width: 408px; height: 417px; margin-left:608px;""></div></div>","null","delaylearn","learning","display_response","64402288403028bd9abd98a7","88RRSRL8dxQpEkAzgxhFRbPA8fr1","","","","","","","","","","","","","","","","","chosen stimuli: images/choice_trial_10.png","","","",""
"html-keyboard-response","162","332370","0.0-67.0-2.0","","null","","null","delaylearn","learning","feedback_duration_window","64402288403028bd9abd98a7","88RRSRL8dxQpEkAzgxhFRbPA8fr1","","","","","","","","","","","","","","","","","","750","","",""
"html-keyboard-response","163","333877","0.0-67.0-3.0","","null","<div style='margin:auto;width: auto; font-size: 150%'><span style='font-weight: bold; font-size: 100px; color: red;'>0 points!</span><br><br></div>","null","delaylearn","learning","feedback_image_window","64402288403028bd9abd98a7","88RRSRL8dxQpEkAzgxhFRbPA8fr1","","","","","","","","","","","","","","","","","","","","",""
"html-keyboard-response","164","335463","0.0-68.0","","null","<div style=""font-size:100px;"">+</div>","null","delaylearn","learning","ITI","64402288403028bd9abd98a7","88RRSRL8dxQpEkAzgxhFRbPA8fr1","","","","","","","","","","","","","","","","","","","1574","",""
"html-keyboard-response","165","337643","0.0-69.0-0.0","","2177.5","<div style=""display: flex; flex-direction: column; align-items: center; margin-top: -40px;""><img src=""images/pattern_6.png"" style=""width: 234px; height: 230px; margin-top: -50px;""><div style=""display: flex; justify-content: space-between; margin-top: 33px;""><img src=""images/choice_trial_12.png"" style=""width: 408px; height: 417px; margin-right: 200px;""><img src=""images/choice_trial_11.png"" style=""width: 408px; height: 417px;""></div></div>","f","delaylearn","learning","trial","64402288403028bd9abd98a7","88RRSRL8dxQpEkAzgxhFRbPA8fr1","1","images/choice_trial_12.png","images/choice_trial_11.png","images/pattern_6.png","j","j","750","12","11","5","1","30","0","0","12","120","","","","",""
"html-keyboard-response","166","338659","0.0-69.0-1.0","","null","<div style=""display: flex; flex-direction: column; align-items: center; margin-top: -40px;""><img src=""images/pattern_6.png"" style=""width: 234px; height: 230px; margin-top: -50px;""><div style=""display: flex; justify-content: space-between; margin-top: 33px;""><img src=""images/choice_trial_12.png"" style=""width: 408px; height: 417px; margin-right: 608px;""></div></div>","null","delaylearn","learning","display_response","64402288403028bd9abd98a7","88RRSRL8dxQpEkAzgxhFRbPA8fr1","","","","","","","","","","","","","","","","","chosen stimuli: images/choice_trial_12.png","","","",""
"html-keyboard-response","167","339413","0.0-69.0-2.0","","null","","null","delaylearn","learning","feedback_duration_window","64402288403028bd9abd98a7","88RRSRL8dxQpEkAzgxhFRbPA8fr1","","","","","","","","","","","","","","","","","","750","","",""
"html-keyboard-response","168","340932","0.0-69.0-3.0","","null","<div style='margin:auto;width: auto; font-size: 150%'><span style='font-weight: bold; font-size: 100px; color: red;'>0 points!</span><br><br></div>","null","delaylearn","learning","feedback_image_window","64402288403028bd9abd98a7","88RRSRL8dxQpEkAzgxhFRbPA8fr1","","","","","","","","","","","","","","","","","","","","",""
"html-keyboard-response","169","341435","0.0-70.0-0.0","","null","","null","","","mood_trial_fixation","","","","","","","","","","","","","","","","","","","","","","",""
"lmdlab-html-vas-response","170","346351","0.0-70.0-1.0","","3892","How happy are you right now?","0.4722222222222222","delaylearn","learning","mood_trial","64402288403028bd9abd98a7","88RRSRL8dxQpEkAzgxhFRbPA8fr1","","","","","","","","","","","","","","","","","","","","[""Very unhappy"",""Very happy""]",""
"html-keyboard-response","171","348496","0.0-71.0","","null","<div style=""font-size:100px;"">+</div>","null","delaylearn","learning","ITI","64402288403028bd9abd98a7","88RRSRL8dxQpEkAzgxhFRbPA8fr1","","","","","","","","","","","","","","","","","","","2132","",""
"html-keyboard-response","172","349847","0.0-72.0-0.0","","1346.5","<div style=""display: flex; flex-direction: column; align-items: center; margin-top: -40px;""><img src=""images/pattern_4.png"" style=""width: 234px; height: 230px; margin-top: -50px;""><div style=""display: flex; justify-content: space-between; margin-top: 33px;""><img src=""images/choice_trial_8.png"" style=""width: 408px; height: 417px; margin-right: 200px;""><img src=""images/choice_trial_7.png"" style=""width: 408px; height: 417px;""></div></div>","j","delaylearn","learning","trial","64402288403028bd9abd98a7","88RRSRL8dxQpEkAzgxhFRbPA8fr1","1","images/choice_trial_8.png","images/choice_trial_7.png","images/pattern_4.png","j","j","7000","8","7","3","1","31","1","1","7","130","","","","",""
"html-keyboard-response","173","350856","0.0-72.0-1.0","","null","<div style=""display: flex; flex-direction: column; align-items: center; margin-top: -40px;""><img src=""images/pattern_4.png"" style=""width: 234px; height: 230px; margin-top: -50px;""><div style=""display: flex; justify-content: space-between; margin-top: 33px;""><img src=""images/choice_trial_7.png"" style=""width: 408px; height: 417px; margin-left:608px;""></div></div>","null","delaylearn","learning","display_response","64402288403028bd9abd98a7","88RRSRL8dxQpEkAzgxhFRbPA8fr1","","","","","","","","","","","","","","","","","chosen stimuli: images/choice_trial_7.png","","","",""
"html-keyboard-response","174","357878","0.0-72.0-2.0","","null","","null","delaylearn","learning","feedback_duration_window","64402288403028bd9abd98a7","88RRSRL8dxQpEkAzgxhFRbPA8fr1","","","","","","","","","","","","","","","","","","7000","","",""
"html-keyboard-response","175","359385","0.0-72.0-3.0","","null","<div style='margin:auto;width: auto; font-size: 150%'><span style='font-weight: bold; font-size: 100px; color: green;'>+10 points!</span><br><br></div>","null","delaylearn","learning","feedback_image_window","64402288403028bd9abd98a7","88RRSRL8dxQpEkAzgxhFRbPA8fr1","","","","","","","","","","","","","","","","","","","","",""
"html-keyboard-response","176","361582","0.0-73.0","","null","<div style=""font-size:100px;"">+</div>","null","delaylearn","learning","ITI","64402288403028bd9abd98a7","88RRSRL8dxQpEkAzgxhFRbPA8fr1","","","","","","","","","","","","","","","","","","","2191","",""
"html-keyboard-response","177","363110","0.0-74.0-0.0","","1522.8999999985099","<div style=""display: flex; flex-direction: column; align-items: center; margin-top: -40px;""><img src=""images/pattern_3.png"" style=""width: 234px; height: 230px; margin-top: -50px;""><div style=""display: flex; justify-content: space-between; margin-top: 33px;""><img src=""images/choice_trial_6.png"" style=""width: 408px; height: 417px; margin-right: 200px;""><img src=""images/choice_trial_5.png"" style=""width: 408px; height: 417px;""></div></div>","j","delaylearn","learning","trial","64402288403028bd9abd98a7","88RRSRL8dxQpEkAzgxhFRbPA8fr1","1","images/choice_trial_6.png","images/choice_trial_5.png","images/pattern_3.png","j","j","7000","6","5","2","1","32","1","1","5","140","","","","",""
"html-keyboard-response","178","364124","0.0-74.0-1.0","","null","<div style=""display: flex; flex-direction: column; align-items: center; margin-top: -40px;""><img src=""images/pattern_3.png"" style=""width: 234px; height: 230px; margin-top: -50px;""><div style=""display: flex; justify-content: space-between; margin-top: 33px;""><img src=""images/choice_trial_5.png"" style=""width: 408px; height: 417px; margin-left:608px;""></div></div>","null","delaylearn","learning","display_response","64402288403028bd9abd98a7","88RRSRL8dxQpEkAzgxhFRbPA8fr1","","","","","","","","","","","","","","","","","chosen stimuli: images/choice_trial_5.png","","","",""
"html-keyboard-response","179","371135","0.0-74.0-2.0","","null","","null","delaylearn","learning","feedback_duration_window","64402288403028bd9abd98a7","88RRSRL8dxQpEkAzgxhFRbPA8fr1","","","","","","","","","","","","","","","","","","7000","","",""
"html-keyboard-response","180","372647","0.0-74.0-3.0","","null","<div style='margin:auto;width: auto; font-size: 150%'><span style='font-weight: bold; font-size: 100px; color: green;'>+10 points!</span><br><br></div>","null","delaylearn","learning","feedback_image_window","64402288403028bd9abd98a7","88RRSRL8dxQpEkAzgxhFRbPA8fr1","","","","","","","","","","","","","","","","","","","","",""
"html-keyboard-response","181","375133","0.0-75.0","","null","<div style=""font-size:100px;"">+</div>","null","delaylearn","learning","ITI","64402288403028bd9abd98a7","88RRSRL8dxQpEkAzgxhFRbPA8fr1","","","","","","","","","","","","","","","","","","","2475","",""
"html-keyboard-response","182","377469","0.0-76.0-0.0","","2330.8000000044703","<div style=""display: flex; flex-direction: column; align-items: center; margin-top: -40px;""><img src=""images/pattern_5.png"" style=""width: 234px; height: 230px; margin-top: -50px;""><div style=""display: flex; justify-content: space-between; margin-top: 33px;""><img src=""images/choice_trial_9.png"" style=""width: 408px; height: 417px; margin-right: 200px;""><img src=""images/choice_trial_10.png"" style=""width: 408px; height: 417px;""></div></div>","f","delaylearn","learning","trial","64402288403028bd9abd98a7","88RRSRL8dxQpEkAzgxhFRbPA8fr1","1","images/choice_trial_9.png","images/choice_trial_10.png","images/pattern_5.png","j","f","750","9","10","4","0","33","1","0","9","140","","","","",""
"html-keyboard-response","183","378494","0.0-76.0-1.0","","null","<div style=""display: flex; flex-direction: column; align-items: center; margin-top: -40px;""><img src=""images/pattern_5.png"" style=""width: 234px; height: 230px; margin-top: -50px;""><div style=""display: flex; justify-content: space-between; margin-top: 33px;""><img src=""images/choice_trial_9.png"" style=""width: 408px; height: 417px; margin-right: 608px;""></div></div>","null","delaylearn","learning","display_response","64402288403028bd9abd98a7","88RRSRL8dxQpEkAzgxhFRbPA8fr1","","","","","","","","","","","","","","","","","chosen stimuli: images/choice_trial_9.png","","","",""
"html-keyboard-response","184","379267","0.0-76.0-2.0","","null","","null","delaylearn","learning","feedback_duration_window","64402288403028bd9abd98a7","88RRSRL8dxQpEkAzgxhFRbPA8fr1","","","","","","","","","","","","","","","","","","750","","",""
"html-keyboard-response","185","380773","0.0-76.0-3.0","","null","<div style='margin:auto;width: auto; font-size: 150%'><span style='font-weight: bold; font-size: 100px; color: red;'>0 points!</span><br><br></div>","null","delaylearn","learning","feedback_image_window","64402288403028bd9abd98a7","88RRSRL8dxQpEkAzgxhFRbPA8fr1","","","","","","","","","","","","","","","","","","","","",""
"html-keyboard-response","186","382691","0.0-77.0","","null","<div style=""font-size:100px;"">+</div>","null","delaylearn","learning","ITI","64402288403028bd9abd98a7","88RRSRL8dxQpEkAzgxhFRbPA8fr1","","","","","","","","","","","","","","","","","","","1903","",""
"html-keyboard-response","187","384491","0.0-78.0-0.0","","1795","<div style=""display: flex; flex-direction: column; align-items: center; margin-top: -40px;""><img src=""images/pattern_1.png"" style=""width: 234px; height: 230px; margin-top: -50px;""><div style=""display: flex; justify-content: space-between; margin-top: 33px;""><img src=""images/choice_trial_1.png"" style=""width: 408px; height: 417px; margin-right: 200px;""><img src=""images/choice_trial_2.png"" style=""width: 408px; height: 417px;""></div></div>","j","delaylearn","learning","trial","64402288403028bd9abd98a7","88RRSRL8dxQpEkAzgxhFRbPA8fr1","1","images/choice_trial_1.png","images/choice_trial_2.png","images/pattern_1.png","f","f","7000","1","2","1","0","34","0","0","2","140","","","","",""
"html-keyboard-response","188","385494","0.0-78.0-1.0","","null","<div style=""display: flex; flex-direction: column; align-items: center; margin-top: -40px;""><img src=""images/pattern_1.png"" style=""width: 234px; height: 230px; margin-top: -50px;""><div style=""display: flex; justify-content: space-between; margin-top: 33px;""><img src=""images/choice_trial_2.png"" style=""width: 408px; height: 417px; margin-left:608px;""></div></div>","null","delaylearn","learning","display_response","64402288403028bd9abd98a7","88RRSRL8dxQpEkAzgxhFRbPA8fr1","","","","","","","","","","","","","","","","","chosen stimuli: images/choice_trial_2.png","","","",""
"html-keyboard-response","189","392510","0.0-78.0-2.0","","null","","null","delaylearn","learning","feedback_duration_window","64402288403028bd9abd98a7","88RRSRL8dxQpEkAzgxhFRbPA8fr1","","","","","","","","","","","","","","","","","","7000","","",""
"html-keyboard-response","190","394024","0.0-78.0-3.0","","null","<div style='margin:auto;width: auto; font-size: 150%'><span style='font-weight: bold; font-size: 100px; color: red;'>0 points!</span><br><br></div>","null","delaylearn","learning","feedback_image_window","64402288403028bd9abd98a7","88RRSRL8dxQpEkAzgxhFRbPA8fr1","","","","","","","","","","","","","","","","","","","","",""
"html-keyboard-response","191","394541","0.0-79.0-0.0","","null","","null","","","mood_trial_fixation","","","","","","","","","","","","","","","","","","","","","","",""
"lmdlab-html-vas-response","192","399420","0.0-79.0-1.0","","3872","How happy are you right now?","0.4027777777777778","delaylearn","learning","mood_trial","64402288403028bd9abd98a7","88RRSRL8dxQpEkAzgxhFRbPA8fr1","","","","","","","","","","","","","","","","","","","","[""Very unhappy"",""Very happy""]",""
"html-keyboard-response","193","401096","0.0-80.0","","null","<div style=""font-size:100px;"">+</div>","null","delaylearn","learning","ITI","64402288403028bd9abd98a7","88RRSRL8dxQpEkAzgxhFRbPA8fr1","","","","","","","","","","","","","","","","","","","1669","",""
"html-keyboard-response","194","402635","0.0-81.0-0.0","","1533.5","<div style=""display: flex; flex-direction: column; align-items: center; margin-top: -40px;""><img src=""images/pattern_6.png"" style=""width: 234px; height: 230px; margin-top: -50px;""><div style=""display: flex; justify-content: space-between; margin-top: 33px;""><img src=""images/choice_trial_11.png"" style=""width: 408px; height: 417px; margin-right: 200px;""><img src=""images/choice_trial_12.png"" style=""width: 408px; height: 417px;""></div></div>","f","delaylearn","learning","trial","64402288403028bd9abd98a7","88RRSRL8dxQpEkAzgxhFRbPA8fr1","1","images/choice_trial_11.png","images/choice_trial_12.png","images/pattern_6.png","j","f","750","11","12","5","0","35","1","0","11","140","","","","",""
"html-keyboard-response","195","403654","0.0-81.0-1.0","","null","<div style=""display: flex; flex-direction: column; align-items: center; margin-top: -40px;""><img src=""images/pattern_6.png"" style=""width: 234px; height: 230px; margin-top: -50px;""><div style=""display: flex; justify-content: space-between; margin-top: 33px;""><img src=""images/choice_trial_11.png"" style=""width: 408px; height: 417px; margin-right: 608px;""></div></div>","null","delaylearn","learning","display_response","64402288403028bd9abd98a7","88RRSRL8dxQpEkAzgxhFRbPA8fr1","","","","","","","","","","","","","","","","","chosen stimuli: images/choice_trial_11.png","","","",""
"html-keyboard-response","196","404423","0.0-81.0-2.0","","null","","null","delaylearn","learning","feedback_duration_window","64402288403028bd9abd98a7","88RRSRL8dxQpEkAzgxhFRbPA8fr1","","","","","","","","","","","","","","","","","","750","","",""
"html-keyboard-response","197","405930","0.0-81.0-3.0","","null","<div style='margin:auto;width: auto; font-size: 150%'><span style='font-weight: bold; font-size: 100px; color: red;'>0 points!</span><br><br></div>","null","delaylearn","learning","feedback_image_window","64402288403028bd9abd98a7","88RRSRL8dxQpEkAzgxhFRbPA8fr1","","","","","","","","","","","","","","","","","","","","",""
"html-keyboard-response","198","408382","0.0-82.0","","null","<div style=""font-size:100px;"">+</div>","null","delaylearn","learning","ITI","64402288403028bd9abd98a7","88RRSRL8dxQpEkAzgxhFRbPA8fr1","","","","","","","","","","","","","","","","","","","2443","",""
"html-keyboard-response","199","409468","0.0-83.0-0.0","","1082.0999999940395","<div style=""display: flex; flex-direction: column; align-items: center; margin-top: -40px;""><img src=""images/pattern_3.png"" style=""width: 234px; height: 230px; margin-top: -50px;""><div style=""display: flex; justify-content: space-between; margin-top: 33px;""><img src=""images/choice_trial_6.png"" style=""width: 408px; height: 417px; margin-right: 200px;""><img src=""images/choice_trial_5.png"" style=""width: 408px; height: 417px;""></div></div>","j","delaylearn","learning","trial","64402288403028bd9abd98a7","88RRSRL8dxQpEkAzgxhFRbPA8fr1","1","images/choice_trial_6.png","images/choice_trial_5.png","images/pattern_3.png","j","j","7000","6","5","2","1","36","1","1","5","150","","","","",""
"html-keyboard-response","200","410492","0.0-83.0-1.0","","null","<div style=""display: flex; flex-direction: column; align-items: center; margin-top: -40px;""><img src=""images/pattern_3.png"" style=""width: 234px; height: 230px; margin-top: -50px;""><div style=""display: flex; justify-content: space-between; margin-top: 33px;""><img src=""images/choice_trial_5.png"" style=""width: 408px; height: 417px; margin-left:608px;""></div></div>","null","delaylearn","learning","display_response","64402288403028bd9abd98a7","88RRSRL8dxQpEkAzgxhFRbPA8fr1","","","","","","","","","","","","","","","","","chosen stimuli: images/choice_trial_5.png","","","",""
"html-keyboard-response","201","417500","0.0-83.0-2.0","","null","","null","delaylearn","learning","feedback_duration_window","64402288403028bd9abd98a7","88RRSRL8dxQpEkAzgxhFRbPA8fr1","","","","","","","","","","","","","","","","","","7000","","",""
"html-keyboard-response","202","419009","0.0-83.0-3.0","","null","<div style='margin:auto;width: auto; font-size: 150%'><span style='font-weight: bold; font-size: 100px; color: green;'>+10 points!</span><br><br></div>","null","delaylearn","learning","feedback_image_window","64402288403028bd9abd98a7","88RRSRL8dxQpEkAzgxhFRbPA8fr1","","","","","","","","","","","","","","","","","","","","",""
"html-keyboard-response","203","421374","0.0-84.0","","null","<div style=""font-size:100px;"">+</div>","null","delaylearn","learning","ITI","64402288403028bd9abd98a7","88RRSRL8dxQpEkAzgxhFRbPA8fr1","","","","","","","","","","","","","","","","","","","2358","",""
"html-keyboard-response","204","423013","0.0-85.0-0.0","","1633.8999999985099","<div style=""display: flex; flex-direction: column; align-items: center; margin-top: -40px;""><img src=""images/pattern_4.png"" style=""width: 234px; height: 230px; margin-top: -50px;""><div style=""display: flex; justify-content: space-between; margin-top: 33px;""><img src=""images/choice_trial_8.png"" style=""width: 408px; height: 417px; margin-right: 200px;""><img src=""images/choice_trial_7.png"" style=""width: 408px; height: 417px;""></div></div>","f","delaylearn","learning","trial","64402288403028bd9abd98a7","88RRSRL8dxQpEkAzgxhFRbPA8fr1","1","images/choice_trial_8.png","images/choice_trial_7.png","images/pattern_4.png","f","j","7000","8","7","3","1","37","0","1","8","160","","","","",""
"html-keyboard-response","205","424021","0.0-85.0-1.0","","null","<div style=""display: flex; flex-direction: column; align-items: center; margin-top: -40px;""><img src=""images/pattern_4.png"" style=""width: 234px; height: 230px; margin-top: -50px;""><div style=""display: flex; justify-content: space-between; margin-top: 33px;""><img src=""images/choice_trial_8.png"" style=""width: 408px; height: 417px; margin-right: 608px;""></div></div>","null","delaylearn","learning","display_response","64402288403028bd9abd98a7","88RRSRL8dxQpEkAzgxhFRbPA8fr1","","","","","","","","","","","","","","","","","chosen stimuli: images/choice_trial_8.png","","","",""
"html-keyboard-response","206","431027","0.0-85.0-2.0","","null","","null","delaylearn","learning","feedback_duration_window","64402288403028bd9abd98a7","88RRSRL8dxQpEkAzgxhFRbPA8fr1","","","","","","","","","","","","","","","","","","7000","","",""
"html-keyboard-response","207","432539","0.0-85.0-3.0","","null","<div style='margin:auto;width: auto; font-size: 150%'><span style='font-weight: bold; font-size: 100px; color: green;'>+10 points!</span><br><br></div>","null","delaylearn","learning","feedback_image_window","64402288403028bd9abd98a7","88RRSRL8dxQpEkAzgxhFRbPA8fr1","","","","","","","","","","","","","","","","","","","","",""
"html-keyboard-response","208","434466","0.0-86.0","","null","<div style=""font-size:100px;"">+</div>","null","delaylearn","learning","ITI","64402288403028bd9abd98a7","88RRSRL8dxQpEkAzgxhFRbPA8fr1","","","","","","","","","","","","","","","","","","","1894","",""
"html-keyboard-response","209","436236","0.0-87.0-0.0","","1763.7999999970198","<div style=""display: flex; flex-direction: column; align-items: center; margin-top: -40px;""><img src=""images/pattern_7.png"" style=""width: 234px; height: 230px; margin-top: -50px;""><div style=""display: flex; justify-content: space-between; margin-top: 33px;""><img src=""images/choice_trial_13.png"" style=""width: 408px; height: 417px; margin-right: 200px;""><img src=""images/choice_trial_14.png"" style=""width: 408px; height: 417px;""></div></div>","f","delaylearn","learning","trial","64402288403028bd9abd98a7","88RRSRL8dxQpEkAzgxhFRbPA8fr1","1","images/choice_trial_13.png","images/choice_trial_14.png","images/pattern_7.png","f","f","750","13","14","6","0","38","1","1","13","170","","","","",""
"html-keyboard-response","210","437245","0.0-87.0-1.0","","null","<div style=""display: flex; flex-direction: column; align-items: center; margin-top: -40px;""><img src=""images/pattern_7.png"" style=""width: 234px; height: 230px; margin-top: -50px;""><div style=""display: flex; justify-content: space-between; margin-top: 33px;""><img src=""images/choice_trial_13.png"" style=""width: 408px; height: 417px; margin-right: 608px;""></div></div>","null","delaylearn","learning","display_response","64402288403028bd9abd98a7","88RRSRL8dxQpEkAzgxhFRbPA8fr1","","","","","","","","","","","","","","","","","chosen stimuli: images/choice_trial_13.png","","","",""
"html-keyboard-response","211","438002","0.0-87.0-2.0","","null","","null","delaylearn","learning","feedback_duration_window","64402288403028bd9abd98a7","88RRSRL8dxQpEkAzgxhFRbPA8fr1","","","","","","","","","","","","","","","","","","750","","",""
"html-keyboard-response","212","439520","0.0-87.0-3.0","","null","<div style='margin:auto;width: auto; font-size: 150%'><span style='font-weight: bold; font-size: 100px; color: green;'>+10 points!</span><br><br></div>","null","delaylearn","learning","feedback_image_window","64402288403028bd9abd98a7","88RRSRL8dxQpEkAzgxhFRbPA8fr1","","","","","","","","","","","","","","","","","","","","",""
"html-keyboard-response","213","441752","0.0-88.0","","null","<div style=""font-size:100px;"">+</div>","null","delaylearn","learning","ITI","64402288403028bd9abd98a7","88RRSRL8dxQpEkAzgxhFRbPA8fr1","","","","","","","","","","","","","","","","","","","2219","",""
"html-keyboard-response","214","443749","0.0-89.0-0.0","","1994.1000000014901","<div style=""display: flex; flex-direction: column; align-items: center; margin-top: -40px;""><img src=""images/pattern_1.png"" style=""width: 234px; height: 230px; margin-top: -50px;""><div style=""display: flex; justify-content: space-between; margin-top: 33px;""><img src=""images/choice_trial_1.png"" style=""width: 408px; height: 417px; margin-right: 200px;""><img src=""images/choice_trial_2.png"" style=""width: 408px; height: 417px;""></div></div>","f","delaylearn","learning","trial","64402288403028bd9abd98a7","88RRSRL8dxQpEkAzgxhFRbPA8fr1","1","images/choice_trial_1.png","images/choice_trial_2.png","images/pattern_1.png","f","f","7000","1","2","1","0","39","1","1","1","180","","","","",""
"html-keyboard-response","215","444767","0.0-89.0-1.0","","null","<div style=""display: flex; flex-direction: column; align-items: center; margin-top: -40px;""><img src=""images/pattern_1.png"" style=""width: 234px; height: 230px; margin-top: -50px;""><div style=""display: flex; justify-content: space-between; margin-top: 33px;""><img src=""images/choice_trial_1.png"" style=""width: 408px; height: 417px; margin-right: 608px;""></div></div>","null","delaylearn","learning","display_response","64402288403028bd9abd98a7","88RRSRL8dxQpEkAzgxhFRbPA8fr1","","","","","","","","","","","","","","","","","chosen stimuli: images/choice_trial_1.png","","","",""
"html-keyboard-response","216","451779","0.0-89.0-2.0","","null","","null","delaylearn","learning","feedback_duration_window","64402288403028bd9abd98a7","88RRSRL8dxQpEkAzgxhFRbPA8fr1","","","","","","","","","","","","","","","","","","7000","","",""
"html-keyboard-response","217","453295","0.0-89.0-3.0","","null","<div style='margin:auto;width: auto; font-size: 150%'><span style='font-weight: bold; font-size: 100px; color: green;'>+10 points!</span><br><br></div>","null","delaylearn","learning","feedback_image_window","64402288403028bd9abd98a7","88RRSRL8dxQpEkAzgxhFRbPA8fr1","","","","","","","","","","","","","","","","","","","","",""
"html-keyboard-response","218","453808","0.0-90.0-0.0","","null","","null","","","mood_trial_fixation","","","","","","","","","","","","","","","","","","","","","","",""
"lmdlab-html-vas-response","219","457836","0.0-90.0-1.0","","2996","How happy are you right now?","0.5625","delaylearn","learning","mood_trial","64402288403028bd9abd98a7","88RRSRL8dxQpEkAzgxhFRbPA8fr1","","","","","","","","","","","","","","","","","","","","[""Very unhappy"",""Very happy""]",""
"html-keyboard-response","220","459835","0.0-91.0","","null","<div style=""font-size:100px;"">+</div>","null","delaylearn","learning","ITI","64402288403028bd9abd98a7","88RRSRL8dxQpEkAzgxhFRbPA8fr1","","","","","","","","","","","","","","","","","","","1995","",""
