"trial_type","trial_index","time_elapsed","internal_node_id","participant","rt","stimulus","response","exp_name","exp_stage","test_part","subjectID","databaseID","counterbal","choice_stimuli_1","choice_stimuli_2","pattern_stimuli","rewarded_answer","correct_answer","feedback_duration_times","stim_left","stim_right","pair","leftright_counter","trial","response_correct","response_rewarded","chosen_stim","counter","displayed_choice","feedback_durations","ITI_duration","labels","rest_warning"
"pavlovia","0","665","0.0-0.0","","","","","","","","","","","","","","","","","","","","","","","","","","","","","",""
"html-keyboard-response","1","3671","0.0-1.0","","null","<div style=""font-size:100px;"">+</div>","null","delaylearn","learning","pre_fixation","657867e466a237b839df006a","","","","","","","","","","","","","","","","","","","","","",""
"html-keyboard-response","2","3830","0.0-2.0-0.0","","154.80000001192093","<div style=""display: flex; flex-direction: column; align-items: center; margin-top: -40px;""><img src=""images/demo_images/pattern_1.png"" style=""width: 234px; height: 230px; margin-top: -50px;""><div style=""display: flex; justify-content: space-between; margin-top: 33px;""><img src=""images/demo_images/choice_trial_2.png"" style=""width: 408px; height: 417px; margin-right: 200px;""><img src=""images/demo_images/choice_trial_1.png"" style=""width: 408px; height: 417px;""></div></div>","f","delaylearn","learning","trial","657867e466a237b839df006a","92VU1tf4VmV6HvyXxX5YDNojz5D3","3","images/demo_images/choice_trial_2.png","images/demo_images/choice_trial_1.png","images/demo_images/pattern_1.png","j","j","3000","2","1","20","1","1","0","0","2","0","","","","",""
"html-keyboard-response","3","4849","0.0-2.0-1.0","","null","<div style=""display: flex; flex-direction: column; align-items: center; margin-top: -40px;""><img src=""images/demo_images/pattern_1.png"" style=""width: 234px; height: 230px; margin-top: -50px;""><div style=""display: flex; justify-content: space-between; margin-top: 33px;""><img src=""images/demo_images/choice_trial_2.png"" style=""width: 408px; height: 417px; margin-right: 608px;""></div></div>","null","delaylearn","learning","display_response","657867e466a237b839df006a","92VU1tf4VmV6HvyXxX5YDNojz5D3","","","","","","","","","","","","","","","","","chosen stimuli: images/demo_images/choice_trial_2.png","","","",""
"html-keyboard-response","4","7860","0.0-2.0-2.0","","null","","null","delaylearn","learning","feedback_duration_window","657867e466a237b839df006a","92VU1tf4VmV6HvyXxX5YDNojz5D3","","","","","","","","","","","","","","","","","","3000","","",""
"html-keyboard-response","5","9371","0.0-2.0-3.0","","null","<div style='margin:auto;width: auto; font-size: 150%'><span style='font-weight: bold; font-size: 100px; color: red;'>0 points!</span><br><br></div>","null","delaylearn","learning","feedback_image_window","657867e466a237b839df006a","92VU1tf4VmV6HvyXxX5YDNojz5D3","","","","","","","","","","","","","","","","","","","","",""
"html-keyboard-response","6","11228","0.0-3.0","","null","<div style=""font-size:100px;"">+</div>","null","delaylearn","learning","ITI","657867e466a237b839df006a","92VU1tf4VmV6HvyXxX5YDNojz5D3","","","","","","","","","","","","","","","","","","","1845","",""
"html-keyboard-response","7","12112","0.0-4.0-0.0","","879.3000000119209","<div style=""display: flex; flex-direction: column; align-items: center; margin-top: -40px;""><img src=""images/demo_images/pattern_1.png"" style=""width: 234px; height: 230px; margin-top: -50px;""><div style=""display: flex; justify-content: space-between; margin-top: 33px;""><img src=""images/demo_images/choice_trial_2.png"" style=""width: 408px; height: 417px; margin-right: 200px;""><img src=""images/demo_images/choice_trial_1.png"" style=""width: 408px; height: 417px;""></div></div>","j","delaylearn","learning","trial","657867e466a237b839df006a","92VU1tf4VmV6HvyXxX5YDNojz5D3","3","images/demo_images/choice_trial_2.png","images/demo_images/choice_trial_1.png","images/demo_images/pattern_1.png","j","j","3000","2","1","20","1","2","1","1","1","10","","","","",""
"html-keyboard-response","8","13116","0.0-4.0-1.0","","null","<div style=""display: flex; flex-direction: column; align-items: center; margin-top: -40px;""><img src=""images/demo_images/pattern_1.png"" style=""width: 234px; height: 230px; margin-top: -50px;""><div style=""display: flex; justify-content: space-between; margin-top: 33px;""><img src=""images/demo_images/choice_trial_1.png"" style=""width: 408px; height: 417px; margin-left:608px;""></div></div>","null","delaylearn","learning","display_response","657867e466a237b839df006a","92VU1tf4VmV6HvyXxX5YDNojz5D3","","","","","","","","","","","","","","","","","chosen stimuli: images/demo_images/choice_trial_1.png","","","",""
"html-keyboard-response","9","16134","0.0-4.0-2.0","","null","","null","delaylearn","learning","feedback_duration_window","657867e466a237b839df006a","92VU1tf4VmV6HvyXxX5YDNojz5D3","","","","","","","","","","","","","","","","","","3000","","",""
"html-keyboard-response","10","17637","0.0-4.0-3.0","","null","<div style='margin:auto;width: auto; font-size: 150%'><span style='font-weight: bold; font-size: 100px; color: green;'>+10 points!</span><br><br></div>","null","delaylearn","learning","feedback_image_window","657867e466a237b839df006a","92VU1tf4VmV6HvyXxX5YDNojz5D3","","","","","","","","","","","","","","","","","","","","",""
"html-keyboard-response","11","19414","0.0-5.0","","null","<div style=""font-size:100px;"">+</div>","null","delaylearn","learning","ITI","657867e466a237b839df006a","92VU1tf4VmV6HvyXxX5YDNojz5D3","","","","","","","","","","","","","","","","","","","1768","",""
"html-keyboard-response","12","20425","0.0-6.0-0.0","","1008.1999999880791","<div style=""display: flex; flex-direction: column; align-items: center; margin-top: -40px;""><img src=""images/demo_images/pattern_1.png"" style=""width: 234px; height: 230px; margin-top: -50px;""><div style=""display: flex; justify-content: space-between; margin-top: 33px;""><img src=""images/demo_images/choice_trial_1.png"" style=""width: 408px; height: 417px; margin-right: 200px;""><img src=""images/demo_images/choice_trial_2.png"" style=""width: 408px; height: 417px;""></div></div>","f","delaylearn","learning","trial","657867e466a237b839df006a","92VU1tf4VmV6HvyXxX5YDNojz5D3","3","images/demo_images/choice_trial_1.png","images/demo_images/choice_trial_2.png","images/demo_images/pattern_1.png","j","f","3000","1","2","20","0","3","1","0","1","10","","","","",""
"html-keyboard-response","13","21432","0.0-6.0-1.0","","null","<div style=""display: flex; flex-direction: column; align-items: center; margin-top: -40px;""><img src=""images/demo_images/pattern_1.png"" style=""width: 234px; height: 230px; margin-top: -50px;""><div style=""display: flex; justify-content: space-between; margin-top: 33px;""><img src=""images/demo_images/choice_trial_1.png"" style=""width: 408px; height: 417px; margin-right: 608px;""></div></div>","null","delaylearn","learning","display_response","657867e466a237b839df006a","92VU1tf4VmV6HvyXxX5YDNojz5D3","","","","","","","","","","","","","","","","","chosen stimuli: images/demo_images/choice_trial_1.png","","","",""
"html-keyboard-response","14","24436","0.0-6.0-2.0","","null","","null","delaylearn","learning","feedback_duration_window","657867e466a237b839df006a","92VU1tf4VmV6HvyXxX5YDNojz5D3","","","","","","","","","","","","","","","","","","3000","","",""
"html-keyboard-response","15","25942","0.0-6.0-3.0","","null","<div style='margin:auto;width: auto; font-size: 150%'><span style='font-weight: bold; font-size: 100px; color: red;'>0 points!</span><br><br></div>","null","delaylearn","learning","feedback_image_window","657867e466a237b839df006a","92VU1tf4VmV6HvyXxX5YDNojz5D3","","","","","","","","","","","","","","","","","","","","",""
"html-keyboard-response","16","27966","0.0-7.0","","null","<div style=""font-size:100px;"">+</div>","null","delaylearn","learning","ITI","657867e466a237b839df006a","92VU1tf4VmV6HvyXxX5YDNojz5D3","","","","","","","","","","","","","","","","","","","2019","",""
"html-keyboard-response","17","28915","0.0-8.0-0.0","","946.1999999880791","<div style=""display: flex; flex-direction: column; align-items: center; margin-top: -40px;""><img src=""images/demo_images/pattern_1.png"" style=""width: 234px; height: 230px; margin-top: -50px;""><div style=""display: flex; justify-content: space-between; margin-top: 33px;""><img src=""images/demo_images/choice_trial_1.png"" style=""width: 408px; height: 417px; margin-right: 200px;""><img src=""images/demo_images/choice_trial_2.png"" style=""width: 408px; height: 417px;""></div></div>","f","delaylearn","learning","trial","657867e466a237b839df006a","92VU1tf4VmV6HvyXxX5YDNojz5D3","3","images/demo_images/choice_trial_1.png","images/demo_images/choice_trial_2.png","images/demo_images/pattern_1.png","f","f","3000","1","2","20","0","4","1","1","1","20","","","","",""
"html-keyboard-response","18","29922","0.0-8.0-1.0","","null","<div style=""display: flex; flex-direction: column; align-items: center; margin-top: -40px;""><img src=""images/demo_images/pattern_1.png"" style=""width: 234px; height: 230px; margin-top: -50px;""><div style=""display: flex; justify-content: space-between; margin-top: 33px;""><img src=""images/demo_images/choice_trial_1.png"" style=""width: 408px; height: 417px; margin-right: 608px;""></div></div>","null","delaylearn","learning","display_response","657867e466a237b839df006a","92VU1tf4VmV6HvyXxX5YDNojz5D3","","","","","","","","","","","","","","","","","chosen stimuli: images/demo_images/choice_trial_1.png","","","",""
"html-keyboard-response","19","32936","0.0-8.0-2.0","","null","","null","delaylearn","learning","feedback_duration_window","657867e466a237b839df006a","92VU1tf4VmV6HvyXxX5YDNojz5D3","","","","","","","","","","","","","","","","","","3000","","",""
"html-keyboard-response","20","34440","0.0-8.0-3.0","","null","<div style='margin:auto;width: auto; font-size: 150%'><span style='font-weight: bold; font-size: 100px; color: green;'>+10 points!</span><br><br></div>","null","delaylearn","learning","feedback_image_window","657867e466a237b839df006a","92VU1tf4VmV6HvyXxX5YDNojz5D3","","","","","","","","","","","","","","","","","","","","",""
"html-keyboard-response","21","34952","0.0-9.0-0.0","","null","","null","","","mood_trial_fixation","","","","","","","","","","","","","","","","","","","","","","",""
"lmdlab-html-vas-response","22","41490","0.0-9.0-1.0","","5508","How happy are you right now?","0.8515818385270082","delaylearn","learning","mood_trial","657867e466a237b839df006a","92VU1tf4VmV6HvyXxX5YDNojz5D3","","","","","","","","","","","","","","","","","","","","[""Very unhappy"",""Very happy""]",""
"html-keyboard-response","23","43849","0.0-10.0","","null","<div style=""font-size:100px;"">+</div>","null","delaylearn","learning","ITI","657867e466a237b839df006a","92VU1tf4VmV6HvyXxX5YDNojz5D3","","","","","","","","","","","","","","","","","","","2343","",""
"html-keyboard-response","24","44974","0.0-11.0-0.0","","1123.4000000357628","<div style=""display: flex; flex-direction: column; align-items: center; margin-top: -40px;""><img src=""images/demo_images/pattern_1.png"" style=""width: 234px; height: 230px; margin-top: -50px;""><div style=""display: flex; justify-content: space-between; margin-top: 33px;""><img src=""images/demo_images/choice_trial_2.png"" style=""width: 408px; height: 417px; margin-right: 200px;""><img src=""images/demo_images/choice_trial_1.png"" style=""width: 408px; height: 417px;""></div></div>","j","delaylearn","learning","trial","657867e466a237b839df006a","92VU1tf4VmV6HvyXxX5YDNojz5D3","3","images/demo_images/choice_trial_2.png","images/demo_images/choice_trial_1.png","images/demo_images/pattern_1.png","j","j","3000","2","1","20","1","5","1","1","1","30","","","","",""
"html-keyboard-response","25","45990","0.0-11.0-1.0","","null","<div style=""display: flex; flex-direction: column; align-items: center; margin-top: -40px;""><img src=""images/demo_images/pattern_1.png"" style=""width: 234px; height: 230px; margin-top: -50px;""><div style=""display: flex; justify-content: space-between; margin-top: 33px;""><img src=""images/demo_images/choice_trial_1.png"" style=""width: 408px; height: 417px; margin-left:608px;""></div></div>","null","delaylearn","learning","display_response","657867e466a237b839df006a","92VU1tf4VmV6HvyXxX5YDNojz5D3","","","","","","","","","","","","","","","","","chosen stimuli: images/demo_images/choice_trial_1.png","","","",""
"html-keyboard-response","26","49001","0.0-11.0-2.0","","null","","null","delaylearn","learning","feedback_duration_window","657867e466a237b839df006a","92VU1tf4VmV6HvyXxX5YDNojz5D3","","","","","","","","","","","","","","","","","","3000","","",""
"html-keyboard-response","27","50509","0.0-11.0-3.0","","null","<div style='margin:auto;width: auto; font-size: 150%'><span style='font-weight: bold; font-size: 100px; color: green;'>+10 points!</span><br><br></div>","null","delaylearn","learning","feedback_image_window","657867e466a237b839df006a","92VU1tf4VmV6HvyXxX5YDNojz5D3","","","","","","","","","","","","","","","","","","","","",""
"html-keyboard-response","28","52967","0.0-12.0","","null","<div style=""font-size:100px;"">+</div>","null","delaylearn","learning","ITI","657867e466a237b839df006a","92VU1tf4VmV6HvyXxX5YDNojz5D3","","","","","","","","","","","","","","","","","","","2454","",""
"html-keyboard-response","29","53606","0.0-13.0-0.0","","636.3000000119209","<div style=""display: flex; flex-direction: column; align-items: center; margin-top: -40px;""><img src=""images/demo_images/pattern_1.png"" style=""width: 234px; height: 230px; margin-top: -50px;""><div style=""display: flex; justify-content: space-between; margin-top: 33px;""><img src=""images/demo_images/choice_trial_1.png"" style=""width: 408px; height: 417px; margin-right: 200px;""><img src=""images/demo_images/choice_trial_2.png"" style=""width: 408px; height: 417px;""></div></div>","f","delaylearn","learning","trial","657867e466a237b839df006a","92VU1tf4VmV6HvyXxX5YDNojz5D3","3","images/demo_images/choice_trial_1.png","images/demo_images/choice_trial_2.png","images/demo_images/pattern_1.png","f","f","3000","1","2","20","0","6","1","1","1","40","","","","",""
"html-keyboard-response","30","54621","0.0-13.0-1.0","","null","<div style=""display: flex; flex-direction: column; align-items: center; margin-top: -40px;""><img src=""images/demo_images/pattern_1.png"" style=""width: 234px; height: 230px; margin-top: -50px;""><div style=""display: flex; justify-content: space-between; margin-top: 33px;""><img src=""images/demo_images/choice_trial_1.png"" style=""width: 408px; height: 417px; margin-right: 608px;""></div></div>","null","delaylearn","learning","display_response","657867e466a237b839df006a","92VU1tf4VmV6HvyXxX5YDNojz5D3","","","","","","","","","","","","","","","","","chosen stimuli: images/demo_images/choice_trial_1.png","","","",""
"html-keyboard-response","31","57637","0.0-13.0-2.0","","null","","null","delaylearn","learning","feedback_duration_window","657867e466a237b839df006a","92VU1tf4VmV6HvyXxX5YDNojz5D3","","","","","","","","","","","","","","","","","","3000","","",""
"html-keyboard-response","32","59147","0.0-13.0-3.0","","null","<div style='margin:auto;width: auto; font-size: 150%'><span style='font-weight: bold; font-size: 100px; color: green;'>+10 points!</span><br><br></div>","null","delaylearn","learning","feedback_image_window","657867e466a237b839df006a","92VU1tf4VmV6HvyXxX5YDNojz5D3","","","","","","","","","","","","","","","","","","","","",""
"html-keyboard-response","33","61228","0.0-14.0","","null","<div style=""font-size:100px;"">+</div>","null","delaylearn","learning","ITI","657867e466a237b839df006a","92VU1tf4VmV6HvyXxX5YDNojz5D3","","","","","","","","","","","","","","","","","","","2069","",""
"html-keyboard-response","34","62096","0.0-15.0-0.0","","865.8000000119209","<div style=""display: flex; flex-direction: column; align-items: center; margin-top: -40px;""><img src=""images/demo_images/pattern_1.png"" style=""width: 234px; height: 230px; margin-top: -50px;""><div style=""display: flex; justify-content: space-between; margin-top: 33px;""><img src=""images/demo_images/choice_trial_2.png"" style=""width: 408px; height: 417px; margin-right: 200px;""><img src=""images/demo_images/choice_trial_1.png"" style=""width: 408px; height: 417px;""></div></div>","j","delaylearn","learning","trial","657867e466a237b839df006a","92VU1tf4VmV6HvyXxX5YDNojz5D3","3","images/demo_images/choice_trial_2.png","images/demo_images/choice_trial_1.png","images/demo_images/pattern_1.png","j","j","3000","2","1","20","1","7","1","1","1","50","","","","",""
"html-keyboard-response","35","63101","0.0-15.0-1.0","","null","<div style=""display: flex; flex-direction: column; align-items: center; margin-top: -40px;""><img src=""images/demo_images/pattern_1.png"" style=""width: 234px; height: 230px; margin-top: -50px;""><div style=""display: flex; justify-content: space-between; margin-top: 33px;""><img src=""images/demo_images/choice_trial_1.png"" style=""width: 408px; height: 417px; margin-left:608px;""></div></div>","null","delaylearn","learning","display_response","657867e466a237b839df006a","92VU1tf4VmV6HvyXxX5YDNojz5D3","","","","","","","","","","","","","","","","","chosen stimuli: images/demo_images/choice_trial_1.png","","","",""
"html-keyboard-response","36","66110","0.0-15.0-2.0","","null","","null","delaylearn","learning","feedback_duration_window","657867e466a237b839df006a","92VU1tf4VmV6HvyXxX5YDNojz5D3","","","","","","","","","","","","","","","","","","3000","","",""
"html-keyboard-response","37","67614","0.0-15.0-3.0","","null","<div style='margin:auto;width: auto; font-size: 150%'><span style='font-weight: bold; font-size: 100px; color: green;'>+10 points!</span><br><br></div>","null","delaylearn","learning","feedback_image_window","657867e466a237b839df006a","92VU1tf4VmV6HvyXxX5YDNojz5D3","","","","","","","","","","","","","","","","","","","","",""
"html-keyboard-response","38","69320","0.0-16.0","","null","<div style=""font-size:100px;"">+</div>","null","delaylearn","learning","ITI","657867e466a237b839df006a","92VU1tf4VmV6HvyXxX5YDNojz5D3","","","","","","","","","","","","","","","","","","","1702","",""
"html-keyboard-response","39","70082","0.0-17.0-0.0","","758.3000000119209","<div style=""display: flex; flex-direction: column; align-items: center; margin-top: -40px;""><img src=""images/demo_images/pattern_1.png"" style=""width: 234px; height: 230px; margin-top: -50px;""><div style=""display: flex; justify-content: space-between; margin-top: 33px;""><img src=""images/demo_images/choice_trial_1.png"" style=""width: 408px; height: 417px; margin-right: 200px;""><img src=""images/demo_images/choice_trial_2.png"" style=""width: 408px; height: 417px;""></div></div>","f","delaylearn","learning","trial","657867e466a237b839df006a","92VU1tf4VmV6HvyXxX5YDNojz5D3","3","images/demo_images/choice_trial_1.png","images/demo_images/choice_trial_2.png","images/demo_images/pattern_1.png","f","f","3000","1","2","20","0","8","1","1","1","60","","","","",""
"html-keyboard-response","40","71098","0.0-17.0-1.0","","null","<div style=""display: flex; flex-direction: column; align-items: center; margin-top: -40px;""><img src=""images/demo_images/pattern_1.png"" style=""width: 234px; height: 230px; margin-top: -50px;""><div style=""display: flex; justify-content: space-between; margin-top: 33px;""><img src=""images/demo_images/choice_trial_1.png"" style=""width: 408px; height: 417px; margin-right: 608px;""></div></div>","null","delaylearn","learning","display_response","657867e466a237b839df006a","92VU1tf4VmV6HvyXxX5YDNojz5D3","","","","","","","","","","","","","","","","","chosen stimuli: images/demo_images/choice_trial_1.png","","","",""
"html-keyboard-response","41","74112","0.0-17.0-2.0","","null","","null","delaylearn","learning","feedback_duration_window","657867e466a237b839df006a","92VU1tf4VmV6HvyXxX5YDNojz5D3","","","","","","","","","","","","","","","","","","3000","","",""
"html-keyboard-response","42","75615","0.0-17.0-3.0","","null","<div style='margin:auto;width: auto; font-size: 150%'><span style='font-weight: bold; font-size: 100px; color: green;'>+10 points!</span><br><br></div>","null","delaylearn","learning","feedback_image_window","657867e466a237b839df006a","92VU1tf4VmV6HvyXxX5YDNojz5D3","","","","","","","","","","","","","","","","","","","","",""
"html-button-response","43","81202","0.0-18.0","","5585.900000035763","
  <div style=""display: flex; align-items: center; justify-content: center; height: 80vh;"">
  <div>
          <img src=""images/inst_demo_finish.png"" style=""width: 80vw; height:auto;"">
          <br><br>
      </div>
      <br><br>
  </div>","0","","","","","","","","","","","","","","","","","","","","","","","","","",""
"html-keyboard-response","44","89723","0.0-19.0","","8519.699999988079","
  <div style=""display: flex; align-items: center; justify-content: center; height: 80vh;"">
  <div>
          <img src=""images/inst_6.png"" style=""width: 80vw; height:auto;"">
          <br><br>
      </div>
      <br><br>
  </div>","f","","","","","","","","","","","","","","","","","","","","","","","","","",""
"html-keyboard-response","45","92739","0.0-20.0","","null","<div style=""font-size:100px;"">+</div>","null","delaylearn","learning","pre_fixation","657867e466a237b839df006a","","","","","","","","","","","","","","","","","","","","","",""
"html-keyboard-response","46","94488","0.0-21.0","","null","<div style=""font-size:100px;"">+</div>","null","delaylearn","learning","ITI","657867e466a237b839df006a","92VU1tf4VmV6HvyXxX5YDNojz5D3","","","","","","","","","","","","","","","","","","","1739","",""
"html-keyboard-response","47","96239","0.0-22.0-0.0","","1747.5","<div style=""display: flex; flex-direction: column; align-items: center; margin-top: -40px;""><img src=""images/pattern_3.png"" style=""width: 234px; height: 230px; margin-top: -50px;""><div style=""display: flex; justify-content: space-between; margin-top: 33px;""><img src=""images/choice_trial_13.png"" style=""width: 408px; height: 417px; margin-right: 200px;""><img src=""images/choice_trial_10.png"" style=""width: 408px; height: 417px;""></div></div>","f","delaylearn","learning","trial","657867e466a237b839df006a","92VU1tf4VmV6HvyXxX5YDNojz5D3","3","images/choice_trial_13.png","images/choice_trial_10.png","images/pattern_3.png","f","f","7000","13","10","2","0","9","1","1","13","70","","","","",""
"html-keyboard-response","48","97245","0.0-22.0-1.0","","null","<div style=""display: flex; flex-direction: column; align-items: center; margin-top: -40px;""><img src=""images/pattern_3.png"" style=""width: 234px; height: 230px; margin-top: -50px;""><div style=""display: flex; justify-content: space-between; margin-top: 33px;""><img src=""images/choice_trial_13.png"" style=""width: 408px; height: 417px; margin-right: 608px;""></div></div>","null","delaylearn","learning","display_response","657867e466a237b839df006a","92VU1tf4VmV6HvyXxX5YDNojz5D3","","","","","","","","","","","","","","","","","chosen stimuli: images/choice_trial_13.png","","","",""
"html-keyboard-response","49","104258","0.0-22.0-2.0","","null","","null","delaylearn","learning","feedback_duration_window","657867e466a237b839df006a","92VU1tf4VmV6HvyXxX5YDNojz5D3","","","","","","","","","","","","","","","","","","7000","","",""
"html-keyboard-response","50","105768","0.0-22.0-3.0","","null","<div style='margin:auto;width: auto; font-size: 150%'><span style='font-weight: bold; font-size: 100px; color: green;'>+10 points!</span><br><br></div>","null","delaylearn","learning","feedback_image_window","657867e466a237b839df006a","92VU1tf4VmV6HvyXxX5YDNojz5D3","","","","","","","","","","","","","","","","","","","","",""
"html-keyboard-response","51","108213","0.0-23.0","","null","<div style=""font-size:100px;"">+</div>","null","delaylearn","learning","ITI","657867e466a237b839df006a","92VU1tf4VmV6HvyXxX5YDNojz5D3","","","","","","","","","","","","","","","","","","","2429","",""
"html-keyboard-response","52","109897","0.0-24.0-0.0","","1680.7000000476837","<div style=""display: flex; flex-direction: column; align-items: center; margin-top: -40px;""><img src=""images/pattern_7.png"" style=""width: 234px; height: 230px; margin-top: -50px;""><div style=""display: flex; justify-content: space-between; margin-top: 33px;""><img src=""images/choice_trial_12.png"" style=""width: 408px; height: 417px; margin-right: 200px;""><img src=""images/choice_trial_6.png"" style=""width: 408px; height: 417px;""></div></div>","j","delaylearn","learning","trial","657867e466a237b839df006a","92VU1tf4VmV6HvyXxX5YDNojz5D3","3","images/choice_trial_12.png","images/choice_trial_6.png","images/pattern_7.png","j","j","750","12","6","6","1","10","1","1","6","80","","","","",""
"html-keyboard-response","53","110914","0.0-24.0-1.0","","null","<div style=""display: flex; flex-direction: column; align-items: center; margin-top: -40px;""><img src=""images/pattern_7.png"" style=""width: 234px; height: 230px; margin-top: -50px;""><div style=""display: flex; justify-content: space-between; margin-top: 33px;""><img src=""images/choice_trial_6.png"" style=""width: 408px; height: 417px; margin-left:608px;""></div></div>","null","delaylearn","learning","display_response","657867e466a237b839df006a","92VU1tf4VmV6HvyXxX5YDNojz5D3","","","","","","","","","","","","","","","","","chosen stimuli: images/choice_trial_6.png","","","",""
"html-keyboard-response","54","111669","0.0-24.0-2.0","","null","","null","delaylearn","learning","feedback_duration_window","657867e466a237b839df006a","92VU1tf4VmV6HvyXxX5YDNojz5D3","","","","","","","","","","","","","","","","","","750","","",""
"html-keyboard-response","55","113184","0.0-24.0-3.0","","null","<div style='margin:auto;width: auto; font-size: 150%'><span style='font-weight: bold; font-size: 100px; color: green;'>+10 points!</span><br><br></div>","null","delaylearn","learning","feedback_image_window","657867e466a237b839df006a","92VU1tf4VmV6HvyXxX5YDNojz5D3","","","","","","","","","","","","","","","","","","","","",""
"html-keyboard-response","56","114991","0.0-25.0","","null","<div style=""font-size:100px;"">+</div>","null","delaylearn","learning","ITI","657867e466a237b839df006a","92VU1tf4VmV6HvyXxX5YDNojz5D3","","","","","","","","","","","","","","","","","","","1806","",""
"html-keyboard-response","57","117227","0.0-26.0-0.0","","2232.399999976158","<div style=""display: flex; flex-direction: column; align-items: center; margin-top: -40px;""><img src=""images/pattern_4.png"" style=""width: 234px; height: 230px; margin-top: -50px;""><div style=""display: flex; justify-content: space-between; margin-top: 33px;""><img src=""images/choice_trial_15.png"" style=""width: 408px; height: 417px; margin-right: 200px;""><img src=""images/choice_trial_9.png"" style=""width: 408px; height: 417px;""></div></div>","j","delaylearn","learning","trial","657867e466a237b839df006a","92VU1tf4VmV6HvyXxX5YDNojz5D3","3","images/choice_trial_15.png","images/choice_trial_9.png","images/pattern_4.png","f","f","7000","15","9","3","0","11","0","0","9","80","","","","",""
"html-keyboard-response","58","118240","0.0-26.0-1.0","","null","<div style=""display: flex; flex-direction: column; align-items: center; margin-top: -40px;""><img src=""images/pattern_4.png"" style=""width: 234px; height: 230px; margin-top: -50px;""><div style=""display: flex; justify-content: space-between; margin-top: 33px;""><img src=""images/choice_trial_9.png"" style=""width: 408px; height: 417px; margin-left:608px;""></div></div>","null","delaylearn","learning","display_response","657867e466a237b839df006a","92VU1tf4VmV6HvyXxX5YDNojz5D3","","","","","","","","","","","","","","","","","chosen stimuli: images/choice_trial_9.png","","","",""
"html-keyboard-response","59","125242","0.0-26.0-2.0","","null","","null","delaylearn","learning","feedback_duration_window","657867e466a237b839df006a","92VU1tf4VmV6HvyXxX5YDNojz5D3","","","","","","","","","","","","","","","","","","7000","","",""
"html-keyboard-response","60","126759","0.0-26.0-3.0","","null","<div style='margin:auto;width: auto; font-size: 150%'><span style='font-weight: bold; font-size: 100px; color: red;'>0 points!</span><br><br></div>","null","delaylearn","learning","feedback_image_window","657867e466a237b839df006a","92VU1tf4VmV6HvyXxX5YDNojz5D3","","","","","","","","","","","","","","","","","","","","",""
"html-keyboard-response","61","128522","0.0-27.0","","null","<div style=""font-size:100px;"">+</div>","null","delaylearn","learning","ITI","657867e466a237b839df006a","92VU1tf4VmV6HvyXxX5YDNojz5D3","","","","","","","","","","","","","","","","","","","1755","",""
"html-keyboard-response","62","129949","0.0-28.0-0.0","","1423.699999988079","<div style=""display: flex; flex-direction: column; align-items: center; margin-top: -40px;""><img src=""images/pattern_5.png"" style=""width: 234px; height: 230px; margin-top: -50px;""><div style=""display: flex; justify-content: space-between; margin-top: 33px;""><img src=""images/choice_trial_2.png"" style=""width: 408px; height: 417px; margin-right: 200px;""><img src=""images/choice_trial_11.png"" style=""width: 408px; height: 417px;""></div></div>","f","delaylearn","learning","trial","657867e466a237b839df006a","92VU1tf4VmV6HvyXxX5YDNojz5D3","3","images/choice_trial_2.png","images/choice_trial_11.png","images/pattern_5.png","j","j","750","2","11","4","1","12","0","0","2","80","","","","",""
"html-keyboard-response","63","130968","0.0-28.0-1.0","","null","<div style=""display: flex; flex-direction: column; align-items: center; margin-top: -40px;""><img src=""images/pattern_5.png"" style=""width: 234px; height: 230px; margin-top: -50px;""><div style=""display: flex; justify-content: space-between; margin-top: 33px;""><img src=""images/choice_trial_2.png"" style=""width: 408px; height: 417px; margin-right: 608px;""></div></div>","null","delaylearn","learning","display_response","657867e466a237b839df006a","92VU1tf4VmV6HvyXxX5YDNojz5D3","","","","","","","","","","","","","","","","","chosen stimuli: images/choice_trial_2.png","","","",""
"html-keyboard-response","64","131725","0.0-28.0-2.0","","null","","null","delaylearn","learning","feedback_duration_window","657867e466a237b839df006a","92VU1tf4VmV6HvyXxX5YDNojz5D3","","","","","","","","","","","","","","","","","","750","","",""
"html-keyboard-response","65","133229","0.0-28.0-3.0","","null","<div style='margin:auto;width: auto; font-size: 150%'><span style='font-weight: bold; font-size: 100px; color: red;'>0 points!</span><br><br></div>","null","delaylearn","learning","feedback_image_window","657867e466a237b839df006a","92VU1tf4VmV6HvyXxX5YDNojz5D3","","","","","","","","","","","","","","","","","","","","",""
"html-keyboard-response","66","135572","0.0-29.0","","null","<div style=""font-size:100px;"">+</div>","null","delaylearn","learning","ITI","657867e466a237b839df006a","92VU1tf4VmV6HvyXxX5YDNojz5D3","","","","","","","","","","","","","","","","","","","2329","",""
"html-keyboard-response","67","137423","0.0-30.0-0.0","","1847.4000000357628","<div style=""display: flex; flex-direction: column; align-items: center; margin-top: -40px;""><img src=""images/pattern_6.png"" style=""width: 234px; height: 230px; margin-top: -50px;""><div style=""display: flex; justify-content: space-between; margin-top: 33px;""><img src=""images/choice_trial_16.png"" style=""width: 408px; height: 417px; margin-right: 200px;""><img src=""images/choice_trial_3.png"" style=""width: 408px; height: 417px;""></div></div>","j","delaylearn","learning","trial","657867e466a237b839df006a","92VU1tf4VmV6HvyXxX5YDNojz5D3","3","images/choice_trial_16.png","images/choice_trial_3.png","images/pattern_6.png","j","f","750","16","3","5","0","13","0","1","3","90","","","","",""
"html-keyboard-response","68","138434","0.0-30.0-1.0","","null","<div style=""display: flex; flex-direction: column; align-items: center; margin-top: -40px;""><img src=""images/pattern_6.png"" style=""width: 234px; height: 230px; margin-top: -50px;""><div style=""display: flex; justify-content: space-between; margin-top: 33px;""><img src=""images/choice_trial_3.png"" style=""width: 408px; height: 417px; margin-left:608px;""></div></div>","null","delaylearn","learning","display_response","657867e466a237b839df006a","92VU1tf4VmV6HvyXxX5YDNojz5D3","","","","","","","","","","","","","","","","","chosen stimuli: images/choice_trial_3.png","","","",""
"html-keyboard-response","69","139193","0.0-30.0-2.0","","null","","null","delaylearn","learning","feedback_duration_window","657867e466a237b839df006a","92VU1tf4VmV6HvyXxX5YDNojz5D3","","","","","","","","","","","","","","","","","","750","","",""
"html-keyboard-response","70","140696","0.0-30.0-3.0","","null","<div style='margin:auto;width: auto; font-size: 150%'><span style='font-weight: bold; font-size: 100px; color: green;'>+10 points!</span><br><br></div>","null","delaylearn","learning","feedback_image_window","657867e466a237b839df006a","92VU1tf4VmV6HvyXxX5YDNojz5D3","","","","","","","","","","","","","","","","","","","","",""
"html-keyboard-response","71","141205","0.0-31.0-0.0","","null","","null","","","mood_trial_fixation","","","","","","","","","","","","","","","","","","","","","","",""
"lmdlab-html-vas-response","72","147407","0.0-31.0-1.0","","5194","How happy are you right now?","0.7235427757620969","delaylearn","learning","mood_trial","657867e466a237b839df006a","92VU1tf4VmV6HvyXxX5YDNojz5D3","","","","","","","","","","","","","","","","","","","","[""Very unhappy"",""Very happy""]",""
"html-keyboard-response","73","149906","0.0-32.0","","null","<div style=""font-size:100px;"">+</div>","null","delaylearn","learning","ITI","657867e466a237b839df006a","92VU1tf4VmV6HvyXxX5YDNojz5D3","","","","","","","","","","","","","","","","","","","2493","",""
"html-keyboard-response","74","151296","0.0-33.0-0.0","","1385.5","<div style=""display: flex; flex-direction: column; align-items: center; margin-top: -40px;""><img src=""images/pattern_1.png"" style=""width: 234px; height: 230px; margin-top: -50px;""><div style=""display: flex; justify-content: space-between; margin-top: 33px;""><img src=""images/choice_trial_8.png"" style=""width: 408px; height: 417px; margin-right: 200px;""><img src=""images/choice_trial_14.png"" style=""width: 408px; height: 417px;""></div></div>","j","delaylearn","learning","trial","657867e466a237b839df006a","92VU1tf4VmV6HvyXxX5YDNojz5D3","3","images/choice_trial_8.png","images/choice_trial_14.png","images/pattern_1.png","j","j","7000","8","14","1","1","14","1","1","14","100","","","","",""
"html-keyboard-response","75","152309","0.0-33.0-1.0","","null","<div style=""display: flex; flex-direction: column; align-items: center; margin-top: -40px;""><img src=""images/pattern_1.png"" style=""width: 234px; height: 230px; margin-top: -50px;""><div style=""display: flex; justify-content: space-between; margin-top: 33px;""><img src=""images/choice_trial_14.png"" style=""width: 408px; height: 417px; margin-left:608px;""></div></div>","null","delaylearn","learning","display_response","657867e466a237b839df006a","92VU1tf4VmV6HvyXxX5YDNojz5D3","","","","","","","","","","","","","","","","","chosen stimuli: images/choice_trial_14.png","","","",""
"html-keyboard-response","76","159321","0.0-33.0-2.0","","null","","null","delaylearn","learning","feedback_duration_window","657867e466a237b839df006a","92VU1tf4VmV6HvyXxX5YDNojz5D3","","","","","","","","","","","","","","","","","","7000","","",""
"html-keyboard-response","77","160835","0.0-33.0-3.0","","null","<div style='margin:auto;width: auto; font-size: 150%'><span style='font-weight: bold; font-size: 100px; color: green;'>+10 points!</span><br><br></div>","null","delaylearn","learning","feedback_image_window","657867e466a237b839df006a","92VU1tf4VmV6HvyXxX5YDNojz5D3","","","","","","","","","","","","","","","","","","","","",""
"html-keyboard-response","78","163340","0.0-34.0","","null","<div style=""font-size:100px;"">+</div>","null","delaylearn","learning","ITI","657867e466a237b839df006a","92VU1tf4VmV6HvyXxX5YDNojz5D3","","","","","","","","","","","","","","","","","","","2499","",""
"html-keyboard-response","79","164592","0.0-35.0-0.0","","1248.3999999761581","<div style=""display: flex; flex-direction: column; align-items: center; margin-top: -40px;""><img src=""images/pattern_3.png"" style=""width: 234px; height: 230px; margin-top: -50px;""><div style=""display: flex; justify-content: space-between; margin-top: 33px;""><img src=""images/choice_trial_10.png"" style=""width: 408px; height: 417px; margin-right: 200px;""><img src=""images/choice_trial_13.png"" style=""width: 408px; height: 417px;""></div></div>","j","delaylearn","learning","trial","657867e466a237b839df006a","92VU1tf4VmV6HvyXxX5YDNojz5D3","3","images/choice_trial_10.png","images/choice_trial_13.png","images/pattern_3.png","f","j","7000","10","13","2","1","15","1","0","13","100","","","","",""
"html-keyboard-response","80","165596","0.0-35.0-1.0","","null","<div style=""display: flex; flex-direction: column; align-items: center; margin-top: -40px;""><img src=""images/pattern_3.png"" style=""width: 234px; height: 230px; margin-top: -50px;""><div style=""display: flex; justify-content: space-between; margin-top: 33px;""><img src=""images/choice_trial_13.png"" style=""width: 408px; height: 417px; margin-left:608px;""></div></div>","null","delaylearn","learning","display_response","657867e466a237b839df006a","92VU1tf4VmV6HvyXxX5YDNojz5D3","","","","","","","","","","","","","","","","","chosen stimuli: images/choice_trial_13.png","","","",""
"html-keyboard-response","81","172603","0.0-35.0-2.0","","null","","null","delaylearn","learning","feedback_duration_window","657867e466a237b839df006a","92VU1tf4VmV6HvyXxX5YDNojz5D3","","","","","","","","","","","","","","","","","","7000","","",""
"html-keyboard-response","82","174119","0.0-35.0-3.0","","null","<div style='margin:auto;width: auto; font-size: 150%'><span style='font-weight: bold; font-size: 100px; color: red;'>0 points!</span><br><br></div>","null","delaylearn","learning","feedback_image_window","657867e466a237b839df006a","92VU1tf4VmV6HvyXxX5YDNojz5D3","","","","","","","","","","","","","","","","","","","","",""
"html-keyboard-response","83","176254","0.0-36.0","","null","<div style=""font-size:100px;"">+</div>","null","delaylearn","learning","ITI","657867e466a237b839df006a","92VU1tf4VmV6HvyXxX5YDNojz5D3","","","","","","","","","","","","","","","","","","","2129","",""
"html-keyboard-response","84","178551","0.0-37.0-0.0","","2293.400000035763","<div style=""display: flex; flex-direction: column; align-items: center; margin-top: -40px;""><img src=""images/pattern_5.png"" style=""width: 234px; height: 230px; margin-top: -50px;""><div style=""display: flex; justify-content: space-between; margin-top: 33px;""><img src=""images/choice_trial_11.png"" style=""width: 408px; height: 417px; margin-right: 200px;""><img src=""images/choice_trial_2.png"" style=""width: 408px; height: 417px;""></div></div>","j","delaylearn","learning","trial","657867e466a237b839df006a","92VU1tf4VmV6HvyXxX5YDNojz5D3","3","images/choice_trial_11.png","images/choice_trial_2.png","images/pattern_5.png","f","f","750","11","2","4","0","16","0","0","2","100","","","","",""
"html-keyboard-response","85","179568","0.0-37.0-1.0","","null","<div style=""display: flex; flex-direction: column; align-items: center; margin-top: -40px;""><img src=""images/pattern_5.png"" style=""width: 234px; height: 230px; margin-top: -50px;""><div style=""display: flex; justify-content: space-between; margin-top: 33px;""><img src=""images/choice_trial_2.png"" style=""width: 408px; height: 417px; margin-left:608px;""></div></div>","null","delaylearn","learning","display_response","657867e466a237b839df006a","92VU1tf4VmV6HvyXxX5YDNojz5D3","","","","","","","","","","","","","","","","","chosen stimuli: images/choice_trial_2.png","","","",""
"html-keyboard-response","86","180323","0.0-37.0-2.0","","null","","null","delaylearn","learning","feedback_duration_window","657867e466a237b839df006a","92VU1tf4VmV6HvyXxX5YDNojz5D3","","","","","","","","","","","","","","","","","","750","","",""
"html-keyboard-response","87","181838","0.0-37.0-3.0","","null","<div style='margin:auto;width: auto; font-size: 150%'><span style='font-weight: bold; font-size: 100px; color: red;'>0 points!</span><br><br></div>","null","delaylearn","learning","feedback_image_window","657867e466a237b839df006a","92VU1tf4VmV6HvyXxX5YDNojz5D3","","","","","","","","","","","","","","","","","","","","",""
"html-keyboard-response","88","182350","0.0-38.0-0.0","","null","","null","","","mood_trial_fixation","","","","","","","","","","","","","","","","","","","","","","",""
"lmdlab-html-vas-response","89","187785","0.0-38.0-1.0","","4425","How happy are you right now?","0.2743209792818148","delaylearn","learning","mood_trial","657867e466a237b839df006a","92VU1tf4VmV6HvyXxX5YDNojz5D3","","","","","","","","","","","","","","","","","","","","[""Very unhappy"",""Very happy""]",""
"html-keyboard-response","90","190183","0.0-39.0","","null","<div style=""font-size:100px;"">+</div>","null","delaylearn","learning","ITI","657867e466a237b839df006a","92VU1tf4VmV6HvyXxX5YDNojz5D3","","","","","","","","","","","","","","","","","","","2381","",""
"html-keyboard-response","91","191991","0.0-40.0-0.0","","1804.199999988079","<div style=""display: flex; flex-direction: column; align-items: center; margin-top: -40px;""><img src=""images/pattern_6.png"" style=""width: 234px; height: 230px; margin-top: -50px;""><div style=""display: flex; justify-content: space-between; margin-top: 33px;""><img src=""images/choice_trial_16.png"" style=""width: 408px; height: 417px; margin-right: 200px;""><img src=""images/choice_trial_3.png"" style=""width: 408px; height: 417px;""></div></div>","f","delaylearn","learning","trial","657867e466a237b839df006a","92VU1tf4VmV6HvyXxX5YDNojz5D3","3","images/choice_trial_16.png","images/choice_trial_3.png","images/pattern_6.png","f","f","750","16","3","5","0","17","1","1","16","110","","","","",""
"html-keyboard-response","92","192999","0.0-40.0-1.0","","null","<div style=""display: flex; flex-direction: column; align-items: center; margin-top: -40px;""><img src=""images/pattern_6.png"" style=""width: 234px; height: 230px; margin-top: -50px;""><div style=""display: flex; justify-content: space-between; margin-top: 33px;""><img src=""images/choice_trial_16.png"" style=""width: 408px; height: 417px; margin-right: 608px;""></div></div>","null","delaylearn","learning","display_response","657867e466a237b839df006a","92VU1tf4VmV6HvyXxX5YDNojz5D3","","","","","","","","","","","","","","","","","chosen stimuli: images/choice_trial_16.png","","","",""
"html-keyboard-response","93","193759","0.0-40.0-2.0","","null","","null","delaylearn","learning","feedback_duration_window","657867e466a237b839df006a","92VU1tf4VmV6HvyXxX5YDNojz5D3","","","","","","","","","","","","","","","","","","750","","",""
"html-keyboard-response","94","195263","0.0-40.0-3.0","","null","<div style='margin:auto;width: auto; font-size: 150%'><span style='font-weight: bold; font-size: 100px; color: green;'>+10 points!</span><br><br></div>","null","delaylearn","learning","feedback_image_window","657867e466a237b839df006a","92VU1tf4VmV6HvyXxX5YDNojz5D3","","","","","","","","","","","","","","","","","","","","",""
"html-keyboard-response","95","197242","0.0-41.0","","null","<div style=""font-size:100px;"">+</div>","null","delaylearn","learning","ITI","657867e466a237b839df006a","92VU1tf4VmV6HvyXxX5YDNojz5D3","","","","","","","","","","","","","","","","","","","1969","",""
"html-keyboard-response","96","198931","0.0-42.0-0.0","","1685","<div style=""display: flex; flex-direction: column; align-items: center; margin-top: -40px;""><img src=""images/pattern_4.png"" style=""width: 234px; height: 230px; margin-top: -50px;""><div style=""display: flex; justify-content: space-between; margin-top: 33px;""><img src=""images/choice_trial_9.png"" style=""width: 408px; height: 417px; margin-right: 200px;""><img src=""images/choice_trial_15.png"" style=""width: 408px; height: 417px;""></div></div>","j","delaylearn","learning","trial","657867e466a237b839df006a","92VU1tf4VmV6HvyXxX5YDNojz5D3","3","images/choice_trial_9.png","images/choice_trial_15.png","images/pattern_4.png","j","j","7000","9","15","3","1","18","1","1","15","120","","","","",""
"html-keyboard-response","97","199949","0.0-42.0-1.0","","null","<div style=""display: flex; flex-direction: column; align-items: center; margin-top: -40px;""><img src=""images/pattern_4.png"" style=""width: 234px; height: 230px; margin-top: -50px;""><div style=""display: flex; justify-content: space-between; margin-top: 33px;""><img src=""images/choice_trial_15.png"" style=""width: 408px; height: 417px; margin-left:608px;""></div></div>","null","delaylearn","learning","display_response","657867e466a237b839df006a","92VU1tf4VmV6HvyXxX5YDNojz5D3","","","","","","","","","","","","","","","","","chosen stimuli: images/choice_trial_15.png","","","",""
"html-keyboard-response","98","206957","0.0-42.0-2.0","","null","","null","delaylearn","learning","feedback_duration_window","657867e466a237b839df006a","92VU1tf4VmV6HvyXxX5YDNojz5D3","","","","","","","","","","","","","","","","","","7000","","",""
"html-keyboard-response","99","208474","0.0-42.0-3.0","","null","<div style='margin:auto;width: auto; font-size: 150%'><span style='font-weight: bold; font-size: 100px; color: green;'>+10 points!</span><br><br></div>","null","delaylearn","learning","feedback_image_window","657867e466a237b839df006a","92VU1tf4VmV6HvyXxX5YDNojz5D3","","","","","","","","","","","","","","","","","","","","",""
"html-keyboard-response","100","210399","0.0-43.0","","null","<div style=""font-size:100px;"">+</div>","null","delaylearn","learning","ITI","657867e466a237b839df006a","92VU1tf4VmV6HvyXxX5YDNojz5D3","","","","","","","","","","","","","","","","","","","1920","",""
"html-keyboard-response","101","211768","0.0-44.0-0.0","","1366","<div style=""display: flex; flex-direction: column; align-items: center; margin-top: -40px;""><img src=""images/pattern_7.png"" style=""width: 234px; height: 230px; margin-top: -50px;""><div style=""display: flex; justify-content: space-between; margin-top: 33px;""><img src=""images/choice_trial_6.png"" style=""width: 408px; height: 417px; margin-right: 200px;""><img src=""images/choice_trial_12.png"" style=""width: 408px; height: 417px;""></div></div>","f","delaylearn","learning","trial","657867e466a237b839df006a","92VU1tf4VmV6HvyXxX5YDNojz5D3","3","images/choice_trial_6.png","images/choice_trial_12.png","images/pattern_7.png","j","f","750","6","12","6","0","19","1","0","6","120","","","","",""
"html-keyboard-response","102","212783","0.0-44.0-1.0","","null","<div style=""display: flex; flex-direction: column; align-items: center; margin-top: -40px;""><img src=""images/pattern_7.png"" style=""width: 234px; height: 230px; margin-top: -50px;""><div style=""display: flex; justify-content: space-between; margin-top: 33px;""><img src=""images/choice_trial_6.png"" style=""width: 408px; height: 417px; margin-right: 608px;""></div></div>","null","delaylearn","learning","display_response","657867e466a237b839df006a","92VU1tf4VmV6HvyXxX5YDNojz5D3","","","","","","","","","","","","","","","","","chosen stimuli: images/choice_trial_6.png","","","",""
"html-keyboard-response","103","213542","0.0-44.0-2.0","","null","","null","delaylearn","learning","feedback_duration_window","657867e466a237b839df006a","92VU1tf4VmV6HvyXxX5YDNojz5D3","","","","","","","","","","","","","","","","","","750","","",""
"html-keyboard-response","104","215046","0.0-44.0-3.0","","null","<div style='margin:auto;width: auto; font-size: 150%'><span style='font-weight: bold; font-size: 100px; color: red;'>0 points!</span><br><br></div>","null","delaylearn","learning","feedback_image_window","657867e466a237b839df006a","92VU1tf4VmV6HvyXxX5YDNojz5D3","","","","","","","","","","","","","","","","","","","","",""
"html-keyboard-response","105","217350","0.0-45.0","","null","<div style=""font-size:100px;"">+</div>","null","delaylearn","learning","ITI","657867e466a237b839df006a","92VU1tf4VmV6HvyXxX5YDNojz5D3","","","","","","","","","","","","","","","","","","","2294","",""
"html-keyboard-response","106","218923","0.0-46.0-0.0","","1567.8999999761581","<div style=""display: flex; flex-direction: column; align-items: center; margin-top: -40px;""><img src=""images/pattern_1.png"" style=""width: 234px; height: 230px; margin-top: -50px;""><div style=""display: flex; justify-content: space-between; margin-top: 33px;""><img src=""images/choice_trial_14.png"" style=""width: 408px; height: 417px; margin-right: 200px;""><img src=""images/choice_trial_8.png"" style=""width: 408px; height: 417px;""></div></div>","f","delaylearn","learning","trial","657867e466a237b839df006a","92VU1tf4VmV6HvyXxX5YDNojz5D3","3","images/choice_trial_14.png","images/choice_trial_8.png","images/pattern_1.png","f","f","7000","14","8","1","0","20","1","1","14","130","","","","",""
"html-keyboard-response","107","219931","0.0-46.0-1.0","","null","<div style=""display: flex; flex-direction: column; align-items: center; margin-top: -40px;""><img src=""images/pattern_1.png"" style=""width: 234px; height: 230px; margin-top: -50px;""><div style=""display: flex; justify-content: space-between; margin-top: 33px;""><img src=""images/choice_trial_14.png"" style=""width: 408px; height: 417px; margin-right: 608px;""></div></div>","null","delaylearn","learning","display_response","657867e466a237b839df006a","92VU1tf4VmV6HvyXxX5YDNojz5D3","","","","","","","","","","","","","","","","","chosen stimuli: images/choice_trial_14.png","","","",""
"html-keyboard-response","108","226938","0.0-46.0-2.0","","null","","null","delaylearn","learning","feedback_duration_window","657867e466a237b839df006a","92VU1tf4VmV6HvyXxX5YDNojz5D3","","","","","","","","","","","","","","","","","","7000","","",""
"html-keyboard-response","109","228454","0.0-46.0-3.0","","null","<div style='margin:auto;width: auto; font-size: 150%'><span style='font-weight: bold; font-size: 100px; color: green;'>+10 points!</span><br><br></div>","null","delaylearn","learning","feedback_image_window","657867e466a237b839df006a","92VU1tf4VmV6HvyXxX5YDNojz5D3","","","","","","","","","","","","","","","","","","","","",""
"html-keyboard-response","110","230892","0.0-47.0","","null","<div style=""font-size:100px;"">+</div>","null","delaylearn","learning","ITI","657867e466a237b839df006a","92VU1tf4VmV6HvyXxX5YDNojz5D3","","","","","","","","","","","","","","","","","","","2424","",""
"html-keyboard-response","111","233191","0.0-48.0-0.0","","2295.399999976158","<div style=""display: flex; flex-direction: column; align-items: center; margin-top: -40px;""><img src=""images/pattern_6.png"" style=""width: 234px; height: 230px; margin-top: -50px;""><div style=""display: flex; justify-content: space-between; margin-top: 33px;""><img src=""images/choice_trial_3.png"" style=""width: 408px; height: 417px; margin-right: 200px;""><img src=""images/choice_trial_16.png"" style=""width: 408px; height: 417px;""></div></div>","f","delaylearn","learning","trial","657867e466a237b839df006a","92VU1tf4VmV6HvyXxX5YDNojz5D3","3","images/choice_trial_3.png","images/choice_trial_16.png","images/pattern_6.png","j","j","750","3","16","5","1","21","0","0","3","130","","","","",""
"html-keyboard-response","112","234200","0.0-48.0-1.0","","null","<div style=""display: flex; flex-direction: column; align-items: center; margin-top: -40px;""><img src=""images/pattern_6.png"" style=""width: 234px; height: 230px; margin-top: -50px;""><div style=""display: flex; justify-content: space-between; margin-top: 33px;""><img src=""images/choice_trial_3.png"" style=""width: 408px; height: 417px; margin-right: 608px;""></div></div>","null","delaylearn","learning","display_response","657867e466a237b839df006a","92VU1tf4VmV6HvyXxX5YDNojz5D3","","","","","","","","","","","","","","","","","chosen stimuli: images/choice_trial_3.png","","","",""
"html-keyboard-response","113","234956","0.0-48.0-2.0","","null","","null","delaylearn","learning","feedback_duration_window","657867e466a237b839df006a","92VU1tf4VmV6HvyXxX5YDNojz5D3","","","","","","","","","","","","","","","","","","750","","",""
"html-keyboard-response","114","236472","0.0-48.0-3.0","","null","<div style='margin:auto;width: auto; font-size: 150%'><span style='font-weight: bold; font-size: 100px; color: red;'>0 points!</span><br><br></div>","null","delaylearn","learning","feedback_image_window","657867e466a237b839df006a","92VU1tf4VmV6HvyXxX5YDNojz5D3","","","","","","","","","","","","","","","","","","","","",""
"html-keyboard-response","115","238100","0.0-49.0","","null","<div style=""font-size:100px;"">+</div>","null","delaylearn","learning","ITI","657867e466a237b839df006a","92VU1tf4VmV6HvyXxX5YDNojz5D3","","","","","","","","","","","","","","","","","","","1614","",""
"html-keyboard-response","116","239852","0.0-50.0-0.0","","1747.3999999761581","<div style=""display: flex; flex-direction: column; align-items: center; margin-top: -40px;""><img src=""images/pattern_4.png"" style=""width: 234px; height: 230px; margin-top: -50px;""><div style=""display: flex; justify-content: space-between; margin-top: 33px;""><img src=""images/choice_trial_15.png"" style=""width: 408px; height: 417px; margin-right: 200px;""><img src=""images/choice_trial_9.png"" style=""width: 408px; height: 417px;""></div></div>","f","delaylearn","learning","trial","657867e466a237b839df006a","92VU1tf4VmV6HvyXxX5YDNojz5D3","3","images/choice_trial_15.png","images/choice_trial_9.png","images/pattern_4.png","f","f","7000","15","9","3","0","22","1","1","15","140","","","","",""
"html-keyboard-response","117","240870","0.0-50.0-1.0","","null","<div style=""display: flex; flex-direction: column; align-items: center; margin-top: -40px;""><img src=""images/pattern_4.png"" style=""width: 234px; height: 230px; margin-top: -50px;""><div style=""display: flex; justify-content: space-between; margin-top: 33px;""><img src=""images/choice_trial_15.png"" style=""width: 408px; height: 417px; margin-right: 608px;""></div></div>","null","delaylearn","learning","display_response","657867e466a237b839df006a","92VU1tf4VmV6HvyXxX5YDNojz5D3","","","","","","","","","","","","","","","","","chosen stimuli: images/choice_trial_15.png","","","",""
"html-keyboard-response","118","247886","0.0-50.0-2.0","","null","","null","delaylearn","learning","feedback_duration_window","657867e466a237b839df006a","92VU1tf4VmV6HvyXxX5YDNojz5D3","","","","","","","","","","","","","","","","","","7000","","",""
"html-keyboard-response","119","249391","0.0-50.0-3.0","","null","<div style='margin:auto;width: auto; font-size: 150%'><span style='font-weight: bold; font-size: 100px; color: green;'>+10 points!</span><br><br></div>","null","delaylearn","learning","feedback_image_window","657867e466a237b839df006a","92VU1tf4VmV6HvyXxX5YDNojz5D3","","","","","","","","","","","","","","","","","","","","",""
"html-keyboard-response","120","249904","0.0-51.0-0.0","","null","","null","","","mood_trial_fixation","","","","","","","","","","","","","","","","","","","","","","",""
"lmdlab-html-vas-response","121","254555","0.0-51.0-1.0","","3640","How happy are you right now?","0.4891661862941236","delaylearn","learning","mood_trial","657867e466a237b839df006a","92VU1tf4VmV6HvyXxX5YDNojz5D3","","","","","","","","","","","","","","","","","","","","[""Very unhappy"",""Very happy""]",""
"html-keyboard-response","122","256540","0.0-52.0","","null","<div style=""font-size:100px;"">+</div>","null","delaylearn","learning","ITI","657867e466a237b839df006a","92VU1tf4VmV6HvyXxX5YDNojz5D3","","","","","","","","","","","","","","","","","","","1978","",""
"html-keyboard-response","123","257892","0.0-53.0-0.0","","1347.3999999761581","<div style=""display: flex; flex-direction: column; align-items: center; margin-top: -40px;""><img src=""images/pattern_7.png"" style=""width: 234px; height: 230px; margin-top: -50px;""><div style=""display: flex; justify-content: space-between; margin-top: 33px;""><img src=""images/choice_trial_12.png"" style=""width: 408px; height: 417px; margin-right: 200px;""><img src=""images/choice_trial_6.png"" style=""width: 408px; height: 417px;""></div></div>","j","delaylearn","learning","trial","657867e466a237b839df006a","92VU1tf4VmV6HvyXxX5YDNojz5D3","3","images/choice_trial_12.png","images/choice_trial_6.png","images/pattern_7.png","j","j","750","12","6","6","1","23","1","1","6","150","","","","",""
"html-keyboard-response","124","258897","0.0-53.0-1.0","","null","<div style=""display: flex; flex-direction: column; align-items: center; margin-top: -40px;""><img src=""images/pattern_7.png"" style=""width: 234px; height: 230px; margin-top: -50px;""><div style=""display: flex; justify-content: space-between; margin-top: 33px;""><img src=""images/choice_trial_6.png"" style=""width: 408px; height: 417px; margin-left:608px;""></div></div>","null","delaylearn","learning","display_response","657867e466a237b839df006a","92VU1tf4VmV6HvyXxX5YDNojz5D3","","","","","","","","","","","","","","","","","chosen stimuli: images/choice_trial_6.png","","","",""
"html-keyboard-response","125","259653","0.0-53.0-2.0","","null","","null","delaylearn","learning","feedback_duration_window","657867e466a237b839df006a","92VU1tf4VmV6HvyXxX5YDNojz5D3","","","","","","","","","","","","","","","","","","750","","",""
"html-keyboard-response","126","261168","0.0-53.0-3.0","","null","<div style='margin:auto;width: auto; font-size: 150%'><span style='font-weight: bold; font-size: 100px; color: green;'>+10 points!</span><br><br></div>","null","delaylearn","learning","feedback_image_window","657867e466a237b839df006a","92VU1tf4VmV6HvyXxX5YDNojz5D3","","","","","","","","","","","","","","","","","","","","",""
"html-keyboard-response","127","263319","0.0-54.0","","null","<div style=""font-size:100px;"">+</div>","null","delaylearn","learning","ITI","657867e466a237b839df006a","92VU1tf4VmV6HvyXxX5YDNojz5D3","","","","","","","","","","","","","","","","","","","2135","",""
"html-keyboard-response","128","264506","0.0-55.0-0.0","","1183.6000000238419","<div style=""display: flex; flex-direction: column; align-items: center; margin-top: -40px;""><img src=""images/pattern_1.png"" style=""width: 234px; height: 230px; margin-top: -50px;""><div style=""display: flex; justify-content: space-between; margin-top: 33px;""><img src=""images/choice_trial_8.png"" style=""width: 408px; height: 417px; margin-right: 200px;""><img src=""images/choice_trial_14.png"" style=""width: 408px; height: 417px;""></div></div>","j","delaylearn","learning","trial","657867e466a237b839df006a","92VU1tf4VmV6HvyXxX5YDNojz5D3","3","images/choice_trial_8.png","images/choice_trial_14.png","images/pattern_1.png","f","j","7000","8","14","1","1","24","1","0","14","150","","","","",""
"html-keyboard-response","129","265512","0.0-55.0-1.0","","null","<div style=""display: flex; flex-direction: column; align-items: center; margin-top: -40px;""><img src=""images/pattern_1.png"" style=""width: 234px; height: 230px; margin-top: -50px;""><div style=""display: flex; justify-content: space-between; margin-top: 33px;""><img src=""images/choice_trial_14.png"" style=""width: 408px; height: 417px; margin-left:608px;""></div></div>","null","delaylearn","learning","display_response","657867e466a237b839df006a","92VU1tf4VmV6HvyXxX5YDNojz5D3","","","","","","","","","","","","","","","","","chosen stimuli: images/choice_trial_14.png","","","",""
"html-keyboard-response","130","272518","0.0-55.0-2.0","","null","","null","delaylearn","learning","feedback_duration_window","657867e466a237b839df006a","92VU1tf4VmV6HvyXxX5YDNojz5D3","","","","","","","","","","","","","","","","","","7000","","",""
"html-keyboard-response","131","274035","0.0-55.0-3.0","","null","<div style='margin:auto;width: auto; font-size: 150%'><span style='font-weight: bold; font-size: 100px; color: red;'>0 points!</span><br><br></div>","null","delaylearn","learning","feedback_image_window","657867e466a237b839df006a","92VU1tf4VmV6HvyXxX5YDNojz5D3","","","","","","","","","","","","","","","","","","","","",""
"html-keyboard-response","132","276298","0.0-56.0","","null","<div style=""font-size:100px;"">+</div>","null","delaylearn","learning","ITI","657867e466a237b839df006a","92VU1tf4VmV6HvyXxX5YDNojz5D3","","","","","","","","","","","","","","","","","","","2261","",""
"html-keyboard-response","133","278167","0.0-57.0-0.0","","1864.5","<div style=""display: flex; flex-direction: column; align-items: center; margin-top: -40px;""><img src=""images/pattern_5.png"" style=""width: 234px; height: 230px; margin-top: -50px;""><div style=""display: flex; justify-content: space-between; margin-top: 33px;""><img src=""images/choice_trial_2.png"" style=""width: 408px; height: 417px; margin-right: 200px;""><img src=""images/choice_trial_11.png"" style=""width: 408px; height: 417px;""></div></div>","f","delaylearn","learning","trial","657867e466a237b839df006a","92VU1tf4VmV6HvyXxX5YDNojz5D3","3","images/choice_trial_2.png","images/choice_trial_11.png","images/pattern_5.png","j","j","750","2","11","4","1","25","0","0","2","150","","","","",""
"html-keyboard-response","134","279179","0.0-57.0-1.0","","null","<div style=""display: flex; flex-direction: column; align-items: center; margin-top: -40px;""><img src=""images/pattern_5.png"" style=""width: 234px; height: 230px; margin-top: -50px;""><div style=""display: flex; justify-content: space-between; margin-top: 33px;""><img src=""images/choice_trial_2.png"" style=""width: 408px; height: 417px; margin-right: 608px;""></div></div>","null","delaylearn","learning","display_response","657867e466a237b839df006a","92VU1tf4VmV6HvyXxX5YDNojz5D3","","","","","","","","","","","","","","","","","chosen stimuli: images/choice_trial_2.png","","","",""
"html-keyboard-response","135","279937","0.0-57.0-2.0","","null","","null","delaylearn","learning","feedback_duration_window","657867e466a237b839df006a","92VU1tf4VmV6HvyXxX5YDNojz5D3","","","","","","","","","","","","","","","","","","750","","",""
"html-keyboard-response","136","281439","0.0-57.0-3.0","","null","<div style='margin:auto;width: auto; font-size: 150%'><span style='font-weight: bold; font-size: 100px; color: red;'>0 points!</span><br><br></div>","null","delaylearn","learning","feedback_image_window","657867e466a237b839df006a","92VU1tf4VmV6HvyXxX5YDNojz5D3","","","","","","","","","","","","","","","","","","","","",""
"html-keyboard-response","137","283388","0.0-58.0","","null","<div style=""font-size:100px;"">+</div>","null","delaylearn","learning","ITI","657867e466a237b839df006a","92VU1tf4VmV6HvyXxX5YDNojz5D3","","","","","","","","","","","","","","","","","","","1946","",""
"html-keyboard-response","138","286407","0.0-59.0-0.0","","null","<div style=""display: flex; flex-direction: column; align-items: center; margin-top: -40px;""><img src=""images/pattern_3.png"" style=""width: 234px; height: 230px; margin-top: -50px;""><div style=""display: flex; justify-content: space-between; margin-top: 33px;""><img src=""images/choice_trial_10.png"" style=""width: 408px; height: 417px; margin-right: 200px;""><img src=""images/choice_trial_13.png"" style=""width: 408px; height: 417px;""></div></div>","null","delaylearn","learning","trial","657867e466a237b839df006a","92VU1tf4VmV6HvyXxX5YDNojz5D3","3","images/choice_trial_10.png","images/choice_trial_13.png","images/pattern_3.png","j","j","7000","10","13","2","1","26","0","0","0","150","","","","",""
"html-keyboard-response","139","287413","0.0-59.0-1.0","","null","<div style='font-weight: bold; font-size: 75px; color: red;'>Missed Trial <br><br><br><br> Please respond faster</div>","null","delaylearn","learning","display_response","657867e466a237b839df006a","92VU1tf4VmV6HvyXxX5YDNojz5D3","","","","","","","","","","","","","","","","","Missed trial","","","",""
"html-keyboard-response","140","287419","0.0-59.0-2.0","","null","","null","delaylearn","learning","feedback_duration_window","657867e466a237b839df006a","92VU1tf4VmV6HvyXxX5YDNojz5D3","","","","","","","","","","","","","","","","","","0","","",""
"html-keyboard-response","141","287425","0.0-59.0-3.0","","null","","null","delaylearn","learning","feedback_image_window","657867e466a237b839df006a","92VU1tf4VmV6HvyXxX5YDNojz5D3","","","","","","","","","","","","","","","","","","","","",""
"lmdlab-html-vas-response","142","295358","0.0-60.0-0.0","","6405","*How <b><u>confident</u></b> are you feeling about your answers at this moment?*","0.6323963243023295","rewlearn","rate_confidence","","657867e466a237b839df006a","92VU1tf4VmV6HvyXxX5YDNojz5D3","","","","","","","","","","","","","","","","","","","","[""No confidence"",""Complete confidence""]",""
"lmdlab-rest-trial-limit","143","305972","0.0-60.0-1.0","","9099.100000023842","<div style=""font-size:40px;""><b>Please take a break!</b><br><br><br><br><p>Great work: you earned 150 points.<br><br><br><p>You have completed part(s) 1 of 5.<br><br><br><br>When you are ready to continue<br><br><br>please click the button.</p><br><br>","0","delaylearn","learning","break","657867e466a237b839df006a","92VU1tf4VmV6HvyXxX5YDNojz5D3","","","","","","","","","","","","","","","","","","","","","0"
"html-keyboard-response","144","308984","0.0-60.0-2.0","","null","<div style=""font-size:100px;"">+</div>","null","delaylearn","learning","pre_fixation","657867e466a237b839df006a","","","","","","","","","","","","","","","","","","","","","",""
"lmdlab-html-vas-response","145","314870","0.0-60.0-3.0-0.0","","4877","How happy are you right now?","0.6389067851208844","delaylearn","learning","mood_baseline","657867e466a237b839df006a","92VU1tf4VmV6HvyXxX5YDNojz5D3","","","","","","","","","","","","","","","","","","","","[""Very unhappy"",""Very happy""]",""
"html-keyboard-response","146","316376","0.0-60.0-3.0-1.0","","null","","null","","","mood_baseline_fixation","","","","","","","","","","","","","","","","","","","","","","",""
"html-keyboard-response","147","318053","0.0-61.0","","null","<div style=""font-size:100px;"">+</div>","null","delaylearn","learning","ITI","657867e466a237b839df006a","92VU1tf4VmV6HvyXxX5YDNojz5D3","","","","","","","","","","","","","","","","","","","1670","",""
"html-keyboard-response","148","319292","0.0-62.0-0.0","","1233.4000000357628","<div style=""display: flex; flex-direction: column; align-items: center; margin-top: -40px;""><img src=""images/pattern_7.png"" style=""width: 234px; height: 230px; margin-top: -50px;""><div style=""display: flex; justify-content: space-between; margin-top: 33px;""><img src=""images/choice_trial_12.png"" style=""width: 408px; height: 417px; margin-right: 200px;""><img src=""images/choice_trial_6.png"" style=""width: 408px; height: 417px;""></div></div>","j","delaylearn","learning","trial","657867e466a237b839df006a","92VU1tf4VmV6HvyXxX5YDNojz5D3","3","images/choice_trial_12.png","images/choice_trial_6.png","images/pattern_7.png","j","j","750","12","6","6","1","27","1","1","6","160","","","","",""
"html-keyboard-response","149","320300","0.0-62.0-1.0","","null","<div style=""display: flex; flex-direction: column; align-items: center; margin-top: -40px;""><img src=""images/pattern_7.png"" style=""width: 234px; height: 230px; margin-top: -50px;""><div style=""display: flex; justify-content: space-between; margin-top: 33px;""><img src=""images/choice_trial_6.png"" style=""width: 408px; height: 417px; margin-left:608px;""></div></div>","null","delaylearn","learning","display_response","657867e466a237b839df006a","92VU1tf4VmV6HvyXxX5YDNojz5D3","","","","","","","","","","","","","","","","","chosen stimuli: images/choice_trial_6.png","","","",""
"html-keyboard-response","150","321058","0.0-62.0-2.0","","null","","null","delaylearn","learning","feedback_duration_window","657867e466a237b839df006a","92VU1tf4VmV6HvyXxX5YDNojz5D3","","","","","","","","","","","","","","","","","","750","","",""
"html-keyboard-response","151","322573","0.0-62.0-3.0","","null","<div style='margin:auto;width: auto; font-size: 150%'><span style='font-weight: bold; font-size: 100px; color: green;'>+10 points!</span><br><br></div>","null","delaylearn","learning","feedback_image_window","657867e466a237b839df006a","92VU1tf4VmV6HvyXxX5YDNojz5D3","","","","","","","","","","","","","","","","","","","","",""
"html-keyboard-response","152","323084","0.0-63.0-0.0","","null","","null","","","mood_trial_fixation","","","","","","","","","","","","","","","","","","","","","","",""
"lmdlab-html-vas-response","153","328555","0.0-63.0-1.0","","4458","How happy are you right now?","0.8841341426197823","delaylearn","learning","mood_trial","657867e466a237b839df006a","92VU1tf4VmV6HvyXxX5YDNojz5D3","","","","","","","","","","","","","","","","","","","","[""Very unhappy"",""Very happy""]",""
"html-keyboard-response","154","330905","0.0-64.0","","null","<div style=""font-size:100px;"">+</div>","null","delaylearn","learning","ITI","657867e466a237b839df006a","92VU1tf4VmV6HvyXxX5YDNojz5D3","","","","","","","","","","","","","","","","","","","2343","",""
"html-keyboard-response","155","331808","0.0-65.0-0.0","","898.9000000357628","<div style=""display: flex; flex-direction: column; align-items: center; margin-top: -40px;""><img src=""images/pattern_1.png"" style=""width: 234px; height: 230px; margin-top: -50px;""><div style=""display: flex; justify-content: space-between; margin-top: 33px;""><img src=""images/choice_trial_14.png"" style=""width: 408px; height: 417px; margin-right: 200px;""><img src=""images/choice_trial_8.png"" style=""width: 408px; height: 417px;""></div></div>","f","delaylearn","learning","trial","657867e466a237b839df006a","92VU1tf4VmV6HvyXxX5YDNojz5D3","3","images/choice_trial_14.png","images/choice_trial_8.png","images/pattern_1.png","f","f","7000","14","8","1","0","28","1","1","14","170","","","","",""
"html-keyboard-response","156","332821","0.0-65.0-1.0","","null","<div style=""display: flex; flex-direction: column; align-items: center; margin-top: -40px;""><img src=""images/pattern_1.png"" style=""width: 234px; height: 230px; margin-top: -50px;""><div style=""display: flex; justify-content: space-between; margin-top: 33px;""><img src=""images/choice_trial_14.png"" style=""width: 408px; height: 417px; margin-right: 608px;""></div></div>","null","delaylearn","learning","display_response","657867e466a237b839df006a","92VU1tf4VmV6HvyXxX5YDNojz5D3","","","","","","","","","","","","","","","","","chosen stimuli: images/choice_trial_14.png","","","",""
"html-keyboard-response","157","339830","0.0-65.0-2.0","","null","","null","delaylearn","learning","feedback_duration_window","657867e466a237b839df006a","92VU1tf4VmV6HvyXxX5YDNojz5D3","","","","","","","","","","","","","","","","","","7000","","",""
"html-keyboard-response","158","341345","0.0-65.0-3.0","","null","<div style='margin:auto;width: auto; font-size: 150%'><span style='font-weight: bold; font-size: 100px; color: green;'>+10 points!</span><br><br></div>","null","delaylearn","learning","feedback_image_window","657867e466a237b839df006a","92VU1tf4VmV6HvyXxX5YDNojz5D3","","","","","","","","","","","","","","","","","","","","",""
"html-keyboard-response","159","342912","0.0-66.0","","null","<div style=""font-size:100px;"">+</div>","null","delaylearn","learning","ITI","657867e466a237b839df006a","92VU1tf4VmV6HvyXxX5YDNojz5D3","","","","","","","","","","","","","","","","","","","1554","",""
"html-keyboard-response","160","344686","0.0-67.0-0.0","","1769.699999988079","<div style=""display: flex; flex-direction: column; align-items: center; margin-top: -40px;""><img src=""images/pattern_5.png"" style=""width: 234px; height: 230px; margin-top: -50px;""><div style=""display: flex; justify-content: space-between; margin-top: 33px;""><img src=""images/choice_trial_11.png"" style=""width: 408px; height: 417px; margin-right: 200px;""><img src=""images/choice_trial_2.png"" style=""width: 408px; height: 417px;""></div></div>","j","delaylearn","learning","trial","657867e466a237b839df006a","92VU1tf4VmV6HvyXxX5YDNojz5D3","3","images/choice_trial_11.png","images/choice_trial_2.png","images/pattern_5.png","f","f","750","11","2","4","0","29","0","0","2","170","","","","",""
"html-keyboard-response","161","345695","0.0-67.0-1.0","","null","<div style=""display: flex; flex-direction: column; align-items: center; margin-top: -40px;""><img src=""images/pattern_5.png"" style=""width: 234px; height: 230px; margin-top: -50px;""><div style=""display: flex; justify-content: space-between; margin-top: 33px;""><img src=""images/choice_trial_2.png"" style=""width: 408px; height: 417px; margin-left:608px;""></div></div>","null","delaylearn","learning","display_response","657867e466a237b839df006a","92VU1tf4VmV6HvyXxX5YDNojz5D3","","","","","","","","","","","","","","","","","chosen stimuli: images/choice_trial_2.png","","","",""
"html-keyboard-response","162","346453","0.0-67.0-2.0","","null","","null","delaylearn","learning","feedback_duration_window","657867e466a237b839df006a","92VU1tf4VmV6HvyXxX5YDNojz5D3","","","","","","","","","","","","","","","","","","750","","",""
"html-keyboard-response","163","347955","0.0-67.0-3.0","","null","<div style='margin:auto;width: auto; font-size: 150%'><span style='font-weight: bold; font-size: 100px; color: red;'>0 points!</span><br><br></div>","null","delaylearn","learning","feedback_image_window","657867e466a237b839df006a","92VU1tf4VmV6HvyXxX5YDNojz5D3","","","","","","","","","","","","","","","","","","","","",""
"html-keyboard-response","164","349907","0.0-68.0","","null","<div style=""font-size:100px;"">+</div>","null","delaylearn","learning","ITI","657867e466a237b839df006a","92VU1tf4VmV6HvyXxX5YDNojz5D3","","","","","","","","","","","","","","","","","","","1943","",""
"html-keyboard-response","165","352018","0.0-69.0-0.0","","2107.199999988079","<div style=""display: flex; flex-direction: column; align-items: center; margin-top: -40px;""><img src=""images/pattern_6.png"" style=""width: 234px; height: 230px; margin-top: -50px;""><div style=""display: flex; justify-content: space-between; margin-top: 33px;""><img src=""images/choice_trial_3.png"" style=""width: 408px; height: 417px; margin-right: 200px;""><img src=""images/choice_trial_16.png"" style=""width: 408px; height: 417px;""></div></div>","f","delaylearn","learning","trial","657867e466a237b839df006a","92VU1tf4VmV6HvyXxX5YDNojz5D3","3","images/choice_trial_3.png","images/choice_trial_16.png","images/pattern_6.png","j","j","750","3","16","5","1","30","0","0","3","170","","","","",""
"html-keyboard-response","166","353034","0.0-69.0-1.0","","null","<div style=""display: flex; flex-direction: column; align-items: center; margin-top: -40px;""><img src=""images/pattern_6.png"" style=""width: 234px; height: 230px; margin-top: -50px;""><div style=""display: flex; justify-content: space-between; margin-top: 33px;""><img src=""images/choice_trial_3.png"" style=""width: 408px; height: 417px; margin-right: 608px;""></div></div>","null","delaylearn","learning","display_response","657867e466a237b839df006a","92VU1tf4VmV6HvyXxX5YDNojz5D3","","","","","","","","","","","","","","","","","chosen stimuli: images/choice_trial_3.png","","","",""
"html-keyboard-response","167","353798","0.0-69.0-2.0","","null","","null","delaylearn","learning","feedback_duration_window","657867e466a237b839df006a","92VU1tf4VmV6HvyXxX5YDNojz5D3","","","","","","","","","","","","","","","","","","750","","",""
"html-keyboard-response","168","355312","0.0-69.0-3.0","","null","<div style='margin:auto;width: auto; font-size: 150%'><span style='font-weight: bold; font-size: 100px; color: red;'>0 points!</span><br><br></div>","null","delaylearn","learning","feedback_image_window","657867e466a237b839df006a","92VU1tf4VmV6HvyXxX5YDNojz5D3","","","","","","","","","","","","","","","","","","","","",""
"html-keyboard-response","169","355823","0.0-70.0-0.0","","null","","null","","","mood_trial_fixation","","","","","","","","","","","","","","","","","","","","","","",""
"lmdlab-html-vas-response","170","361366","0.0-70.0-1.0","","4533","How happy are you right now?","0.5629514089044115","delaylearn","learning","mood_trial","657867e466a237b839df006a","92VU1tf4VmV6HvyXxX5YDNojz5D3","","","","","","","","","","","","","","","","","","","","[""Very unhappy"",""Very happy""]",""
"html-keyboard-response","171","363015","0.0-71.0","","null","<div style=""font-size:100px;"">+</div>","null","delaylearn","learning","ITI","657867e466a237b839df006a","92VU1tf4VmV6HvyXxX5YDNojz5D3","","","","","","","","","","","","","","","","","","","1638","",""
"html-keyboard-response","172","365263","0.0-72.0-0.0","","2240.600000023842","<div style=""display: flex; flex-direction: column; align-items: center; margin-top: -40px;""><img src=""images/pattern_4.png"" style=""width: 234px; height: 230px; margin-top: -50px;""><div style=""display: flex; justify-content: space-between; margin-top: 33px;""><img src=""images/choice_trial_9.png"" style=""width: 408px; height: 417px; margin-right: 200px;""><img src=""images/choice_trial_15.png"" style=""width: 408px; height: 417px;""></div></div>","j","delaylearn","learning","trial","657867e466a237b839df006a","92VU1tf4VmV6HvyXxX5YDNojz5D3","3","images/choice_trial_9.png","images/choice_trial_15.png","images/pattern_4.png","j","j","7000","9","15","3","1","31","1","1","15","180","","","","",""
"html-keyboard-response","173","366268","0.0-72.0-1.0","","null","<div style=""display: flex; flex-direction: column; align-items: center; margin-top: -40px;""><img src=""images/pattern_4.png"" style=""width: 234px; height: 230px; margin-top: -50px;""><div style=""display: flex; justify-content: space-between; margin-top: 33px;""><img src=""images/choice_trial_15.png"" style=""width: 408px; height: 417px; margin-left:608px;""></div></div>","null","delaylearn","learning","display_response","657867e466a237b839df006a","92VU1tf4VmV6HvyXxX5YDNojz5D3","","","","","","","","","","","","","","","","","chosen stimuli: images/choice_trial_15.png","","","",""
"html-keyboard-response","174","373272","0.0-72.0-2.0","","null","","null","delaylearn","learning","feedback_duration_window","657867e466a237b839df006a","92VU1tf4VmV6HvyXxX5YDNojz5D3","","","","","","","","","","","","","","","","","","7000","","",""
"html-keyboard-response","175","374777","0.0-72.0-3.0","","null","<div style='margin:auto;width: auto; font-size: 150%'><span style='font-weight: bold; font-size: 100px; color: green;'>+10 points!</span><br><br></div>","null","delaylearn","learning","feedback_image_window","657867e466a237b839df006a","92VU1tf4VmV6HvyXxX5YDNojz5D3","","","","","","","","","","","","","","","","","","","","",""
"html-keyboard-response","176","377040","0.0-73.0","","null","<div style=""font-size:100px;"">+</div>","null","delaylearn","learning","ITI","657867e466a237b839df006a","92VU1tf4VmV6HvyXxX5YDNojz5D3","","","","","","","","","","","","","","","","","","","2249","",""
"html-keyboard-response","177","379266","0.0-74.0-0.0","","2220.699999988079","<div style=""display: flex; flex-direction: column; align-items: center; margin-top: -40px;""><img src=""images/pattern_3.png"" style=""width: 234px; height: 230px; margin-top: -50px;""><div style=""display: flex; justify-content: space-between; margin-top: 33px;""><img src=""images/choice_trial_10.png"" style=""width: 408px; height: 417px; margin-right: 200px;""><img src=""images/choice_trial_13.png"" style=""width: 408px; height: 417px;""></div></div>","f","delaylearn","learning","trial","657867e466a237b839df006a","92VU1tf4VmV6HvyXxX5YDNojz5D3","3","images/choice_trial_10.png","images/choice_trial_13.png","images/pattern_3.png","j","j","7000","10","13","2","1","32","0","0","10","180","","","","",""
"html-keyboard-response","178","380268","0.0-74.0-1.0","","null","<div style=""display: flex; flex-direction: column; align-items: center; margin-top: -40px;""><img src=""images/pattern_3.png"" style=""width: 234px; height: 230px; margin-top: -50px;""><div style=""display: flex; justify-content: space-between; margin-top: 33px;""><img src=""images/choice_trial_10.png"" style=""width: 408px; height: 417px; margin-right: 608px;""></div></div>","null","delaylearn","learning","display_response","657867e466a237b839df006a","92VU1tf4VmV6HvyXxX5YDNojz5D3","","","","","","","","","","","","","","","","","chosen stimuli: images/choice_trial_10.png","","","",""
"html-keyboard-response","179","387270","0.0-74.0-2.0","","null","","null","delaylearn","learning","feedback_duration_window","657867e466a237b839df006a","92VU1tf4VmV6HvyXxX5YDNojz5D3","","","","","","","","","","","","","","","","","","7000","","",""
"html-keyboard-response","180","388786","0.0-74.0-3.0","","null","<div style='margin:auto;width: auto; font-size: 150%'><span style='font-weight: bold; font-size: 100px; color: red;'>0 points!</span><br><br></div>","null","delaylearn","learning","feedback_image_window","657867e466a237b839df006a","92VU1tf4VmV6HvyXxX5YDNojz5D3","","","","","","","","","","","","","","","","","","","","",""
"html-keyboard-response","181","391238","0.0-75.0","","null","<div style=""font-size:100px;"">+</div>","null","delaylearn","learning","ITI","657867e466a237b839df006a","92VU1tf4VmV6HvyXxX5YDNojz5D3","","","","","","","","","","","","","","","","","","","2442","",""
"html-keyboard-response","182","392939","0.0-76.0-0.0","","1696.5","<div style=""display: flex; flex-direction: column; align-items: center; margin-top: -40px;""><img src=""images/pattern_5.png"" style=""width: 234px; height: 230px; margin-top: -50px;""><div style=""display: flex; justify-content: space-between; margin-top: 33px;""><img src=""images/choice_trial_11.png"" style=""width: 408px; height: 417px; margin-right: 200px;""><img src=""images/choice_trial_2.png"" style=""width: 408px; height: 417px;""></div></div>","f","delaylearn","learning","trial","657867e466a237b839df006a","92VU1tf4VmV6HvyXxX5YDNojz5D3","3","images/choice_trial_11.png","images/choice_trial_2.png","images/pattern_5.png","j","f","750","11","2","4","0","33","1","0","11","180","","","","",""
"html-keyboard-response","183","393946","0.0-76.0-1.0","","null","<div style=""display: flex; flex-direction: column; align-items: center; margin-top: -40px;""><img src=""images/pattern_5.png"" style=""width: 234px; height: 230px; margin-top: -50px;""><div style=""display: flex; justify-content: space-between; margin-top: 33px;""><img src=""images/choice_trial_11.png"" style=""width: 408px; height: 417px; margin-right: 608px;""></div></div>","null","delaylearn","learning","display_response","657867e466a237b839df006a","92VU1tf4VmV6HvyXxX5YDNojz5D3","","","","","","","","","","","","","","","","","chosen stimuli: images/choice_trial_11.png","","","",""
"html-keyboard-response","184","394702","0.0-76.0-2.0","","null","","null","delaylearn","learning","feedback_duration_window","657867e466a237b839df006a","92VU1tf4VmV6HvyXxX5YDNojz5D3","","","","","","","","","","","","","","","","","","750","","",""
"html-keyboard-response","185","396206","0.0-76.0-3.0","","null","<div style='margin:auto;width: auto; font-size: 150%'><span style='font-weight: bold; font-size: 100px; color: red;'>0 points!</span><br><br></div>","null","delaylearn","learning","feedback_image_window","657867e466a237b839df006a","92VU1tf4VmV6HvyXxX5YDNojz5D3","","","","","","","","","","","","","","","","","","","","",""
"html-keyboard-response","186","397981","0.0-77.0","","null","<div style=""font-size:100px;"">+</div>","null","delaylearn","learning","ITI","657867e466a237b839df006a","92VU1tf4VmV6HvyXxX5YDNojz5D3","","","","","","","","","","","","","","","","","","","1766","",""
"html-keyboard-response","187","399440","0.0-78.0-0.0","","1454.5","<div style=""display: flex; flex-direction: column; align-items: center; margin-top: -40px;""><img src=""images/pattern_1.png"" style=""width: 234px; height: 230px; margin-top: -50px;""><div style=""display: flex; justify-content: space-between; margin-top: 33px;""><img src=""images/choice_trial_14.png"" style=""width: 408px; height: 417px; margin-right: 200px;""><img src=""images/choice_trial_8.png"" style=""width: 408px; height: 417px;""></div></div>","f","delaylearn","learning","trial","657867e466a237b839df006a","92VU1tf4VmV6HvyXxX5YDNojz5D3","3","images/choice_trial_14.png","images/choice_trial_8.png","images/pattern_1.png","f","f","7000","14","8","1","0","34","1","1","14","190","","","","",""
"html-keyboard-response","188","400457","0.0-78.0-1.0","","null","<div style=""display: flex; flex-direction: column; align-items: center; margin-top: -40px;""><img src=""images/pattern_1.png"" style=""width: 234px; height: 230px; margin-top: -50px;""><div style=""display: flex; justify-content: space-between; margin-top: 33px;""><img src=""images/choice_trial_14.png"" style=""width: 408px; height: 417px; margin-right: 608px;""></div></div>","null","delaylearn","learning","display_response","657867e466a237b839df006a","92VU1tf4VmV6HvyXxX5YDNojz5D3","","","","","","","","","","","","","","","","","chosen stimuli: images/choice_trial_14.png","","","",""
"html-keyboard-response","189","407468","0.0-78.0-2.0","","null","","null","delaylearn","learning","feedback_duration_window","657867e466a237b839df006a","92VU1tf4VmV6HvyXxX5YDNojz5D3","","","","","","","","","","","","","","","","","","7000","","",""
"html-keyboard-response","190","408983","0.0-78.0-3.0","","null","<div style='margin:auto;width: auto; font-size: 150%'><span style='font-weight: bold; font-size: 100px; color: green;'>+10 points!</span><br><br></div>","null","delaylearn","learning","feedback_image_window","657867e466a237b839df006a","92VU1tf4VmV6HvyXxX5YDNojz5D3","","","","","","","","","","","","","","","","","","","","",""
"html-keyboard-response","191","409491","0.0-79.0-0.0","","null","","null","","","mood_trial_fixation","","","","","","","","","","","","","","","","","","","","","","",""
"lmdlab-html-vas-response","192","414899","0.0-79.0-1.0","","4399","How happy are you right now?","0.34159574107354784","delaylearn","learning","mood_trial","657867e466a237b839df006a","92VU1tf4VmV6HvyXxX5YDNojz5D3","","","","","","","","","","","","","","","","","","","","[""Very unhappy"",""Very happy""]",""
"html-keyboard-response","193","416553","0.0-80.0","","null","<div style=""font-size:100px;"">+</div>","null","delaylearn","learning","ITI","657867e466a237b839df006a","92VU1tf4VmV6HvyXxX5YDNojz5D3","","","","","","","","","","","","","","","","","","","1649","",""
"html-keyboard-response","194","419018","0.0-81.0-0.0","","2462.800000011921","<div style=""display: flex; flex-direction: column; align-items: center; margin-top: -40px;""><img src=""images/pattern_6.png"" style=""width: 234px; height: 230px; margin-top: -50px;""><div style=""display: flex; justify-content: space-between; margin-top: 33px;""><img src=""images/choice_trial_16.png"" style=""width: 408px; height: 417px; margin-right: 200px;""><img src=""images/choice_trial_3.png"" style=""width: 408px; height: 417px;""></div></div>","j","delaylearn","learning","trial","657867e466a237b839df006a","92VU1tf4VmV6HvyXxX5YDNojz5D3","3","images/choice_trial_16.png","images/choice_trial_3.png","images/pattern_6.png","j","f","750","16","3","5","0","35","0","1","3","200","","","","",""
"html-keyboard-response","195","420022","0.0-81.0-1.0","","null","<div style=""display: flex; flex-direction: column; align-items: center; margin-top: -40px;""><img src=""images/pattern_6.png"" style=""width: 234px; height: 230px; margin-top: -50px;""><div style=""display: flex; justify-content: space-between; margin-top: 33px;""><img src=""images/choice_trial_3.png"" style=""width: 408px; height: 417px; margin-left:608px;""></div></div>","null","delaylearn","learning","display_response","657867e466a237b839df006a","92VU1tf4VmV6HvyXxX5YDNojz5D3","","","","","","","","","","","","","","","","","chosen stimuli: images/choice_trial_3.png","","","",""
"html-keyboard-response","196","420783","0.0-81.0-2.0","","null","","null","delaylearn","learning","feedback_duration_window","657867e466a237b839df006a","92VU1tf4VmV6HvyXxX5YDNojz5D3","","","","","","","","","","","","","","","","","","750","","",""
"html-keyboard-response","197","422300","0.0-81.0-3.0","","null","<div style='margin:auto;width: auto; font-size: 150%'><span style='font-weight: bold; font-size: 100px; color: green;'>+10 points!</span><br><br></div>","null","delaylearn","learning","feedback_image_window","657867e466a237b839df006a","92VU1tf4VmV6HvyXxX5YDNojz5D3","","","","","","","","","","","","","","","","","","","","",""
"html-keyboard-response","198","424192","0.0-82.0","","null","<div style=""font-size:100px;"">+</div>","null","delaylearn","learning","ITI","657867e466a237b839df006a","92VU1tf4VmV6HvyXxX5YDNojz5D3","","","","","","","","","","","","","","","","","","","1886","",""
"html-keyboard-response","199","426736","0.0-83.0-0.0","","2539.399999976158","<div style=""display: flex; flex-direction: column; align-items: center; margin-top: -40px;""><img src=""images/pattern_3.png"" style=""width: 234px; height: 230px; margin-top: -50px;""><div style=""display: flex; justify-content: space-between; margin-top: 33px;""><img src=""images/choice_trial_10.png"" style=""width: 408px; height: 417px; margin-right: 200px;""><img src=""images/choice_trial_13.png"" style=""width: 408px; height: 417px;""></div></div>","j","delaylearn","learning","trial","657867e466a237b839df006a","92VU1tf4VmV6HvyXxX5YDNojz5D3","3","images/choice_trial_10.png","images/choice_trial_13.png","images/pattern_3.png","j","j","7000","10","13","2","1","36","1","1","13","210","","","","",""
"html-keyboard-response","200","427747","0.0-83.0-1.0","","null","<div style=""display: flex; flex-direction: column; align-items: center; margin-top: -40px;""><img src=""images/pattern_3.png"" style=""width: 234px; height: 230px; margin-top: -50px;""><div style=""display: flex; justify-content: space-between; margin-top: 33px;""><img src=""images/choice_trial_13.png"" style=""width: 408px; height: 417px; margin-left:608px;""></div></div>","null","delaylearn","learning","display_response","657867e466a237b839df006a","92VU1tf4VmV6HvyXxX5YDNojz5D3","","","","","","","","","","","","","","","","","chosen stimuli: images/choice_trial_13.png","","","",""
"html-keyboard-response","201","434751","0.0-83.0-2.0","","null","","null","delaylearn","learning","feedback_duration_window","657867e466a237b839df006a","92VU1tf4VmV6HvyXxX5YDNojz5D3","","","","","","","","","","","","","","","","","","7000","","",""
"html-keyboard-response","202","436267","0.0-83.0-3.0","","null","<div style='margin:auto;width: auto; font-size: 150%'><span style='font-weight: bold; font-size: 100px; color: green;'>+10 points!</span><br><br></div>","null","delaylearn","learning","feedback_image_window","657867e466a237b839df006a","92VU1tf4VmV6HvyXxX5YDNojz5D3","","","","","","","","","","","","","","","","","","","","",""
"html-keyboard-response","203","438370","0.0-84.0","","null","<div style=""font-size:100px;"">+</div>","null","delaylearn","learning","ITI","657867e466a237b839df006a","92VU1tf4VmV6HvyXxX5YDNojz5D3","","","","","","","","","","","","","","","","","","","2090","",""
"html-keyboard-response","204","439971","0.0-85.0-0.0","","1596","<div style=""display: flex; flex-direction: column; align-items: center; margin-top: -40px;""><img src=""images/pattern_4.png"" style=""width: 234px; height: 230px; margin-top: -50px;""><div style=""display: flex; justify-content: space-between; margin-top: 33px;""><img src=""images/choice_trial_9.png"" style=""width: 408px; height: 417px; margin-right: 200px;""><img src=""images/choice_trial_15.png"" style=""width: 408px; height: 417px;""></div></div>","f","delaylearn","learning","trial","657867e466a237b839df006a","92VU1tf4VmV6HvyXxX5YDNojz5D3","3","images/choice_trial_9.png","images/choice_trial_15.png","images/pattern_4.png","f","j","7000","9","15","3","1","37","0","1","9","220","","","","",""
"html-keyboard-response","205","440987","0.0-85.0-1.0","","null","<div style=""display: flex; flex-direction: column; align-items: center; margin-top: -40px;""><img src=""images/pattern_4.png"" style=""width: 234px; height: 230px; margin-top: -50px;""><div style=""display: flex; justify-content: space-between; margin-top: 33px;""><img src=""images/choice_trial_9.png"" style=""width: 408px; height: 417px; margin-right: 608px;""></div></div>","null","delaylearn","learning","display_response","657867e466a237b839df006a","92VU1tf4VmV6HvyXxX5YDNojz5D3","","","","","","","","","","","","","","","","","chosen stimuli: images/choice_trial_9.png","","","",""
"html-keyboard-response","206","447995","0.0-85.0-2.0","","null","","null","delaylearn","learning","feedback_duration_window","657867e466a237b839df006a","92VU1tf4VmV6HvyXxX5YDNojz5D3","","","","","","","","","","","","","","","","","","7000","","",""
"html-keyboard-response","207","449503","0.0-85.0-3.0","","null","<div style='margin:auto;width: auto; font-size: 150%'><span style='font-weight: bold; font-size: 100px; color: green;'>+10 points!</span><br><br></div>","null","delaylearn","learning","feedback_image_window","657867e466a237b839df006a","92VU1tf4VmV6HvyXxX5YDNojz5D3","","","","","","","","","","","","","","","","","","","","",""
"html-keyboard-response","208","451375","0.0-86.0","","null","<div style=""font-size:100px;"">+</div>","null","delaylearn","learning","ITI","657867e466a237b839df006a","92VU1tf4VmV6HvyXxX5YDNojz5D3","","","","","","","","","","","","","","","","","","","1869","",""
"html-keyboard-response","209","453510","0.0-87.0-0.0","","2130.2000000476837","<div style=""display: flex; flex-direction: column; align-items: center; margin-top: -40px;""><img src=""images/pattern_7.png"" style=""width: 234px; height: 230px; margin-top: -50px;""><div style=""display: flex; justify-content: space-between; margin-top: 33px;""><img src=""images/choice_trial_6.png"" style=""width: 408px; height: 417px; margin-right: 200px;""><img src=""images/choice_trial_12.png"" style=""width: 408px; height: 417px;""></div></div>","j","delaylearn","learning","trial","657867e466a237b839df006a","92VU1tf4VmV6HvyXxX5YDNojz5D3","3","images/choice_trial_6.png","images/choice_trial_12.png","images/pattern_7.png","f","f","750","6","12","6","0","38","0","0","12","220","","","","",""
"html-keyboard-response","210","454520","0.0-87.0-1.0","","null","<div style=""display: flex; flex-direction: column; align-items: center; margin-top: -40px;""><img src=""images/pattern_7.png"" style=""width: 234px; height: 230px; margin-top: -50px;""><div style=""display: flex; justify-content: space-between; margin-top: 33px;""><img src=""images/choice_trial_12.png"" style=""width: 408px; height: 417px; margin-left:608px;""></div></div>","null","delaylearn","learning","display_response","657867e466a237b839df006a","92VU1tf4VmV6HvyXxX5YDNojz5D3","","","","","","","","","","","","","","","","","chosen stimuli: images/choice_trial_12.png","","","",""
"html-keyboard-response","211","455280","0.0-87.0-2.0","","null","","null","delaylearn","learning","feedback_duration_window","657867e466a237b839df006a","92VU1tf4VmV6HvyXxX5YDNojz5D3","","","","","","","","","","","","","","","","","","750","","",""
"html-keyboard-response","212","456795","0.0-87.0-3.0","","null","<div style='margin:auto;width: auto; font-size: 150%'><span style='font-weight: bold; font-size: 100px; color: red;'>0 points!</span><br><br></div>","null","delaylearn","learning","feedback_image_window","657867e466a237b839df006a","92VU1tf4VmV6HvyXxX5YDNojz5D3","","","","","","","","","","","","","","","","","","","","",""
"html-keyboard-response","213","458577","0.0-88.0","","null","<div style=""font-size:100px;"">+</div>","null","delaylearn","learning","ITI","657867e466a237b839df006a","92VU1tf4VmV6HvyXxX5YDNojz5D3","","","","","","","","","","","","","","","","","","","1771","",""
"html-keyboard-response","214","459418","0.0-89.0-0.0","","835.5","<div style=""display: flex; flex-direction: column; align-items: center; margin-top: -40px;""><img src=""images/pattern_1.png"" style=""width: 234px; height: 230px; margin-top: -50px;""><div style=""display: flex; justify-content: space-between; margin-top: 33px;""><img src=""images/choice_trial_14.png"" style=""width: 408px; height: 417px; margin-right: 200px;""><img src=""images/choice_trial_8.png"" style=""width: 408px; height: 417px;""></div></div>","f","delaylearn","learning","trial","657867e466a237b839df006a","92VU1tf4VmV6HvyXxX5YDNojz5D3","3","images/choice_trial_14.png","images/choice_trial_8.png","images/pattern_1.png","f","f","7000","14","8","1","0","39","1","1","14","230","","","","",""
"html-keyboard-response","215","460434","0.0-89.0-1.0","","null","<div style=""display: flex; flex-direction: column; align-items: center; margin-top: -40px;""><img src=""images/pattern_1.png"" style=""width: 234px; height: 230px; margin-top: -50px;""><div style=""display: flex; justify-content: space-between; margin-top: 33px;""><img src=""images/choice_trial_14.png"" style=""width: 408px; height: 417px; margin-right: 608px;""></div></div>","null","delaylearn","learning","display_response","657867e466a237b839df006a","92VU1tf4VmV6HvyXxX5YDNojz5D3","","","","","","","","","","","","","","","","","chosen stimuli: images/choice_trial_14.png","","","",""
"html-keyboard-response","216","467444","0.0-89.0-2.0","","null","","null","delaylearn","learning","feedback_duration_window","657867e466a237b839df006a","92VU1tf4VmV6HvyXxX5YDNojz5D3","","","","","","","","","","","","","","","","","","7000","","",""
"html-keyboard-response","217","468960","0.0-89.0-3.0","","null","<div style='margin:auto;width: auto; font-size: 150%'><span style='font-weight: bold; font-size: 100px; color: green;'>+10 points!</span><br><br></div>","null","delaylearn","learning","feedback_image_window","657867e466a237b839df006a","92VU1tf4VmV6HvyXxX5YDNojz5D3","","","","","","","","","","","","","","","","","","","","",""
"html-keyboard-response","218","469470","0.0-90.0-0.0","","null","","null","","","mood_trial_fixation","","","","","","","","","","","","","","","","","","","","","","",""
"lmdlab-html-vas-response","219","474637","0.0-90.0-1.0","","4157","How happy are you right now?","0.7734563087043504","delaylearn","learning","mood_trial","657867e466a237b839df006a","92VU1tf4VmV6HvyXxX5YDNojz5D3","","","","","","","","","","","","","","","","","","","","[""Very unhappy"",""Very happy""]",""
"html-keyboard-response","220","477002","0.0-91.0","","null","<div style=""font-size:100px;"">+</div>","null","delaylearn","learning","ITI","657867e466a237b839df006a","92VU1tf4VmV6HvyXxX5YDNojz5D3","","","","","","","","","","","","","","","","","","","2354","",""
