"trial_type","trial_index","time_elapsed","internal_node_id","participant","rt","stimulus","response","exp_name","exp_stage","test_part","subjectID","databaseID","counterbal","choice_stimuli_1","choice_stimuli_2","pattern_stimuli","rewarded_answer","correct_answer","feedback_duration_times","stim_left","stim_right","pair","leftright_counter","trial","response_correct","response_rewarded","chosen_stim","counter","displayed_choice","feedback_durations","ITI_duration","labels","rest_warning"
"pavlovia","0","655","0.0-0.0","","","","","","","","","","","","","","","","","","","","","","","","","","","","","",""
"html-keyboard-response","1","3658","0.0-1.0","","null","<div style=""font-size:100px;"">+</div>","null","delaylearn","learning","pre_fixation","6310b940e5a073466d04381f","","","","","","","","","","","","","","","","","","","","","",""
"html-keyboard-response","2","5102","0.0-2.0-0.0","","1441.7999999970198","<div style=""display: flex; flex-direction: column; align-items: center; margin-top: -40px;""><img src=""images/demo_images/pattern_1.png"" style=""width: 234px; height: 230px; margin-top: -50px;""><div style=""display: flex; justify-content: space-between; margin-top: 33px;""><img src=""images/demo_images/choice_trial_2.png"" style=""width: 408px; height: 417px; margin-right: 200px;""><img src=""images/demo_images/choice_trial_1.png"" style=""width: 408px; height: 417px;""></div></div>","j","delaylearn","learning","trial","6310b940e5a073466d04381f","UGUZQESoKfXHwB47iHZEbZ633vJ3","3","images/demo_images/choice_trial_2.png","images/demo_images/choice_trial_1.png","images/demo_images/pattern_1.png","j","j","3000","2","1","20","1","1","1","1","1","10","","","","",""
"html-keyboard-response","3","6105","0.0-2.0-1.0","","null","<div style=""display: flex; flex-direction: column; align-items: center; margin-top: -40px;""><img src=""images/demo_images/pattern_1.png"" style=""width: 234px; height: 230px; margin-top: -50px;""><div style=""display: flex; justify-content: space-between; margin-top: 33px;""><img src=""images/demo_images/choice_trial_1.png"" style=""width: 408px; height: 417px; margin-left:608px;""></div></div>","null","delaylearn","learning","display_response","6310b940e5a073466d04381f","UGUZQESoKfXHwB47iHZEbZ633vJ3","","","","","","","","","","","","","","","","","chosen stimuli: images/demo_images/choice_trial_1.png","","","",""
"html-keyboard-response","4","9109","0.0-2.0-2.0","","null","","null","delaylearn","learning","feedback_duration_window","6310b940e5a073466d04381f","UGUZQESoKfXHwB47iHZEbZ633vJ3","","","","","","","","","","","","","","","","","","3000","","",""
"html-keyboard-response","5","10611","0.0-2.0-3.0","","null","<div style='margin:auto;width: auto; font-size: 150%'><span style='font-weight: bold; font-size: 100px; color: green;'>+10 points!</span><br><br></div>","null","delaylearn","learning","feedback_image_window","6310b940e5a073466d04381f","UGUZQESoKfXHwB47iHZEbZ633vJ3","","","","","","","","","","","","","","","","","","","","",""
"html-keyboard-response","6","12641","0.0-3.0","","null","<div style=""font-size:100px;"">+</div>","null","delaylearn","learning","ITI","6310b940e5a073466d04381f","UGUZQESoKfXHwB47iHZEbZ633vJ3","","","","","","","","","","","","","","","","","","","2027","",""
"html-keyboard-response","7","13860","0.0-4.0-0.0","","1215.8999999985099","<div style=""display: flex; flex-direction: column; align-items: center; margin-top: -40px;""><img src=""images/demo_images/pattern_1.png"" style=""width: 234px; height: 230px; margin-top: -50px;""><div style=""display: flex; justify-content: space-between; margin-top: 33px;""><img src=""images/demo_images/choice_trial_2.png"" style=""width: 408px; height: 417px; margin-right: 200px;""><img src=""images/demo_images/choice_trial_1.png"" style=""width: 408px; height: 417px;""></div></div>","j","delaylearn","learning","trial","6310b940e5a073466d04381f","UGUZQESoKfXHwB47iHZEbZ633vJ3","3","images/demo_images/choice_trial_2.png","images/demo_images/choice_trial_1.png","images/demo_images/pattern_1.png","j","j","3000","2","1","20","1","2","1","1","1","20","","","","",""
"html-keyboard-response","8","14863","0.0-4.0-1.0","","null","<div style=""display: flex; flex-direction: column; align-items: center; margin-top: -40px;""><img src=""images/demo_images/pattern_1.png"" style=""width: 234px; height: 230px; margin-top: -50px;""><div style=""display: flex; justify-content: space-between; margin-top: 33px;""><img src=""images/demo_images/choice_trial_1.png"" style=""width: 408px; height: 417px; margin-left:608px;""></div></div>","null","delaylearn","learning","display_response","6310b940e5a073466d04381f","UGUZQESoKfXHwB47iHZEbZ633vJ3","","","","","","","","","","","","","","","","","chosen stimuli: images/demo_images/choice_trial_1.png","","","",""
"html-keyboard-response","9","17866","0.0-4.0-2.0","","null","","null","delaylearn","learning","feedback_duration_window","6310b940e5a073466d04381f","UGUZQESoKfXHwB47iHZEbZ633vJ3","","","","","","","","","","","","","","","","","","3000","","",""
"html-keyboard-response","10","19369","0.0-4.0-3.0","","null","<div style='margin:auto;width: auto; font-size: 150%'><span style='font-weight: bold; font-size: 100px; color: green;'>+10 points!</span><br><br></div>","null","delaylearn","learning","feedback_image_window","6310b940e5a073466d04381f","UGUZQESoKfXHwB47iHZEbZ633vJ3","","","","","","","","","","","","","","","","","","","","",""
"html-keyboard-response","11","21047","0.0-5.0","","null","<div style=""font-size:100px;"">+</div>","null","delaylearn","learning","ITI","6310b940e5a073466d04381f","UGUZQESoKfXHwB47iHZEbZ633vJ3","","","","","","","","","","","","","","","","","","","1675","",""
"html-keyboard-response","12","22116","0.0-6.0-0.0","","1066.8999999985099","<div style=""display: flex; flex-direction: column; align-items: center; margin-top: -40px;""><img src=""images/demo_images/pattern_1.png"" style=""width: 234px; height: 230px; margin-top: -50px;""><div style=""display: flex; justify-content: space-between; margin-top: 33px;""><img src=""images/demo_images/choice_trial_1.png"" style=""width: 408px; height: 417px; margin-right: 200px;""><img src=""images/demo_images/choice_trial_2.png"" style=""width: 408px; height: 417px;""></div></div>","f","delaylearn","learning","trial","6310b940e5a073466d04381f","UGUZQESoKfXHwB47iHZEbZ633vJ3","3","images/demo_images/choice_trial_1.png","images/demo_images/choice_trial_2.png","images/demo_images/pattern_1.png","j","f","3000","1","2","20","0","3","1","0","1","20","","","","",""
"html-keyboard-response","13","23118","0.0-6.0-1.0","","null","<div style=""display: flex; flex-direction: column; align-items: center; margin-top: -40px;""><img src=""images/demo_images/pattern_1.png"" style=""width: 234px; height: 230px; margin-top: -50px;""><div style=""display: flex; justify-content: space-between; margin-top: 33px;""><img src=""images/demo_images/choice_trial_1.png"" style=""width: 408px; height: 417px; margin-right: 608px;""></div></div>","null","delaylearn","learning","display_response","6310b940e5a073466d04381f","UGUZQESoKfXHwB47iHZEbZ633vJ3","","","","","","","","","","","","","","","","","chosen stimuli: images/demo_images/choice_trial_1.png","","","",""
"html-keyboard-response","14","26120","0.0-6.0-2.0","","null","","null","delaylearn","learning","feedback_duration_window","6310b940e5a073466d04381f","UGUZQESoKfXHwB47iHZEbZ633vJ3","","","","","","","","","","","","","","","","","","3000","","",""
"html-keyboard-response","15","27622","0.0-6.0-3.0","","null","<div style='margin:auto;width: auto; font-size: 150%'><span style='font-weight: bold; font-size: 100px; color: red;'>0 points!</span><br><br></div>","null","delaylearn","learning","feedback_image_window","6310b940e5a073466d04381f","UGUZQESoKfXHwB47iHZEbZ633vJ3","","","","","","","","","","","","","","","","","","","","",""
"html-keyboard-response","16","29406","0.0-7.0","","null","<div style=""font-size:100px;"">+</div>","null","delaylearn","learning","ITI","6310b940e5a073466d04381f","UGUZQESoKfXHwB47iHZEbZ633vJ3","","","","","","","","","","","","","","","","","","","1781","",""
"html-keyboard-response","17","30810","0.0-8.0-0.0","","1401.7000000029802","<div style=""display: flex; flex-direction: column; align-items: center; margin-top: -40px;""><img src=""images/demo_images/pattern_1.png"" style=""width: 234px; height: 230px; margin-top: -50px;""><div style=""display: flex; justify-content: space-between; margin-top: 33px;""><img src=""images/demo_images/choice_trial_1.png"" style=""width: 408px; height: 417px; margin-right: 200px;""><img src=""images/demo_images/choice_trial_2.png"" style=""width: 408px; height: 417px;""></div></div>","j","delaylearn","learning","trial","6310b940e5a073466d04381f","UGUZQESoKfXHwB47iHZEbZ633vJ3","3","images/demo_images/choice_trial_1.png","images/demo_images/choice_trial_2.png","images/demo_images/pattern_1.png","f","f","3000","1","2","20","0","4","0","0","2","20","","","","",""
"html-keyboard-response","18","31813","0.0-8.0-1.0","","null","<div style=""display: flex; flex-direction: column; align-items: center; margin-top: -40px;""><img src=""images/demo_images/pattern_1.png"" style=""width: 234px; height: 230px; margin-top: -50px;""><div style=""display: flex; justify-content: space-between; margin-top: 33px;""><img src=""images/demo_images/choice_trial_2.png"" style=""width: 408px; height: 417px; margin-left:608px;""></div></div>","null","delaylearn","learning","display_response","6310b940e5a073466d04381f","UGUZQESoKfXHwB47iHZEbZ633vJ3","","","","","","","","","","","","","","","","","chosen stimuli: images/demo_images/choice_trial_2.png","","","",""
"html-keyboard-response","19","34816","0.0-8.0-2.0","","null","","null","delaylearn","learning","feedback_duration_window","6310b940e5a073466d04381f","UGUZQESoKfXHwB47iHZEbZ633vJ3","","","","","","","","","","","","","","","","","","3000","","",""
"html-keyboard-response","20","36319","0.0-8.0-3.0","","null","<div style='margin:auto;width: auto; font-size: 150%'><span style='font-weight: bold; font-size: 100px; color: red;'>0 points!</span><br><br></div>","null","delaylearn","learning","feedback_image_window","6310b940e5a073466d04381f","UGUZQESoKfXHwB47iHZEbZ633vJ3","","","","","","","","","","","","","","","","","","","","",""
"html-keyboard-response","21","36820","0.0-9.0-0.0","","null","","null","","","mood_trial_fixation","","","","","","","","","","","","","","","","","","","","","","",""
"lmdlab-html-vas-response","22","42843","0.0-9.0-1.0","","5010","How happy are you right now?","0.37407407407407406","delaylearn","learning","mood_trial","6310b940e5a073466d04381f","UGUZQESoKfXHwB47iHZEbZ633vJ3","","","","","","","","","","","","","","","","","","","","[""Very unhappy"",""Very happy""]",""
"html-keyboard-response","23","44817","0.0-10.0","","null","<div style=""font-size:100px;"">+</div>","null","delaylearn","learning","ITI","6310b940e5a073466d04381f","UGUZQESoKfXHwB47iHZEbZ633vJ3","","","","","","","","","","","","","","","","","","","1971","",""
"html-keyboard-response","24","46085","0.0-11.0-0.0","","1266.3000000044703","<div style=""display: flex; flex-direction: column; align-items: center; margin-top: -40px;""><img src=""images/demo_images/pattern_1.png"" style=""width: 234px; height: 230px; margin-top: -50px;""><div style=""display: flex; justify-content: space-between; margin-top: 33px;""><img src=""images/demo_images/choice_trial_2.png"" style=""width: 408px; height: 417px; margin-right: 200px;""><img src=""images/demo_images/choice_trial_1.png"" style=""width: 408px; height: 417px;""></div></div>","j","delaylearn","learning","trial","6310b940e5a073466d04381f","UGUZQESoKfXHwB47iHZEbZ633vJ3","3","images/demo_images/choice_trial_2.png","images/demo_images/choice_trial_1.png","images/demo_images/pattern_1.png","j","j","3000","2","1","20","1","5","1","1","1","30","","","","",""
"html-keyboard-response","25","47088","0.0-11.0-1.0","","null","<div style=""display: flex; flex-direction: column; align-items: center; margin-top: -40px;""><img src=""images/demo_images/pattern_1.png"" style=""width: 234px; height: 230px; margin-top: -50px;""><div style=""display: flex; justify-content: space-between; margin-top: 33px;""><img src=""images/demo_images/choice_trial_1.png"" style=""width: 408px; height: 417px; margin-left:608px;""></div></div>","null","delaylearn","learning","display_response","6310b940e5a073466d04381f","UGUZQESoKfXHwB47iHZEbZ633vJ3","","","","","","","","","","","","","","","","","chosen stimuli: images/demo_images/choice_trial_1.png","","","",""
"html-keyboard-response","26","50091","0.0-11.0-2.0","","null","","null","delaylearn","learning","feedback_duration_window","6310b940e5a073466d04381f","UGUZQESoKfXHwB47iHZEbZ633vJ3","","","","","","","","","","","","","","","","","","3000","","",""
"html-keyboard-response","27","51593","0.0-11.0-3.0","","null","<div style='margin:auto;width: auto; font-size: 150%'><span style='font-weight: bold; font-size: 100px; color: green;'>+10 points!</span><br><br></div>","null","delaylearn","learning","feedback_image_window","6310b940e5a073466d04381f","UGUZQESoKfXHwB47iHZEbZ633vJ3","","","","","","","","","","","","","","","","","","","","",""
"html-keyboard-response","28","53484","0.0-12.0","","null","<div style=""font-size:100px;"">+</div>","null","delaylearn","learning","ITI","6310b940e5a073466d04381f","UGUZQESoKfXHwB47iHZEbZ633vJ3","","","","","","","","","","","","","","","","","","","1888","",""
"html-keyboard-response","29","56487","0.0-13.0-0.0","","null","<div style=""display: flex; flex-direction: column; align-items: center; margin-top: -40px;""><img src=""images/demo_images/pattern_1.png"" style=""width: 234px; height: 230px; margin-top: -50px;""><div style=""display: flex; justify-content: space-between; margin-top: 33px;""><img src=""images/demo_images/choice_trial_1.png"" style=""width: 408px; height: 417px; margin-right: 200px;""><img src=""images/demo_images/choice_trial_2.png"" style=""width: 408px; height: 417px;""></div></div>","null","delaylearn","learning","trial","6310b940e5a073466d04381f","UGUZQESoKfXHwB47iHZEbZ633vJ3","3","images/demo_images/choice_trial_1.png","images/demo_images/choice_trial_2.png","images/demo_images/pattern_1.png","f","f","3000","1","2","20","0","6","0","0","0","30","","","","",""
"html-keyboard-response","30","57490","0.0-13.0-1.0","","null","<div style='font-weight: bold; font-size: 75px; color: red;'>Missed Trial <br><br><br><br> Please respond faster</div>","null","delaylearn","learning","display_response","6310b940e5a073466d04381f","UGUZQESoKfXHwB47iHZEbZ633vJ3","","","","","","","","","","","","","","","","","Missed trial","","","",""
"html-keyboard-response","31","57495","0.0-13.0-2.0","","null","","null","delaylearn","learning","feedback_duration_window","6310b940e5a073466d04381f","UGUZQESoKfXHwB47iHZEbZ633vJ3","","","","","","","","","","","","","","","","","","0","","",""
"html-keyboard-response","32","57501","0.0-13.0-3.0","","null","","null","delaylearn","learning","feedback_image_window","6310b940e5a073466d04381f","UGUZQESoKfXHwB47iHZEbZ633vJ3","","","","","","","","","","","","","","","","","","","","",""
"html-keyboard-response","33","59490","0.0-14.0","","null","<div style=""font-size:100px;"">+</div>","null","delaylearn","learning","ITI","6310b940e5a073466d04381f","UGUZQESoKfXHwB47iHZEbZ633vJ3","","","","","","","","","","","","","","","","","","","1986","",""
"html-keyboard-response","34","59977","0.0-15.0-0.0","","485","<div style=""display: flex; flex-direction: column; align-items: center; margin-top: -40px;""><img src=""images/demo_images/pattern_1.png"" style=""width: 234px; height: 230px; margin-top: -50px;""><div style=""display: flex; justify-content: space-between; margin-top: 33px;""><img src=""images/demo_images/choice_trial_2.png"" style=""width: 408px; height: 417px; margin-right: 200px;""><img src=""images/demo_images/choice_trial_1.png"" style=""width: 408px; height: 417px;""></div></div>","j","delaylearn","learning","trial","6310b940e5a073466d04381f","UGUZQESoKfXHwB47iHZEbZ633vJ3","3","images/demo_images/choice_trial_2.png","images/demo_images/choice_trial_1.png","images/demo_images/pattern_1.png","j","j","3000","2","1","20","1","7","1","1","1","40","","","","",""
"html-keyboard-response","35","60981","0.0-15.0-1.0","","null","<div style=""display: flex; flex-direction: column; align-items: center; margin-top: -40px;""><img src=""images/demo_images/pattern_1.png"" style=""width: 234px; height: 230px; margin-top: -50px;""><div style=""display: flex; justify-content: space-between; margin-top: 33px;""><img src=""images/demo_images/choice_trial_1.png"" style=""width: 408px; height: 417px; margin-left:608px;""></div></div>","null","delaylearn","learning","display_response","6310b940e5a073466d04381f","UGUZQESoKfXHwB47iHZEbZ633vJ3","","","","","","","","","","","","","","","","","chosen stimuli: images/demo_images/choice_trial_1.png","","","",""
"html-keyboard-response","36","63983","0.0-15.0-2.0","","null","","null","delaylearn","learning","feedback_duration_window","6310b940e5a073466d04381f","UGUZQESoKfXHwB47iHZEbZ633vJ3","","","","","","","","","","","","","","","","","","3000","","",""
"html-keyboard-response","37","65486","0.0-15.0-3.0","","null","<div style='margin:auto;width: auto; font-size: 150%'><span style='font-weight: bold; font-size: 100px; color: green;'>+10 points!</span><br><br></div>","null","delaylearn","learning","feedback_image_window","6310b940e5a073466d04381f","UGUZQESoKfXHwB47iHZEbZ633vJ3","","","","","","","","","","","","","","","","","","","","",""
"html-keyboard-response","38","67866","0.0-16.0","","null","<div style=""font-size:100px;"">+</div>","null","delaylearn","learning","ITI","6310b940e5a073466d04381f","UGUZQESoKfXHwB47iHZEbZ633vJ3","","","","","","","","","","","","","","","","","","","2377","",""
"html-keyboard-response","39","69520","0.0-17.0-0.0","","1652.0999999940395","<div style=""display: flex; flex-direction: column; align-items: center; margin-top: -40px;""><img src=""images/demo_images/pattern_1.png"" style=""width: 234px; height: 230px; margin-top: -50px;""><div style=""display: flex; justify-content: space-between; margin-top: 33px;""><img src=""images/demo_images/choice_trial_1.png"" style=""width: 408px; height: 417px; margin-right: 200px;""><img src=""images/demo_images/choice_trial_2.png"" style=""width: 408px; height: 417px;""></div></div>","j","delaylearn","learning","trial","6310b940e5a073466d04381f","UGUZQESoKfXHwB47iHZEbZ633vJ3","3","images/demo_images/choice_trial_1.png","images/demo_images/choice_trial_2.png","images/demo_images/pattern_1.png","f","f","3000","1","2","20","0","8","0","0","2","40","","","","",""
"html-keyboard-response","40","70521","0.0-17.0-1.0","","null","<div style=""display: flex; flex-direction: column; align-items: center; margin-top: -40px;""><img src=""images/demo_images/pattern_1.png"" style=""width: 234px; height: 230px; margin-top: -50px;""><div style=""display: flex; justify-content: space-between; margin-top: 33px;""><img src=""images/demo_images/choice_trial_2.png"" style=""width: 408px; height: 417px; margin-left:608px;""></div></div>","null","delaylearn","learning","display_response","6310b940e5a073466d04381f","UGUZQESoKfXHwB47iHZEbZ633vJ3","","","","","","","","","","","","","","","","","chosen stimuli: images/demo_images/choice_trial_2.png","","","",""
"html-keyboard-response","41","73524","0.0-17.0-2.0","","null","","null","delaylearn","learning","feedback_duration_window","6310b940e5a073466d04381f","UGUZQESoKfXHwB47iHZEbZ633vJ3","","","","","","","","","","","","","","","","","","3000","","",""
"html-keyboard-response","42","75028","0.0-17.0-3.0","","null","<div style='margin:auto;width: auto; font-size: 150%'><span style='font-weight: bold; font-size: 100px; color: red;'>0 points!</span><br><br></div>","null","delaylearn","learning","feedback_image_window","6310b940e5a073466d04381f","UGUZQESoKfXHwB47iHZEbZ633vJ3","","","","","","","","","","","","","","","","","","","","",""
"html-button-response","43","168022","0.0-18.0","","92991.70000000298","
  <div style=""display: flex; align-items: center; justify-content: center; height: 80vh;"">
  <div>
          <img src=""images/inst_demo_finish.png"" style=""width: 80vw; height:auto;"">
          <br><br>
      </div>
      <br><br>
  </div>","0","","","","","","","","","","","","","","","","","","","","","","","","","",""
"html-keyboard-response","44","178823","0.0-19.0","","10800.69999999553","
  <div style=""display: flex; align-items: center; justify-content: center; height: 80vh;"">
  <div>
          <img src=""images/inst_6.png"" style=""width: 80vw; height:auto;"">
          <br><br>
      </div>
      <br><br>
  </div>","j","","","","","","","","","","","","","","","","","","","","","","","","","",""
"html-keyboard-response","45","181826","0.0-20.0","","null","<div style=""font-size:100px;"">+</div>","null","delaylearn","learning","pre_fixation","6310b940e5a073466d04381f","","","","","","","","","","","","","","","","","","","","","",""
"html-keyboard-response","46","183678","0.0-21.0","","null","<div style=""font-size:100px;"">+</div>","null","delaylearn","learning","ITI","6310b940e5a073466d04381f","UGUZQESoKfXHwB47iHZEbZ633vJ3","","","","","","","","","","","","","","","","","","","1849","",""
"html-keyboard-response","47","185229","0.0-22.0-0.0","","1549","<div style=""display: flex; flex-direction: column; align-items: center; margin-top: -40px;""><img src=""images/pattern_3.png"" style=""width: 234px; height: 230px; margin-top: -50px;""><div style=""display: flex; justify-content: space-between; margin-top: 33px;""><img src=""images/choice_trial_13.png"" style=""width: 408px; height: 417px; margin-right: 200px;""><img src=""images/choice_trial_10.png"" style=""width: 408px; height: 417px;""></div></div>","f","delaylearn","learning","trial","6310b940e5a073466d04381f","UGUZQESoKfXHwB47iHZEbZ633vJ3","3","images/choice_trial_13.png","images/choice_trial_10.png","images/pattern_3.png","f","f","7000","13","10","2","0","9","1","1","13","50","","","","",""
"html-keyboard-response","48","186232","0.0-22.0-1.0","","null","<div style=""display: flex; flex-direction: column; align-items: center; margin-top: -40px;""><img src=""images/pattern_3.png"" style=""width: 234px; height: 230px; margin-top: -50px;""><div style=""display: flex; justify-content: space-between; margin-top: 33px;""><img src=""images/choice_trial_13.png"" style=""width: 408px; height: 417px; margin-right: 608px;""></div></div>","null","delaylearn","learning","display_response","6310b940e5a073466d04381f","UGUZQESoKfXHwB47iHZEbZ633vJ3","","","","","","","","","","","","","","","","","chosen stimuli: images/choice_trial_13.png","","","",""
"html-keyboard-response","49","193234","0.0-22.0-2.0","","null","","null","delaylearn","learning","feedback_duration_window","6310b940e5a073466d04381f","UGUZQESoKfXHwB47iHZEbZ633vJ3","","","","","","","","","","","","","","","","","","7000","","",""
"html-keyboard-response","50","194737","0.0-22.0-3.0","","null","<div style='margin:auto;width: auto; font-size: 150%'><span style='font-weight: bold; font-size: 100px; color: green;'>+10 points!</span><br><br></div>","null","delaylearn","learning","feedback_image_window","6310b940e5a073466d04381f","UGUZQESoKfXHwB47iHZEbZ633vJ3","","","","","","","","","","","","","","","","","","","","",""
"html-keyboard-response","51","196282","0.0-23.0","","null","<div style=""font-size:100px;"">+</div>","null","delaylearn","learning","ITI","6310b940e5a073466d04381f","UGUZQESoKfXHwB47iHZEbZ633vJ3","","","","","","","","","","","","","","","","","","","1542","",""
"html-keyboard-response","52","199110","0.0-24.0-0.0","","2826.7999999970198","<div style=""display: flex; flex-direction: column; align-items: center; margin-top: -40px;""><img src=""images/pattern_7.png"" style=""width: 234px; height: 230px; margin-top: -50px;""><div style=""display: flex; justify-content: space-between; margin-top: 33px;""><img src=""images/choice_trial_12.png"" style=""width: 408px; height: 417px; margin-right: 200px;""><img src=""images/choice_trial_6.png"" style=""width: 408px; height: 417px;""></div></div>","f","delaylearn","learning","trial","6310b940e5a073466d04381f","UGUZQESoKfXHwB47iHZEbZ633vJ3","3","images/choice_trial_12.png","images/choice_trial_6.png","images/pattern_7.png","j","j","750","12","6","6","1","10","0","0","12","50","","","","",""
"html-keyboard-response","53","200112","0.0-24.0-1.0","","null","<div style=""display: flex; flex-direction: column; align-items: center; margin-top: -40px;""><img src=""images/pattern_7.png"" style=""width: 234px; height: 230px; margin-top: -50px;""><div style=""display: flex; justify-content: space-between; margin-top: 33px;""><img src=""images/choice_trial_12.png"" style=""width: 408px; height: 417px; margin-right: 608px;""></div></div>","null","delaylearn","learning","display_response","6310b940e5a073466d04381f","UGUZQESoKfXHwB47iHZEbZ633vJ3","","","","","","","","","","","","","","","","","chosen stimuli: images/choice_trial_12.png","","","",""
"html-keyboard-response","54","200864","0.0-24.0-2.0","","null","","null","delaylearn","learning","feedback_duration_window","6310b940e5a073466d04381f","UGUZQESoKfXHwB47iHZEbZ633vJ3","","","","","","","","","","","","","","","","","","750","","",""
"html-keyboard-response","55","202367","0.0-24.0-3.0","","null","<div style='margin:auto;width: auto; font-size: 150%'><span style='font-weight: bold; font-size: 100px; color: red;'>0 points!</span><br><br></div>","null","delaylearn","learning","feedback_image_window","6310b940e5a073466d04381f","UGUZQESoKfXHwB47iHZEbZ633vJ3","","","","","","","","","","","","","","","","","","","","",""
"html-keyboard-response","56","204572","0.0-25.0","","null","<div style=""font-size:100px;"">+</div>","null","delaylearn","learning","ITI","6310b940e5a073466d04381f","UGUZQESoKfXHwB47iHZEbZ633vJ3","","","","","","","","","","","","","","","","","","","2204","",""
"html-keyboard-response","57","206767","0.0-26.0-0.0","","2193.89999999851","<div style=""display: flex; flex-direction: column; align-items: center; margin-top: -40px;""><img src=""images/pattern_4.png"" style=""width: 234px; height: 230px; margin-top: -50px;""><div style=""display: flex; justify-content: space-between; margin-top: 33px;""><img src=""images/choice_trial_15.png"" style=""width: 408px; height: 417px; margin-right: 200px;""><img src=""images/choice_trial_9.png"" style=""width: 408px; height: 417px;""></div></div>","f","delaylearn","learning","trial","6310b940e5a073466d04381f","UGUZQESoKfXHwB47iHZEbZ633vJ3","3","images/choice_trial_15.png","images/choice_trial_9.png","images/pattern_4.png","f","f","7000","15","9","3","0","11","1","1","15","60","","","","",""
"html-keyboard-response","58","207770","0.0-26.0-1.0","","null","<div style=""display: flex; flex-direction: column; align-items: center; margin-top: -40px;""><img src=""images/pattern_4.png"" style=""width: 234px; height: 230px; margin-top: -50px;""><div style=""display: flex; justify-content: space-between; margin-top: 33px;""><img src=""images/choice_trial_15.png"" style=""width: 408px; height: 417px; margin-right: 608px;""></div></div>","null","delaylearn","learning","display_response","6310b940e5a073466d04381f","UGUZQESoKfXHwB47iHZEbZ633vJ3","","","","","","","","","","","","","","","","","chosen stimuli: images/choice_trial_15.png","","","",""
"html-keyboard-response","59","214771","0.0-26.0-2.0","","null","","null","delaylearn","learning","feedback_duration_window","6310b940e5a073466d04381f","UGUZQESoKfXHwB47iHZEbZ633vJ3","","","","","","","","","","","","","","","","","","7000","","",""
"html-keyboard-response","60","216274","0.0-26.0-3.0","","null","<div style='margin:auto;width: auto; font-size: 150%'><span style='font-weight: bold; font-size: 100px; color: green;'>+10 points!</span><br><br></div>","null","delaylearn","learning","feedback_image_window","6310b940e5a073466d04381f","UGUZQESoKfXHwB47iHZEbZ633vJ3","","","","","","","","","","","","","","","","","","","","",""
"html-keyboard-response","61","218145","0.0-27.0","","null","<div style=""font-size:100px;"">+</div>","null","delaylearn","learning","ITI","6310b940e5a073466d04381f","UGUZQESoKfXHwB47iHZEbZ633vJ3","","","","","","","","","","","","","","","","","","","1868","",""
"html-keyboard-response","62","220240","0.0-28.0-0.0","","2093.9000000059605","<div style=""display: flex; flex-direction: column; align-items: center; margin-top: -40px;""><img src=""images/pattern_5.png"" style=""width: 234px; height: 230px; margin-top: -50px;""><div style=""display: flex; justify-content: space-between; margin-top: 33px;""><img src=""images/choice_trial_2.png"" style=""width: 408px; height: 417px; margin-right: 200px;""><img src=""images/choice_trial_11.png"" style=""width: 408px; height: 417px;""></div></div>","f","delaylearn","learning","trial","6310b940e5a073466d04381f","UGUZQESoKfXHwB47iHZEbZ633vJ3","3","images/choice_trial_2.png","images/choice_trial_11.png","images/pattern_5.png","j","j","750","2","11","4","1","12","0","0","2","60","","","","",""
"html-keyboard-response","63","221243","0.0-28.0-1.0","","null","<div style=""display: flex; flex-direction: column; align-items: center; margin-top: -40px;""><img src=""images/pattern_5.png"" style=""width: 234px; height: 230px; margin-top: -50px;""><div style=""display: flex; justify-content: space-between; margin-top: 33px;""><img src=""images/choice_trial_2.png"" style=""width: 408px; height: 417px; margin-right: 608px;""></div></div>","null","delaylearn","learning","display_response","6310b940e5a073466d04381f","UGUZQESoKfXHwB47iHZEbZ633vJ3","","","","","","","","","","","","","","","","","chosen stimuli: images/choice_trial_2.png","","","",""
"html-keyboard-response","64","221995","0.0-28.0-2.0","","null","","null","delaylearn","learning","feedback_duration_window","6310b940e5a073466d04381f","UGUZQESoKfXHwB47iHZEbZ633vJ3","","","","","","","","","","","","","","","","","","750","","",""
"html-keyboard-response","65","223497","0.0-28.0-3.0","","null","<div style='margin:auto;width: auto; font-size: 150%'><span style='font-weight: bold; font-size: 100px; color: red;'>0 points!</span><br><br></div>","null","delaylearn","learning","feedback_image_window","6310b940e5a073466d04381f","UGUZQESoKfXHwB47iHZEbZ633vJ3","","","","","","","","","","","","","","","","","","","","",""
"html-keyboard-response","66","225783","0.0-29.0","","null","<div style=""font-size:100px;"">+</div>","null","delaylearn","learning","ITI","6310b940e5a073466d04381f","UGUZQESoKfXHwB47iHZEbZ633vJ3","","","","","","","","","","","","","","","","","","","2283","",""
"html-keyboard-response","67","228669","0.0-30.0-0.0","","2883.7000000029802","<div style=""display: flex; flex-direction: column; align-items: center; margin-top: -40px;""><img src=""images/pattern_6.png"" style=""width: 234px; height: 230px; margin-top: -50px;""><div style=""display: flex; justify-content: space-between; margin-top: 33px;""><img src=""images/choice_trial_16.png"" style=""width: 408px; height: 417px; margin-right: 200px;""><img src=""images/choice_trial_3.png"" style=""width: 408px; height: 417px;""></div></div>","f","delaylearn","learning","trial","6310b940e5a073466d04381f","UGUZQESoKfXHwB47iHZEbZ633vJ3","3","images/choice_trial_16.png","images/choice_trial_3.png","images/pattern_6.png","j","f","750","16","3","5","0","13","1","0","16","60","","","","",""
"html-keyboard-response","68","229670","0.0-30.0-1.0","","null","<div style=""display: flex; flex-direction: column; align-items: center; margin-top: -40px;""><img src=""images/pattern_6.png"" style=""width: 234px; height: 230px; margin-top: -50px;""><div style=""display: flex; justify-content: space-between; margin-top: 33px;""><img src=""images/choice_trial_16.png"" style=""width: 408px; height: 417px; margin-right: 608px;""></div></div>","null","delaylearn","learning","display_response","6310b940e5a073466d04381f","UGUZQESoKfXHwB47iHZEbZ633vJ3","","","","","","","","","","","","","","","","","chosen stimuli: images/choice_trial_16.png","","","",""
"html-keyboard-response","69","230422","0.0-30.0-2.0","","null","","null","delaylearn","learning","feedback_duration_window","6310b940e5a073466d04381f","UGUZQESoKfXHwB47iHZEbZ633vJ3","","","","","","","","","","","","","","","","","","750","","",""
"html-keyboard-response","70","231923","0.0-30.0-3.0","","null","<div style='margin:auto;width: auto; font-size: 150%'><span style='font-weight: bold; font-size: 100px; color: red;'>0 points!</span><br><br></div>","null","delaylearn","learning","feedback_image_window","6310b940e5a073466d04381f","UGUZQESoKfXHwB47iHZEbZ633vJ3","","","","","","","","","","","","","","","","","","","","",""
"html-keyboard-response","71","232425","0.0-31.0-0.0","","null","","null","","","mood_trial_fixation","","","","","","","","","","","","","","","","","","","","","","",""
"lmdlab-html-vas-response","72","236604","0.0-31.0-1.0","","3175","How happy are you right now?","0.20185185185185187","delaylearn","learning","mood_trial","6310b940e5a073466d04381f","UGUZQESoKfXHwB47iHZEbZ633vJ3","","","","","","","","","","","","","","","","","","","","[""Very unhappy"",""Very happy""]",""
"html-keyboard-response","73","238979","0.0-32.0","","null","<div style=""font-size:100px;"">+</div>","null","delaylearn","learning","ITI","6310b940e5a073466d04381f","UGUZQESoKfXHwB47iHZEbZ633vJ3","","","","","","","","","","","","","","","","","","","2372","",""
"html-keyboard-response","74","241205","0.0-33.0-0.0","","2224.39999999851","<div style=""display: flex; flex-direction: column; align-items: center; margin-top: -40px;""><img src=""images/pattern_1.png"" style=""width: 234px; height: 230px; margin-top: -50px;""><div style=""display: flex; justify-content: space-between; margin-top: 33px;""><img src=""images/choice_trial_8.png"" style=""width: 408px; height: 417px; margin-right: 200px;""><img src=""images/choice_trial_14.png"" style=""width: 408px; height: 417px;""></div></div>","j","delaylearn","learning","trial","6310b940e5a073466d04381f","UGUZQESoKfXHwB47iHZEbZ633vJ3","3","images/choice_trial_8.png","images/choice_trial_14.png","images/pattern_1.png","j","j","7000","8","14","1","1","14","1","1","14","70","","","","",""
"html-keyboard-response","75","242209","0.0-33.0-1.0","","null","<div style=""display: flex; flex-direction: column; align-items: center; margin-top: -40px;""><img src=""images/pattern_1.png"" style=""width: 234px; height: 230px; margin-top: -50px;""><div style=""display: flex; justify-content: space-between; margin-top: 33px;""><img src=""images/choice_trial_14.png"" style=""width: 408px; height: 417px; margin-left:608px;""></div></div>","null","delaylearn","learning","display_response","6310b940e5a073466d04381f","UGUZQESoKfXHwB47iHZEbZ633vJ3","","","","","","","","","","","","","","","","","chosen stimuli: images/choice_trial_14.png","","","",""
"html-keyboard-response","76","249211","0.0-33.0-2.0","","null","","null","delaylearn","learning","feedback_duration_window","6310b940e5a073466d04381f","UGUZQESoKfXHwB47iHZEbZ633vJ3","","","","","","","","","","","","","","","","","","7000","","",""
"html-keyboard-response","77","250714","0.0-33.0-3.0","","null","<div style='margin:auto;width: auto; font-size: 150%'><span style='font-weight: bold; font-size: 100px; color: green;'>+10 points!</span><br><br></div>","null","delaylearn","learning","feedback_image_window","6310b940e5a073466d04381f","UGUZQESoKfXHwB47iHZEbZ633vJ3","","","","","","","","","","","","","","","","","","","","",""
"html-keyboard-response","78","252546","0.0-34.0","","null","<div style=""font-size:100px;"">+</div>","null","delaylearn","learning","ITI","6310b940e5a073466d04381f","UGUZQESoKfXHwB47iHZEbZ633vJ3","","","","","","","","","","","","","","","","","","","1830","",""
"html-keyboard-response","79","254523","0.0-35.0-0.0","","1975.8999999985099","<div style=""display: flex; flex-direction: column; align-items: center; margin-top: -40px;""><img src=""images/pattern_3.png"" style=""width: 234px; height: 230px; margin-top: -50px;""><div style=""display: flex; justify-content: space-between; margin-top: 33px;""><img src=""images/choice_trial_10.png"" style=""width: 408px; height: 417px; margin-right: 200px;""><img src=""images/choice_trial_13.png"" style=""width: 408px; height: 417px;""></div></div>","j","delaylearn","learning","trial","6310b940e5a073466d04381f","UGUZQESoKfXHwB47iHZEbZ633vJ3","3","images/choice_trial_10.png","images/choice_trial_13.png","images/pattern_3.png","f","j","7000","10","13","2","1","15","1","0","13","70","","","","",""
"html-keyboard-response","80","255526","0.0-35.0-1.0","","null","<div style=""display: flex; flex-direction: column; align-items: center; margin-top: -40px;""><img src=""images/pattern_3.png"" style=""width: 234px; height: 230px; margin-top: -50px;""><div style=""display: flex; justify-content: space-between; margin-top: 33px;""><img src=""images/choice_trial_13.png"" style=""width: 408px; height: 417px; margin-left:608px;""></div></div>","null","delaylearn","learning","display_response","6310b940e5a073466d04381f","UGUZQESoKfXHwB47iHZEbZ633vJ3","","","","","","","","","","","","","","","","","chosen stimuli: images/choice_trial_13.png","","","",""
"html-keyboard-response","81","262529","0.0-35.0-2.0","","null","","null","delaylearn","learning","feedback_duration_window","6310b940e5a073466d04381f","UGUZQESoKfXHwB47iHZEbZ633vJ3","","","","","","","","","","","","","","","","","","7000","","",""
"html-keyboard-response","82","264031","0.0-35.0-3.0","","null","<div style='margin:auto;width: auto; font-size: 150%'><span style='font-weight: bold; font-size: 100px; color: red;'>0 points!</span><br><br></div>","null","delaylearn","learning","feedback_image_window","6310b940e5a073466d04381f","UGUZQESoKfXHwB47iHZEbZ633vJ3","","","","","","","","","","","","","","","","","","","","",""
"html-keyboard-response","83","265960","0.0-36.0","","null","<div style=""font-size:100px;"">+</div>","null","delaylearn","learning","ITI","6310b940e5a073466d04381f","UGUZQESoKfXHwB47iHZEbZ633vJ3","","","","","","","","","","","","","","","","","","","1926","",""
"html-keyboard-response","84","267949","0.0-37.0-0.0","","1988.1000000014901","<div style=""display: flex; flex-direction: column; align-items: center; margin-top: -40px;""><img src=""images/pattern_5.png"" style=""width: 234px; height: 230px; margin-top: -50px;""><div style=""display: flex; justify-content: space-between; margin-top: 33px;""><img src=""images/choice_trial_11.png"" style=""width: 408px; height: 417px; margin-right: 200px;""><img src=""images/choice_trial_2.png"" style=""width: 408px; height: 417px;""></div></div>","j","delaylearn","learning","trial","6310b940e5a073466d04381f","UGUZQESoKfXHwB47iHZEbZ633vJ3","3","images/choice_trial_11.png","images/choice_trial_2.png","images/pattern_5.png","f","f","750","11","2","4","0","16","0","0","2","70","","","","",""
"html-keyboard-response","85","268952","0.0-37.0-1.0","","null","<div style=""display: flex; flex-direction: column; align-items: center; margin-top: -40px;""><img src=""images/pattern_5.png"" style=""width: 234px; height: 230px; margin-top: -50px;""><div style=""display: flex; justify-content: space-between; margin-top: 33px;""><img src=""images/choice_trial_2.png"" style=""width: 408px; height: 417px; margin-left:608px;""></div></div>","null","delaylearn","learning","display_response","6310b940e5a073466d04381f","UGUZQESoKfXHwB47iHZEbZ633vJ3","","","","","","","","","","","","","","","","","chosen stimuli: images/choice_trial_2.png","","","",""
"html-keyboard-response","86","269705","0.0-37.0-2.0","","null","","null","delaylearn","learning","feedback_duration_window","6310b940e5a073466d04381f","UGUZQESoKfXHwB47iHZEbZ633vJ3","","","","","","","","","","","","","","","","","","750","","",""
"html-keyboard-response","87","271207","0.0-37.0-3.0","","null","<div style='margin:auto;width: auto; font-size: 150%'><span style='font-weight: bold; font-size: 100px; color: red;'>0 points!</span><br><br></div>","null","delaylearn","learning","feedback_image_window","6310b940e5a073466d04381f","UGUZQESoKfXHwB47iHZEbZ633vJ3","","","","","","","","","","","","","","","","","","","","",""
"html-keyboard-response","88","271710","0.0-38.0-0.0","","null","","null","","","mood_trial_fixation","","","","","","","","","","","","","","","","","","","","","","",""
"lmdlab-html-vas-response","89","275822","0.0-38.0-1.0","","3106","How happy are you right now?","0.29814814814814816","delaylearn","learning","mood_trial","6310b940e5a073466d04381f","UGUZQESoKfXHwB47iHZEbZ633vJ3","","","","","","","","","","","","","","","","","","","","[""Very unhappy"",""Very happy""]",""
"html-keyboard-response","90","277474","0.0-39.0","","null","<div style=""font-size:100px;"">+</div>","null","delaylearn","learning","ITI","6310b940e5a073466d04381f","UGUZQESoKfXHwB47iHZEbZ633vJ3","","","","","","","","","","","","","","","","","","","1650","",""
"html-keyboard-response","91","278564","0.0-40.0-0.0","","1087.5","<div style=""display: flex; flex-direction: column; align-items: center; margin-top: -40px;""><img src=""images/pattern_6.png"" style=""width: 234px; height: 230px; margin-top: -50px;""><div style=""display: flex; justify-content: space-between; margin-top: 33px;""><img src=""images/choice_trial_16.png"" style=""width: 408px; height: 417px; margin-right: 200px;""><img src=""images/choice_trial_3.png"" style=""width: 408px; height: 417px;""></div></div>","f","delaylearn","learning","trial","6310b940e5a073466d04381f","UGUZQESoKfXHwB47iHZEbZ633vJ3","3","images/choice_trial_16.png","images/choice_trial_3.png","images/pattern_6.png","f","f","750","16","3","5","0","17","1","1","16","80","","","","",""
"html-keyboard-response","92","279567","0.0-40.0-1.0","","null","<div style=""display: flex; flex-direction: column; align-items: center; margin-top: -40px;""><img src=""images/pattern_6.png"" style=""width: 234px; height: 230px; margin-top: -50px;""><div style=""display: flex; justify-content: space-between; margin-top: 33px;""><img src=""images/choice_trial_16.png"" style=""width: 408px; height: 417px; margin-right: 608px;""></div></div>","null","delaylearn","learning","display_response","6310b940e5a073466d04381f","UGUZQESoKfXHwB47iHZEbZ633vJ3","","","","","","","","","","","","","","","","","chosen stimuli: images/choice_trial_16.png","","","",""
"html-keyboard-response","93","280319","0.0-40.0-2.0","","null","","null","delaylearn","learning","feedback_duration_window","6310b940e5a073466d04381f","UGUZQESoKfXHwB47iHZEbZ633vJ3","","","","","","","","","","","","","","","","","","750","","",""
"html-keyboard-response","94","281822","0.0-40.0-3.0","","null","<div style='margin:auto;width: auto; font-size: 150%'><span style='font-weight: bold; font-size: 100px; color: green;'>+10 points!</span><br><br></div>","null","delaylearn","learning","feedback_image_window","6310b940e5a073466d04381f","UGUZQESoKfXHwB47iHZEbZ633vJ3","","","","","","","","","","","","","","","","","","","","",""
"html-keyboard-response","95","283621","0.0-41.0","","null","<div style=""font-size:100px;"">+</div>","null","delaylearn","learning","ITI","6310b940e5a073466d04381f","UGUZQESoKfXHwB47iHZEbZ633vJ3","","","","","","","","","","","","","","","","","","","1797","",""
"html-keyboard-response","96","284976","0.0-42.0-0.0","","1352.7999999970198","<div style=""display: flex; flex-direction: column; align-items: center; margin-top: -40px;""><img src=""images/pattern_4.png"" style=""width: 234px; height: 230px; margin-top: -50px;""><div style=""display: flex; justify-content: space-between; margin-top: 33px;""><img src=""images/choice_trial_9.png"" style=""width: 408px; height: 417px; margin-right: 200px;""><img src=""images/choice_trial_15.png"" style=""width: 408px; height: 417px;""></div></div>","f","delaylearn","learning","trial","6310b940e5a073466d04381f","UGUZQESoKfXHwB47iHZEbZ633vJ3","3","images/choice_trial_9.png","images/choice_trial_15.png","images/pattern_4.png","j","j","7000","9","15","3","1","18","0","0","9","80","","","","",""
"html-keyboard-response","97","285979","0.0-42.0-1.0","","null","<div style=""display: flex; flex-direction: column; align-items: center; margin-top: -40px;""><img src=""images/pattern_4.png"" style=""width: 234px; height: 230px; margin-top: -50px;""><div style=""display: flex; justify-content: space-between; margin-top: 33px;""><img src=""images/choice_trial_9.png"" style=""width: 408px; height: 417px; margin-right: 608px;""></div></div>","null","delaylearn","learning","display_response","6310b940e5a073466d04381f","UGUZQESoKfXHwB47iHZEbZ633vJ3","","","","","","","","","","","","","","","","","chosen stimuli: images/choice_trial_9.png","","","",""
"html-keyboard-response","98","292981","0.0-42.0-2.0","","null","","null","delaylearn","learning","feedback_duration_window","6310b940e5a073466d04381f","UGUZQESoKfXHwB47iHZEbZ633vJ3","","","","","","","","","","","","","","","","","","7000","","",""
"html-keyboard-response","99","294484","0.0-42.0-3.0","","null","<div style='margin:auto;width: auto; font-size: 150%'><span style='font-weight: bold; font-size: 100px; color: red;'>0 points!</span><br><br></div>","null","delaylearn","learning","feedback_image_window","6310b940e5a073466d04381f","UGUZQESoKfXHwB47iHZEbZ633vJ3","","","","","","","","","","","","","","","","","","","","",""
"html-keyboard-response","100","296512","0.0-43.0","","null","<div style=""font-size:100px;"">+</div>","null","delaylearn","learning","ITI","6310b940e5a073466d04381f","UGUZQESoKfXHwB47iHZEbZ633vJ3","","","","","","","","","","","","","","","","","","","2025","",""
"html-keyboard-response","101","298462","0.0-44.0-0.0","","1948.3999999985099","<div style=""display: flex; flex-direction: column; align-items: center; margin-top: -40px;""><img src=""images/pattern_7.png"" style=""width: 234px; height: 230px; margin-top: -50px;""><div style=""display: flex; justify-content: space-between; margin-top: 33px;""><img src=""images/choice_trial_6.png"" style=""width: 408px; height: 417px; margin-right: 200px;""><img src=""images/choice_trial_12.png"" style=""width: 408px; height: 417px;""></div></div>","f","delaylearn","learning","trial","6310b940e5a073466d04381f","UGUZQESoKfXHwB47iHZEbZ633vJ3","3","images/choice_trial_6.png","images/choice_trial_12.png","images/pattern_7.png","j","f","750","6","12","6","0","19","1","0","6","80","","","","",""
"html-keyboard-response","102","299465","0.0-44.0-1.0","","null","<div style=""display: flex; flex-direction: column; align-items: center; margin-top: -40px;""><img src=""images/pattern_7.png"" style=""width: 234px; height: 230px; margin-top: -50px;""><div style=""display: flex; justify-content: space-between; margin-top: 33px;""><img src=""images/choice_trial_6.png"" style=""width: 408px; height: 417px; margin-right: 608px;""></div></div>","null","delaylearn","learning","display_response","6310b940e5a073466d04381f","UGUZQESoKfXHwB47iHZEbZ633vJ3","","","","","","","","","","","","","","","","","chosen stimuli: images/choice_trial_6.png","","","",""
"html-keyboard-response","103","300217","0.0-44.0-2.0","","null","","null","delaylearn","learning","feedback_duration_window","6310b940e5a073466d04381f","UGUZQESoKfXHwB47iHZEbZ633vJ3","","","","","","","","","","","","","","","","","","750","","",""
"html-keyboard-response","104","301720","0.0-44.0-3.0","","null","<div style='margin:auto;width: auto; font-size: 150%'><span style='font-weight: bold; font-size: 100px; color: red;'>0 points!</span><br><br></div>","null","delaylearn","learning","feedback_image_window","6310b940e5a073466d04381f","UGUZQESoKfXHwB47iHZEbZ633vJ3","","","","","","","","","","","","","","","","","","","","",""
"html-keyboard-response","105","303303","0.0-45.0","","null","<div style=""font-size:100px;"">+</div>","null","delaylearn","learning","ITI","6310b940e5a073466d04381f","UGUZQESoKfXHwB47iHZEbZ633vJ3","","","","","","","","","","","","","","","","","","","1580","",""
"html-keyboard-response","106","305874","0.0-46.0-0.0","","2568.89999999851","<div style=""display: flex; flex-direction: column; align-items: center; margin-top: -40px;""><img src=""images/pattern_1.png"" style=""width: 234px; height: 230px; margin-top: -50px;""><div style=""display: flex; justify-content: space-between; margin-top: 33px;""><img src=""images/choice_trial_14.png"" style=""width: 408px; height: 417px; margin-right: 200px;""><img src=""images/choice_trial_8.png"" style=""width: 408px; height: 417px;""></div></div>","j","delaylearn","learning","trial","6310b940e5a073466d04381f","UGUZQESoKfXHwB47iHZEbZ633vJ3","3","images/choice_trial_14.png","images/choice_trial_8.png","images/pattern_1.png","f","f","7000","14","8","1","0","20","0","0","8","80","","","","",""
"html-keyboard-response","107","306877","0.0-46.0-1.0","","null","<div style=""display: flex; flex-direction: column; align-items: center; margin-top: -40px;""><img src=""images/pattern_1.png"" style=""width: 234px; height: 230px; margin-top: -50px;""><div style=""display: flex; justify-content: space-between; margin-top: 33px;""><img src=""images/choice_trial_8.png"" style=""width: 408px; height: 417px; margin-left:608px;""></div></div>","null","delaylearn","learning","display_response","6310b940e5a073466d04381f","UGUZQESoKfXHwB47iHZEbZ633vJ3","","","","","","","","","","","","","","","","","chosen stimuli: images/choice_trial_8.png","","","",""
"html-keyboard-response","108","313880","0.0-46.0-2.0","","null","","null","delaylearn","learning","feedback_duration_window","6310b940e5a073466d04381f","UGUZQESoKfXHwB47iHZEbZ633vJ3","","","","","","","","","","","","","","","","","","7000","","",""
"html-keyboard-response","109","315383","0.0-46.0-3.0","","null","<div style='margin:auto;width: auto; font-size: 150%'><span style='font-weight: bold; font-size: 100px; color: red;'>0 points!</span><br><br></div>","null","delaylearn","learning","feedback_image_window","6310b940e5a073466d04381f","UGUZQESoKfXHwB47iHZEbZ633vJ3","","","","","","","","","","","","","","","","","","","","",""
"html-keyboard-response","110","317134","0.0-47.0","","null","<div style=""font-size:100px;"">+</div>","null","delaylearn","learning","ITI","6310b940e5a073466d04381f","UGUZQESoKfXHwB47iHZEbZ633vJ3","","","","","","","","","","","","","","","","","","","1749","",""
"html-keyboard-response","111","319797","0.0-48.0-0.0","","2660.2999999970198","<div style=""display: flex; flex-direction: column; align-items: center; margin-top: -40px;""><img src=""images/pattern_6.png"" style=""width: 234px; height: 230px; margin-top: -50px;""><div style=""display: flex; justify-content: space-between; margin-top: 33px;""><img src=""images/choice_trial_3.png"" style=""width: 408px; height: 417px; margin-right: 200px;""><img src=""images/choice_trial_16.png"" style=""width: 408px; height: 417px;""></div></div>","f","delaylearn","learning","trial","6310b940e5a073466d04381f","UGUZQESoKfXHwB47iHZEbZ633vJ3","3","images/choice_trial_3.png","images/choice_trial_16.png","images/pattern_6.png","j","j","750","3","16","5","1","21","0","0","3","80","","","","",""
"html-keyboard-response","112","320800","0.0-48.0-1.0","","null","<div style=""display: flex; flex-direction: column; align-items: center; margin-top: -40px;""><img src=""images/pattern_6.png"" style=""width: 234px; height: 230px; margin-top: -50px;""><div style=""display: flex; justify-content: space-between; margin-top: 33px;""><img src=""images/choice_trial_3.png"" style=""width: 408px; height: 417px; margin-right: 608px;""></div></div>","null","delaylearn","learning","display_response","6310b940e5a073466d04381f","UGUZQESoKfXHwB47iHZEbZ633vJ3","","","","","","","","","","","","","","","","","chosen stimuli: images/choice_trial_3.png","","","",""
"html-keyboard-response","113","321552","0.0-48.0-2.0","","null","","null","delaylearn","learning","feedback_duration_window","6310b940e5a073466d04381f","UGUZQESoKfXHwB47iHZEbZ633vJ3","","","","","","","","","","","","","","","","","","750","","",""
"html-keyboard-response","114","323055","0.0-48.0-3.0","","null","<div style='margin:auto;width: auto; font-size: 150%'><span style='font-weight: bold; font-size: 100px; color: red;'>0 points!</span><br><br></div>","null","delaylearn","learning","feedback_image_window","6310b940e5a073466d04381f","UGUZQESoKfXHwB47iHZEbZ633vJ3","","","","","","","","","","","","","","","","","","","","",""
"html-keyboard-response","115","324731","0.0-49.0","","null","<div style=""font-size:100px;"">+</div>","null","delaylearn","learning","ITI","6310b940e5a073466d04381f","UGUZQESoKfXHwB47iHZEbZ633vJ3","","","","","","","","","","","","","","","","","","","1673","",""
"html-keyboard-response","116","326611","0.0-50.0-0.0","","1878.5","<div style=""display: flex; flex-direction: column; align-items: center; margin-top: -40px;""><img src=""images/pattern_4.png"" style=""width: 234px; height: 230px; margin-top: -50px;""><div style=""display: flex; justify-content: space-between; margin-top: 33px;""><img src=""images/choice_trial_15.png"" style=""width: 408px; height: 417px; margin-right: 200px;""><img src=""images/choice_trial_9.png"" style=""width: 408px; height: 417px;""></div></div>","f","delaylearn","learning","trial","6310b940e5a073466d04381f","UGUZQESoKfXHwB47iHZEbZ633vJ3","3","images/choice_trial_15.png","images/choice_trial_9.png","images/pattern_4.png","f","f","7000","15","9","3","0","22","1","1","15","90","","","","",""
"html-keyboard-response","117","327614","0.0-50.0-1.0","","null","<div style=""display: flex; flex-direction: column; align-items: center; margin-top: -40px;""><img src=""images/pattern_4.png"" style=""width: 234px; height: 230px; margin-top: -50px;""><div style=""display: flex; justify-content: space-between; margin-top: 33px;""><img src=""images/choice_trial_15.png"" style=""width: 408px; height: 417px; margin-right: 608px;""></div></div>","null","delaylearn","learning","display_response","6310b940e5a073466d04381f","UGUZQESoKfXHwB47iHZEbZ633vJ3","","","","","","","","","","","","","","","","","chosen stimuli: images/choice_trial_15.png","","","",""
"html-keyboard-response","118","334617","0.0-50.0-2.0","","null","","null","delaylearn","learning","feedback_duration_window","6310b940e5a073466d04381f","UGUZQESoKfXHwB47iHZEbZ633vJ3","","","","","","","","","","","","","","","","","","7000","","",""
"html-keyboard-response","119","336120","0.0-50.0-3.0","","null","<div style='margin:auto;width: auto; font-size: 150%'><span style='font-weight: bold; font-size: 100px; color: green;'>+10 points!</span><br><br></div>","null","delaylearn","learning","feedback_image_window","6310b940e5a073466d04381f","UGUZQESoKfXHwB47iHZEbZ633vJ3","","","","","","","","","","","","","","","","","","","","",""
"html-keyboard-response","120","336621","0.0-51.0-0.0","","null","","null","","","mood_trial_fixation","","","","","","","","","","","","","","","","","","","","","","",""
"lmdlab-html-vas-response","121","340670","0.0-51.0-1.0","","3045","How happy are you right now?","0.3611111111111111","delaylearn","learning","mood_trial","6310b940e5a073466d04381f","UGUZQESoKfXHwB47iHZEbZ633vJ3","","","","","","","","","","","","","","","","","","","","[""Very unhappy"",""Very happy""]",""
"html-keyboard-response","122","342332","0.0-52.0","","null","<div style=""font-size:100px;"">+</div>","null","delaylearn","learning","ITI","6310b940e5a073466d04381f","UGUZQESoKfXHwB47iHZEbZ633vJ3","","","","","","","","","","","","","","","","","","","1660","",""
"html-keyboard-response","123","344671","0.0-53.0-0.0","","2336.7999999970198","<div style=""display: flex; flex-direction: column; align-items: center; margin-top: -40px;""><img src=""images/pattern_7.png"" style=""width: 234px; height: 230px; margin-top: -50px;""><div style=""display: flex; justify-content: space-between; margin-top: 33px;""><img src=""images/choice_trial_12.png"" style=""width: 408px; height: 417px; margin-right: 200px;""><img src=""images/choice_trial_6.png"" style=""width: 408px; height: 417px;""></div></div>","f","delaylearn","learning","trial","6310b940e5a073466d04381f","UGUZQESoKfXHwB47iHZEbZ633vJ3","3","images/choice_trial_12.png","images/choice_trial_6.png","images/pattern_7.png","j","j","750","12","6","6","1","23","0","0","12","90","","","","",""
"html-keyboard-response","124","345672","0.0-53.0-1.0","","null","<div style=""display: flex; flex-direction: column; align-items: center; margin-top: -40px;""><img src=""images/pattern_7.png"" style=""width: 234px; height: 230px; margin-top: -50px;""><div style=""display: flex; justify-content: space-between; margin-top: 33px;""><img src=""images/choice_trial_12.png"" style=""width: 408px; height: 417px; margin-right: 608px;""></div></div>","null","delaylearn","learning","display_response","6310b940e5a073466d04381f","UGUZQESoKfXHwB47iHZEbZ633vJ3","","","","","","","","","","","","","","","","","chosen stimuli: images/choice_trial_12.png","","","",""
"html-keyboard-response","125","346425","0.0-53.0-2.0","","null","","null","delaylearn","learning","feedback_duration_window","6310b940e5a073466d04381f","UGUZQESoKfXHwB47iHZEbZ633vJ3","","","","","","","","","","","","","","","","","","750","","",""
"html-keyboard-response","126","347927","0.0-53.0-3.0","","null","<div style='margin:auto;width: auto; font-size: 150%'><span style='font-weight: bold; font-size: 100px; color: red;'>0 points!</span><br><br></div>","null","delaylearn","learning","feedback_image_window","6310b940e5a073466d04381f","UGUZQESoKfXHwB47iHZEbZ633vJ3","","","","","","","","","","","","","","","","","","","","",""
"html-keyboard-response","127","350333","0.0-54.0","","null","<div style=""font-size:100px;"">+</div>","null","delaylearn","learning","ITI","6310b940e5a073466d04381f","UGUZQESoKfXHwB47iHZEbZ633vJ3","","","","","","","","","","","","","","","","","","","2404","",""
"html-keyboard-response","128","353338","0.0-55.0-0.0","","null","<div style=""display: flex; flex-direction: column; align-items: center; margin-top: -40px;""><img src=""images/pattern_1.png"" style=""width: 234px; height: 230px; margin-top: -50px;""><div style=""display: flex; justify-content: space-between; margin-top: 33px;""><img src=""images/choice_trial_8.png"" style=""width: 408px; height: 417px; margin-right: 200px;""><img src=""images/choice_trial_14.png"" style=""width: 408px; height: 417px;""></div></div>","null","delaylearn","learning","trial","6310b940e5a073466d04381f","UGUZQESoKfXHwB47iHZEbZ633vJ3","3","images/choice_trial_8.png","images/choice_trial_14.png","images/pattern_1.png","f","j","7000","8","14","1","1","24","0","0","0","90","","","","",""
"html-keyboard-response","129","354340","0.0-55.0-1.0","","null","<div style='font-weight: bold; font-size: 75px; color: red;'>Missed Trial <br><br><br><br> Please respond faster</div>","null","delaylearn","learning","display_response","6310b940e5a073466d04381f","UGUZQESoKfXHwB47iHZEbZ633vJ3","","","","","","","","","","","","","","","","","Missed trial","","","",""
"html-keyboard-response","130","354346","0.0-55.0-2.0","","null","","null","delaylearn","learning","feedback_duration_window","6310b940e5a073466d04381f","UGUZQESoKfXHwB47iHZEbZ633vJ3","","","","","","","","","","","","","","","","","","0","","",""
"html-keyboard-response","131","354351","0.0-55.0-3.0","","null","","null","delaylearn","learning","feedback_image_window","6310b940e5a073466d04381f","UGUZQESoKfXHwB47iHZEbZ633vJ3","","","","","","","","","","","","","","","","","","","","",""
"html-keyboard-response","132","356091","0.0-56.0","","null","<div style=""font-size:100px;"">+</div>","null","delaylearn","learning","ITI","6310b940e5a073466d04381f","UGUZQESoKfXHwB47iHZEbZ633vJ3","","","","","","","","","","","","","","","","","","","1737","",""
"html-keyboard-response","133","357456","0.0-57.0-0.0","","1363.1000000014901","<div style=""display: flex; flex-direction: column; align-items: center; margin-top: -40px;""><img src=""images/pattern_5.png"" style=""width: 234px; height: 230px; margin-top: -50px;""><div style=""display: flex; justify-content: space-between; margin-top: 33px;""><img src=""images/choice_trial_2.png"" style=""width: 408px; height: 417px; margin-right: 200px;""><img src=""images/choice_trial_11.png"" style=""width: 408px; height: 417px;""></div></div>","f","delaylearn","learning","trial","6310b940e5a073466d04381f","UGUZQESoKfXHwB47iHZEbZ633vJ3","3","images/choice_trial_2.png","images/choice_trial_11.png","images/pattern_5.png","j","j","750","2","11","4","1","25","0","0","2","90","","","","",""
"html-keyboard-response","134","358460","0.0-57.0-1.0","","null","<div style=""display: flex; flex-direction: column; align-items: center; margin-top: -40px;""><img src=""images/pattern_5.png"" style=""width: 234px; height: 230px; margin-top: -50px;""><div style=""display: flex; justify-content: space-between; margin-top: 33px;""><img src=""images/choice_trial_2.png"" style=""width: 408px; height: 417px; margin-right: 608px;""></div></div>","null","delaylearn","learning","display_response","6310b940e5a073466d04381f","UGUZQESoKfXHwB47iHZEbZ633vJ3","","","","","","","","","","","","","","","","","chosen stimuli: images/choice_trial_2.png","","","",""
"html-keyboard-response","135","359213","0.0-57.0-2.0","","null","","null","delaylearn","learning","feedback_duration_window","6310b940e5a073466d04381f","UGUZQESoKfXHwB47iHZEbZ633vJ3","","","","","","","","","","","","","","","","","","750","","",""
"html-keyboard-response","136","360715","0.0-57.0-3.0","","null","<div style='margin:auto;width: auto; font-size: 150%'><span style='font-weight: bold; font-size: 100px; color: red;'>0 points!</span><br><br></div>","null","delaylearn","learning","feedback_image_window","6310b940e5a073466d04381f","UGUZQESoKfXHwB47iHZEbZ633vJ3","","","","","","","","","","","","","","","","","","","","",""
"html-keyboard-response","137","362739","0.0-58.0","","null","<div style=""font-size:100px;"">+</div>","null","delaylearn","learning","ITI","6310b940e5a073466d04381f","UGUZQESoKfXHwB47iHZEbZ633vJ3","","","","","","","","","","","","","","","","","","","2022","",""
"html-keyboard-response","138","364680","0.0-59.0-0.0","","1938.6000000014901","<div style=""display: flex; flex-direction: column; align-items: center; margin-top: -40px;""><img src=""images/pattern_3.png"" style=""width: 234px; height: 230px; margin-top: -50px;""><div style=""display: flex; justify-content: space-between; margin-top: 33px;""><img src=""images/choice_trial_10.png"" style=""width: 408px; height: 417px; margin-right: 200px;""><img src=""images/choice_trial_13.png"" style=""width: 408px; height: 417px;""></div></div>","f","delaylearn","learning","trial","6310b940e5a073466d04381f","UGUZQESoKfXHwB47iHZEbZ633vJ3","3","images/choice_trial_10.png","images/choice_trial_13.png","images/pattern_3.png","j","j","7000","10","13","2","1","26","0","0","10","90","","","","",""
"html-keyboard-response","139","365683","0.0-59.0-1.0","","null","<div style=""display: flex; flex-direction: column; align-items: center; margin-top: -40px;""><img src=""images/pattern_3.png"" style=""width: 234px; height: 230px; margin-top: -50px;""><div style=""display: flex; justify-content: space-between; margin-top: 33px;""><img src=""images/choice_trial_10.png"" style=""width: 408px; height: 417px; margin-right: 608px;""></div></div>","null","delaylearn","learning","display_response","6310b940e5a073466d04381f","UGUZQESoKfXHwB47iHZEbZ633vJ3","","","","","","","","","","","","","","","","","chosen stimuli: images/choice_trial_10.png","","","",""
"html-keyboard-response","140","372686","0.0-59.0-2.0","","null","","null","delaylearn","learning","feedback_duration_window","6310b940e5a073466d04381f","UGUZQESoKfXHwB47iHZEbZ633vJ3","","","","","","","","","","","","","","","","","","7000","","",""
"html-keyboard-response","141","374189","0.0-59.0-3.0","","null","<div style='margin:auto;width: auto; font-size: 150%'><span style='font-weight: bold; font-size: 100px; color: red;'>0 points!</span><br><br></div>","null","delaylearn","learning","feedback_image_window","6310b940e5a073466d04381f","UGUZQESoKfXHwB47iHZEbZ633vJ3","","","","","","","","","","","","","","","","","","","","",""
"lmdlab-html-vas-response","142","381260","0.0-60.0-0.0","","5562","*How <b><u>confident</u></b> are you feeling about your answers at this moment?*","0.14629629629629629","rewlearn","rate_confidence","","6310b940e5a073466d04381f","UGUZQESoKfXHwB47iHZEbZ633vJ3","","","","","","","","","","","","","","","","","","","","[""No confidence"",""Complete confidence""]",""
"lmdlab-rest-trial-limit","143","557124","0.0-60.0-1.0","","174357.80000000447","<div style=""font-size:40px;""><b>Please take a break!</b><br><br><br><br><p>Great work: you earned 90 points.<br><br><br><p>You have completed part(s) 1 of 5.<br><br><br><br>When you are ready to continue<br><br><br>please click the button.</p><br><br>","0","delaylearn","learning","break","6310b940e5a073466d04381f","UGUZQESoKfXHwB47iHZEbZ633vJ3","","","","","","","","","","","","","","","","","","","","","0"
"html-keyboard-response","144","560127","0.0-60.0-2.0","","null","<div style=""font-size:100px;"">+</div>","null","delaylearn","learning","pre_fixation","6310b940e5a073466d04381f","","","","","","","","","","","","","","","","","","","","","",""
"lmdlab-html-vas-response","145","563745","0.0-60.0-3.0-0.0","","2613","How happy are you right now?","0.0962962962962963","delaylearn","learning","mood_baseline","6310b940e5a073466d04381f","UGUZQESoKfXHwB47iHZEbZ633vJ3","","","","","","","","","","","","","","","","","","","","[""Very unhappy"",""Very happy""]",""
"html-keyboard-response","146","565248","0.0-60.0-3.0-1.0","","null","","null","","","mood_baseline_fixation","","","","","","","","","","","","","","","","","","","","","","",""
"html-keyboard-response","147","567525","0.0-61.0","","null","<div style=""font-size:100px;"">+</div>","null","delaylearn","learning","ITI","6310b940e5a073466d04381f","UGUZQESoKfXHwB47iHZEbZ633vJ3","","","","","","","","","","","","","","","","","","","2274","",""
"html-keyboard-response","148","569391","0.0-62.0-0.0","","1863.7000000029802","<div style=""display: flex; flex-direction: column; align-items: center; margin-top: -40px;""><img src=""images/pattern_7.png"" style=""width: 234px; height: 230px; margin-top: -50px;""><div style=""display: flex; justify-content: space-between; margin-top: 33px;""><img src=""images/choice_trial_12.png"" style=""width: 408px; height: 417px; margin-right: 200px;""><img src=""images/choice_trial_6.png"" style=""width: 408px; height: 417px;""></div></div>","j","delaylearn","learning","trial","6310b940e5a073466d04381f","UGUZQESoKfXHwB47iHZEbZ633vJ3","3","images/choice_trial_12.png","images/choice_trial_6.png","images/pattern_7.png","j","j","750","12","6","6","1","27","1","1","6","100","","","","",""
"html-keyboard-response","149","570394","0.0-62.0-1.0","","null","<div style=""display: flex; flex-direction: column; align-items: center; margin-top: -40px;""><img src=""images/pattern_7.png"" style=""width: 234px; height: 230px; margin-top: -50px;""><div style=""display: flex; justify-content: space-between; margin-top: 33px;""><img src=""images/choice_trial_6.png"" style=""width: 408px; height: 417px; margin-left:608px;""></div></div>","null","delaylearn","learning","display_response","6310b940e5a073466d04381f","UGUZQESoKfXHwB47iHZEbZ633vJ3","","","","","","","","","","","","","","","","","chosen stimuli: images/choice_trial_6.png","","","",""
"html-keyboard-response","150","571147","0.0-62.0-2.0","","null","","null","delaylearn","learning","feedback_duration_window","6310b940e5a073466d04381f","UGUZQESoKfXHwB47iHZEbZ633vJ3","","","","","","","","","","","","","","","","","","750","","",""
"html-keyboard-response","151","572650","0.0-62.0-3.0","","null","<div style='margin:auto;width: auto; font-size: 150%'><span style='font-weight: bold; font-size: 100px; color: green;'>+10 points!</span><br><br></div>","null","delaylearn","learning","feedback_image_window","6310b940e5a073466d04381f","UGUZQESoKfXHwB47iHZEbZ633vJ3","","","","","","","","","","","","","","","","","","","","",""
"html-keyboard-response","152","573152","0.0-63.0-0.0","","null","","null","","","mood_trial_fixation","","","","","","","","","","","","","","","","","","","","","","",""
"lmdlab-html-vas-response","153","577397","0.0-63.0-1.0","","3241","How happy are you right now?","0.1648148148148148","delaylearn","learning","mood_trial","6310b940e5a073466d04381f","UGUZQESoKfXHwB47iHZEbZ633vJ3","","","","","","","","","","","","","","","","","","","","[""Very unhappy"",""Very happy""]",""
"html-keyboard-response","154","579552","0.0-64.0","","null","<div style=""font-size:100px;"">+</div>","null","delaylearn","learning","ITI","6310b940e5a073466d04381f","UGUZQESoKfXHwB47iHZEbZ633vJ3","","","","","","","","","","","","","","","","","","","2152","",""
"html-keyboard-response","155","581082","0.0-65.0-0.0","","1527.5999999940395","<div style=""display: flex; flex-direction: column; align-items: center; margin-top: -40px;""><img src=""images/pattern_1.png"" style=""width: 234px; height: 230px; margin-top: -50px;""><div style=""display: flex; justify-content: space-between; margin-top: 33px;""><img src=""images/choice_trial_14.png"" style=""width: 408px; height: 417px; margin-right: 200px;""><img src=""images/choice_trial_8.png"" style=""width: 408px; height: 417px;""></div></div>","f","delaylearn","learning","trial","6310b940e5a073466d04381f","UGUZQESoKfXHwB47iHZEbZ633vJ3","3","images/choice_trial_14.png","images/choice_trial_8.png","images/pattern_1.png","f","f","7000","14","8","1","0","28","1","1","14","110","","","","",""
"html-keyboard-response","156","582085","0.0-65.0-1.0","","null","<div style=""display: flex; flex-direction: column; align-items: center; margin-top: -40px;""><img src=""images/pattern_1.png"" style=""width: 234px; height: 230px; margin-top: -50px;""><div style=""display: flex; justify-content: space-between; margin-top: 33px;""><img src=""images/choice_trial_14.png"" style=""width: 408px; height: 417px; margin-right: 608px;""></div></div>","null","delaylearn","learning","display_response","6310b940e5a073466d04381f","UGUZQESoKfXHwB47iHZEbZ633vJ3","","","","","","","","","","","","","","","","","chosen stimuli: images/choice_trial_14.png","","","",""
"html-keyboard-response","157","589088","0.0-65.0-2.0","","null","","null","delaylearn","learning","feedback_duration_window","6310b940e5a073466d04381f","UGUZQESoKfXHwB47iHZEbZ633vJ3","","","","","","","","","","","","","","","","","","7000","","",""
"html-keyboard-response","158","590591","0.0-65.0-3.0","","null","<div style='margin:auto;width: auto; font-size: 150%'><span style='font-weight: bold; font-size: 100px; color: green;'>+10 points!</span><br><br></div>","null","delaylearn","learning","feedback_image_window","6310b940e5a073466d04381f","UGUZQESoKfXHwB47iHZEbZ633vJ3","","","","","","","","","","","","","","","","","","","","",""
"html-keyboard-response","159","592756","0.0-66.0","","null","<div style=""font-size:100px;"">+</div>","null","delaylearn","learning","ITI","6310b940e5a073466d04381f","UGUZQESoKfXHwB47iHZEbZ633vJ3","","","","","","","","","","","","","","","","","","","2162","",""
"html-keyboard-response","160","594450","0.0-67.0-0.0","","1691.6000000014901","<div style=""display: flex; flex-direction: column; align-items: center; margin-top: -40px;""><img src=""images/pattern_5.png"" style=""width: 234px; height: 230px; margin-top: -50px;""><div style=""display: flex; justify-content: space-between; margin-top: 33px;""><img src=""images/choice_trial_11.png"" style=""width: 408px; height: 417px; margin-right: 200px;""><img src=""images/choice_trial_2.png"" style=""width: 408px; height: 417px;""></div></div>","j","delaylearn","learning","trial","6310b940e5a073466d04381f","UGUZQESoKfXHwB47iHZEbZ633vJ3","3","images/choice_trial_11.png","images/choice_trial_2.png","images/pattern_5.png","f","f","750","11","2","4","0","29","0","0","2","110","","","","",""
"html-keyboard-response","161","595453","0.0-67.0-1.0","","null","<div style=""display: flex; flex-direction: column; align-items: center; margin-top: -40px;""><img src=""images/pattern_5.png"" style=""width: 234px; height: 230px; margin-top: -50px;""><div style=""display: flex; justify-content: space-between; margin-top: 33px;""><img src=""images/choice_trial_2.png"" style=""width: 408px; height: 417px; margin-left:608px;""></div></div>","null","delaylearn","learning","display_response","6310b940e5a073466d04381f","UGUZQESoKfXHwB47iHZEbZ633vJ3","","","","","","","","","","","","","","","","","chosen stimuli: images/choice_trial_2.png","","","",""
"html-keyboard-response","162","596205","0.0-67.0-2.0","","null","","null","delaylearn","learning","feedback_duration_window","6310b940e5a073466d04381f","UGUZQESoKfXHwB47iHZEbZ633vJ3","","","","","","","","","","","","","","","","","","750","","",""
"html-keyboard-response","163","597708","0.0-67.0-3.0","","null","<div style='margin:auto;width: auto; font-size: 150%'><span style='font-weight: bold; font-size: 100px; color: red;'>0 points!</span><br><br></div>","null","delaylearn","learning","feedback_image_window","6310b940e5a073466d04381f","UGUZQESoKfXHwB47iHZEbZ633vJ3","","","","","","","","","","","","","","","","","","","","",""
"html-keyboard-response","164","599620","0.0-68.0","","null","<div style=""font-size:100px;"">+</div>","null","delaylearn","learning","ITI","6310b940e5a073466d04381f","UGUZQESoKfXHwB47iHZEbZ633vJ3","","","","","","","","","","","","","","","","","","","1909","",""
"html-keyboard-response","165","601758","0.0-69.0-0.0","","2136.2000000029802","<div style=""display: flex; flex-direction: column; align-items: center; margin-top: -40px;""><img src=""images/pattern_6.png"" style=""width: 234px; height: 230px; margin-top: -50px;""><div style=""display: flex; justify-content: space-between; margin-top: 33px;""><img src=""images/choice_trial_3.png"" style=""width: 408px; height: 417px; margin-right: 200px;""><img src=""images/choice_trial_16.png"" style=""width: 408px; height: 417px;""></div></div>","j","delaylearn","learning","trial","6310b940e5a073466d04381f","UGUZQESoKfXHwB47iHZEbZ633vJ3","3","images/choice_trial_3.png","images/choice_trial_16.png","images/pattern_6.png","j","j","750","3","16","5","1","30","1","1","16","120","","","","",""
"html-keyboard-response","166","602762","0.0-69.0-1.0","","null","<div style=""display: flex; flex-direction: column; align-items: center; margin-top: -40px;""><img src=""images/pattern_6.png"" style=""width: 234px; height: 230px; margin-top: -50px;""><div style=""display: flex; justify-content: space-between; margin-top: 33px;""><img src=""images/choice_trial_16.png"" style=""width: 408px; height: 417px; margin-left:608px;""></div></div>","null","delaylearn","learning","display_response","6310b940e5a073466d04381f","UGUZQESoKfXHwB47iHZEbZ633vJ3","","","","","","","","","","","","","","","","","chosen stimuli: images/choice_trial_16.png","","","",""
"html-keyboard-response","167","603515","0.0-69.0-2.0","","null","","null","delaylearn","learning","feedback_duration_window","6310b940e5a073466d04381f","UGUZQESoKfXHwB47iHZEbZ633vJ3","","","","","","","","","","","","","","","","","","750","","",""
"html-keyboard-response","168","605018","0.0-69.0-3.0","","null","<div style='margin:auto;width: auto; font-size: 150%'><span style='font-weight: bold; font-size: 100px; color: green;'>+10 points!</span><br><br></div>","null","delaylearn","learning","feedback_image_window","6310b940e5a073466d04381f","UGUZQESoKfXHwB47iHZEbZ633vJ3","","","","","","","","","","","","","","","","","","","","",""
"html-keyboard-response","169","605521","0.0-70.0-0.0","","null","","null","","","mood_trial_fixation","","","","","","","","","","","","","","","","","","","","","","",""
"lmdlab-html-vas-response","170","609695","0.0-70.0-1.0","","3170","How happy are you right now?","0.12962962962962962","delaylearn","learning","mood_trial","6310b940e5a073466d04381f","UGUZQESoKfXHwB47iHZEbZ633vJ3","","","","","","","","","","","","","","","","","","","","[""Very unhappy"",""Very happy""]",""
"html-keyboard-response","171","611242","0.0-71.0","","null","<div style=""font-size:100px;"">+</div>","null","delaylearn","learning","ITI","6310b940e5a073466d04381f","UGUZQESoKfXHwB47iHZEbZ633vJ3","","","","","","","","","","","","","","","","","","","1544","",""
"html-keyboard-response","172","612787","0.0-72.0-0.0","","1542.7999999970198","<div style=""display: flex; flex-direction: column; align-items: center; margin-top: -40px;""><img src=""images/pattern_4.png"" style=""width: 234px; height: 230px; margin-top: -50px;""><div style=""display: flex; justify-content: space-between; margin-top: 33px;""><img src=""images/choice_trial_9.png"" style=""width: 408px; height: 417px; margin-right: 200px;""><img src=""images/choice_trial_15.png"" style=""width: 408px; height: 417px;""></div></div>","j","delaylearn","learning","trial","6310b940e5a073466d04381f","UGUZQESoKfXHwB47iHZEbZ633vJ3","3","images/choice_trial_9.png","images/choice_trial_15.png","images/pattern_4.png","j","j","7000","9","15","3","1","31","1","1","15","130","","","","",""
"html-keyboard-response","173","613790","0.0-72.0-1.0","","null","<div style=""display: flex; flex-direction: column; align-items: center; margin-top: -40px;""><img src=""images/pattern_4.png"" style=""width: 234px; height: 230px; margin-top: -50px;""><div style=""display: flex; justify-content: space-between; margin-top: 33px;""><img src=""images/choice_trial_15.png"" style=""width: 408px; height: 417px; margin-left:608px;""></div></div>","null","delaylearn","learning","display_response","6310b940e5a073466d04381f","UGUZQESoKfXHwB47iHZEbZ633vJ3","","","","","","","","","","","","","","","","","chosen stimuli: images/choice_trial_15.png","","","",""
"html-keyboard-response","174","620792","0.0-72.0-2.0","","null","","null","delaylearn","learning","feedback_duration_window","6310b940e5a073466d04381f","UGUZQESoKfXHwB47iHZEbZ633vJ3","","","","","","","","","","","","","","","","","","7000","","",""
"html-keyboard-response","175","622295","0.0-72.0-3.0","","null","<div style='margin:auto;width: auto; font-size: 150%'><span style='font-weight: bold; font-size: 100px; color: green;'>+10 points!</span><br><br></div>","null","delaylearn","learning","feedback_image_window","6310b940e5a073466d04381f","UGUZQESoKfXHwB47iHZEbZ633vJ3","","","","","","","","","","","","","","","","","","","","",""
"html-keyboard-response","176","624078","0.0-73.0","","null","<div style=""font-size:100px;"">+</div>","null","delaylearn","learning","ITI","6310b940e5a073466d04381f","UGUZQESoKfXHwB47iHZEbZ633vJ3","","","","","","","","","","","","","","","","","","","1780","",""
"html-keyboard-response","177","625999","0.0-74.0-0.0","","1918.6000000014901","<div style=""display: flex; flex-direction: column; align-items: center; margin-top: -40px;""><img src=""images/pattern_3.png"" style=""width: 234px; height: 230px; margin-top: -50px;""><div style=""display: flex; justify-content: space-between; margin-top: 33px;""><img src=""images/choice_trial_10.png"" style=""width: 408px; height: 417px; margin-right: 200px;""><img src=""images/choice_trial_13.png"" style=""width: 408px; height: 417px;""></div></div>","f","delaylearn","learning","trial","6310b940e5a073466d04381f","UGUZQESoKfXHwB47iHZEbZ633vJ3","3","images/choice_trial_10.png","images/choice_trial_13.png","images/pattern_3.png","j","j","7000","10","13","2","1","32","0","0","10","130","","","","",""
"html-keyboard-response","178","627002","0.0-74.0-1.0","","null","<div style=""display: flex; flex-direction: column; align-items: center; margin-top: -40px;""><img src=""images/pattern_3.png"" style=""width: 234px; height: 230px; margin-top: -50px;""><div style=""display: flex; justify-content: space-between; margin-top: 33px;""><img src=""images/choice_trial_10.png"" style=""width: 408px; height: 417px; margin-right: 608px;""></div></div>","null","delaylearn","learning","display_response","6310b940e5a073466d04381f","UGUZQESoKfXHwB47iHZEbZ633vJ3","","","","","","","","","","","","","","","","","chosen stimuli: images/choice_trial_10.png","","","",""
"html-keyboard-response","179","634005","0.0-74.0-2.0","","null","","null","delaylearn","learning","feedback_duration_window","6310b940e5a073466d04381f","UGUZQESoKfXHwB47iHZEbZ633vJ3","","","","","","","","","","","","","","","","","","7000","","",""
"html-keyboard-response","180","635508","0.0-74.0-3.0","","null","<div style='margin:auto;width: auto; font-size: 150%'><span style='font-weight: bold; font-size: 100px; color: red;'>0 points!</span><br><br></div>","null","delaylearn","learning","feedback_image_window","6310b940e5a073466d04381f","UGUZQESoKfXHwB47iHZEbZ633vJ3","","","","","","","","","","","","","","","","","","","","",""
"html-keyboard-response","181","637836","0.0-75.0","","null","<div style=""font-size:100px;"">+</div>","null","delaylearn","learning","ITI","6310b940e5a073466d04381f","UGUZQESoKfXHwB47iHZEbZ633vJ3","","","","","","","","","","","","","","","","","","","2325","",""
"html-keyboard-response","182","640134","0.0-76.0-0.0","","2296.2000000029802","<div style=""display: flex; flex-direction: column; align-items: center; margin-top: -40px;""><img src=""images/pattern_5.png"" style=""width: 234px; height: 230px; margin-top: -50px;""><div style=""display: flex; justify-content: space-between; margin-top: 33px;""><img src=""images/choice_trial_11.png"" style=""width: 408px; height: 417px; margin-right: 200px;""><img src=""images/choice_trial_2.png"" style=""width: 408px; height: 417px;""></div></div>","j","delaylearn","learning","trial","6310b940e5a073466d04381f","UGUZQESoKfXHwB47iHZEbZ633vJ3","3","images/choice_trial_11.png","images/choice_trial_2.png","images/pattern_5.png","j","f","750","11","2","4","0","33","0","1","2","140","","","","",""
"html-keyboard-response","183","641137","0.0-76.0-1.0","","null","<div style=""display: flex; flex-direction: column; align-items: center; margin-top: -40px;""><img src=""images/pattern_5.png"" style=""width: 234px; height: 230px; margin-top: -50px;""><div style=""display: flex; justify-content: space-between; margin-top: 33px;""><img src=""images/choice_trial_2.png"" style=""width: 408px; height: 417px; margin-left:608px;""></div></div>","null","delaylearn","learning","display_response","6310b940e5a073466d04381f","UGUZQESoKfXHwB47iHZEbZ633vJ3","","","","","","","","","","","","","","","","","chosen stimuli: images/choice_trial_2.png","","","",""
"html-keyboard-response","184","641890","0.0-76.0-2.0","","null","","null","delaylearn","learning","feedback_duration_window","6310b940e5a073466d04381f","UGUZQESoKfXHwB47iHZEbZ633vJ3","","","","","","","","","","","","","","","","","","750","","",""
"html-keyboard-response","185","643393","0.0-76.0-3.0","","null","<div style='margin:auto;width: auto; font-size: 150%'><span style='font-weight: bold; font-size: 100px; color: green;'>+10 points!</span><br><br></div>","null","delaylearn","learning","feedback_image_window","6310b940e5a073466d04381f","UGUZQESoKfXHwB47iHZEbZ633vJ3","","","","","","","","","","","","","","","","","","","","",""
"html-keyboard-response","186","644917","0.0-77.0","","null","<div style=""font-size:100px;"">+</div>","null","delaylearn","learning","ITI","6310b940e5a073466d04381f","UGUZQESoKfXHwB47iHZEbZ633vJ3","","","","","","","","","","","","","","","","","","","1522","",""
"html-keyboard-response","187","646315","0.0-78.0-0.0","","1395.1000000014901","<div style=""display: flex; flex-direction: column; align-items: center; margin-top: -40px;""><img src=""images/pattern_1.png"" style=""width: 234px; height: 230px; margin-top: -50px;""><div style=""display: flex; justify-content: space-between; margin-top: 33px;""><img src=""images/choice_trial_14.png"" style=""width: 408px; height: 417px; margin-right: 200px;""><img src=""images/choice_trial_8.png"" style=""width: 408px; height: 417px;""></div></div>","f","delaylearn","learning","trial","6310b940e5a073466d04381f","UGUZQESoKfXHwB47iHZEbZ633vJ3","3","images/choice_trial_14.png","images/choice_trial_8.png","images/pattern_1.png","f","f","7000","14","8","1","0","34","1","1","14","150","","","","",""
"html-keyboard-response","188","647318","0.0-78.0-1.0","","null","<div style=""display: flex; flex-direction: column; align-items: center; margin-top: -40px;""><img src=""images/pattern_1.png"" style=""width: 234px; height: 230px; margin-top: -50px;""><div style=""display: flex; justify-content: space-between; margin-top: 33px;""><img src=""images/choice_trial_14.png"" style=""width: 408px; height: 417px; margin-right: 608px;""></div></div>","null","delaylearn","learning","display_response","6310b940e5a073466d04381f","UGUZQESoKfXHwB47iHZEbZ633vJ3","","","","","","","","","","","","","","","","","chosen stimuli: images/choice_trial_14.png","","","",""
"html-keyboard-response","189","654321","0.0-78.0-2.0","","null","","null","delaylearn","learning","feedback_duration_window","6310b940e5a073466d04381f","UGUZQESoKfXHwB47iHZEbZ633vJ3","","","","","","","","","","","","","","","","","","7000","","",""
"html-keyboard-response","190","655824","0.0-78.0-3.0","","null","<div style='margin:auto;width: auto; font-size: 150%'><span style='font-weight: bold; font-size: 100px; color: green;'>+10 points!</span><br><br></div>","null","delaylearn","learning","feedback_image_window","6310b940e5a073466d04381f","UGUZQESoKfXHwB47iHZEbZ633vJ3","","","","","","","","","","","","","","","","","","","","",""
"html-keyboard-response","191","656327","0.0-79.0-0.0","","null","","null","","","mood_trial_fixation","","","","","","","","","","","","","","","","","","","","","","",""
"lmdlab-html-vas-response","192","659893","0.0-79.0-1.0","","2562","How happy are you right now?","0.17222222222222222","delaylearn","learning","mood_trial","6310b940e5a073466d04381f","UGUZQESoKfXHwB47iHZEbZ633vJ3","","","","","","","","","","","","","","","","","","","","[""Very unhappy"",""Very happy""]",""
"html-keyboard-response","193","661766","0.0-80.0","","null","<div style=""font-size:100px;"">+</div>","null","delaylearn","learning","ITI","6310b940e5a073466d04381f","UGUZQESoKfXHwB47iHZEbZ633vJ3","","","","","","","","","","","","","","","","","","","1871","",""
"html-keyboard-response","194","663095","0.0-81.0-0.0","","1327","<div style=""display: flex; flex-direction: column; align-items: center; margin-top: -40px;""><img src=""images/pattern_6.png"" style=""width: 234px; height: 230px; margin-top: -50px;""><div style=""display: flex; justify-content: space-between; margin-top: 33px;""><img src=""images/choice_trial_16.png"" style=""width: 408px; height: 417px; margin-right: 200px;""><img src=""images/choice_trial_3.png"" style=""width: 408px; height: 417px;""></div></div>","j","delaylearn","learning","trial","6310b940e5a073466d04381f","UGUZQESoKfXHwB47iHZEbZ633vJ3","3","images/choice_trial_16.png","images/choice_trial_3.png","images/pattern_6.png","j","f","750","16","3","5","0","35","0","1","3","160","","","","",""
"html-keyboard-response","195","664098","0.0-81.0-1.0","","null","<div style=""display: flex; flex-direction: column; align-items: center; margin-top: -40px;""><img src=""images/pattern_6.png"" style=""width: 234px; height: 230px; margin-top: -50px;""><div style=""display: flex; justify-content: space-between; margin-top: 33px;""><img src=""images/choice_trial_3.png"" style=""width: 408px; height: 417px; margin-left:608px;""></div></div>","null","delaylearn","learning","display_response","6310b940e5a073466d04381f","UGUZQESoKfXHwB47iHZEbZ633vJ3","","","","","","","","","","","","","","","","","chosen stimuli: images/choice_trial_3.png","","","",""
"html-keyboard-response","196","664850","0.0-81.0-2.0","","null","","null","delaylearn","learning","feedback_duration_window","6310b940e5a073466d04381f","UGUZQESoKfXHwB47iHZEbZ633vJ3","","","","","","","","","","","","","","","","","","750","","",""
"html-keyboard-response","197","666353","0.0-81.0-3.0","","null","<div style='margin:auto;width: auto; font-size: 150%'><span style='font-weight: bold; font-size: 100px; color: green;'>+10 points!</span><br><br></div>","null","delaylearn","learning","feedback_image_window","6310b940e5a073466d04381f","UGUZQESoKfXHwB47iHZEbZ633vJ3","","","","","","","","","","","","","","","","","","","","",""
"html-keyboard-response","198","668517","0.0-82.0","","null","<div style=""font-size:100px;"">+</div>","null","delaylearn","learning","ITI","6310b940e5a073466d04381f","UGUZQESoKfXHwB47iHZEbZ633vJ3","","","","","","","","","","","","","","","","","","","2162","",""
"html-keyboard-response","199","669744","0.0-83.0-0.0","","1224","<div style=""display: flex; flex-direction: column; align-items: center; margin-top: -40px;""><img src=""images/pattern_3.png"" style=""width: 234px; height: 230px; margin-top: -50px;""><div style=""display: flex; justify-content: space-between; margin-top: 33px;""><img src=""images/choice_trial_10.png"" style=""width: 408px; height: 417px; margin-right: 200px;""><img src=""images/choice_trial_13.png"" style=""width: 408px; height: 417px;""></div></div>","j","delaylearn","learning","trial","6310b940e5a073466d04381f","UGUZQESoKfXHwB47iHZEbZ633vJ3","3","images/choice_trial_10.png","images/choice_trial_13.png","images/pattern_3.png","j","j","7000","10","13","2","1","36","1","1","13","170","","","","",""
"html-keyboard-response","200","670747","0.0-83.0-1.0","","null","<div style=""display: flex; flex-direction: column; align-items: center; margin-top: -40px;""><img src=""images/pattern_3.png"" style=""width: 234px; height: 230px; margin-top: -50px;""><div style=""display: flex; justify-content: space-between; margin-top: 33px;""><img src=""images/choice_trial_13.png"" style=""width: 408px; height: 417px; margin-left:608px;""></div></div>","null","delaylearn","learning","display_response","6310b940e5a073466d04381f","UGUZQESoKfXHwB47iHZEbZ633vJ3","","","","","","","","","","","","","","","","","chosen stimuli: images/choice_trial_13.png","","","",""
"html-keyboard-response","201","677749","0.0-83.0-2.0","","null","","null","delaylearn","learning","feedback_duration_window","6310b940e5a073466d04381f","UGUZQESoKfXHwB47iHZEbZ633vJ3","","","","","","","","","","","","","","","","","","7000","","",""
"html-keyboard-response","202","679251","0.0-83.0-3.0","","null","<div style='margin:auto;width: auto; font-size: 150%'><span style='font-weight: bold; font-size: 100px; color: green;'>+10 points!</span><br><br></div>","null","delaylearn","learning","feedback_image_window","6310b940e5a073466d04381f","UGUZQESoKfXHwB47iHZEbZ633vJ3","","","","","","","","","","","","","","","","","","","","",""
"html-keyboard-response","203","681074","0.0-84.0","","null","<div style=""font-size:100px;"">+</div>","null","delaylearn","learning","ITI","6310b940e5a073466d04381f","UGUZQESoKfXHwB47iHZEbZ633vJ3","","","","","","","","","","","","","","","","","","","1820","",""
"html-keyboard-response","204","682719","0.0-85.0-0.0","","1642.5999999940395","<div style=""display: flex; flex-direction: column; align-items: center; margin-top: -40px;""><img src=""images/pattern_4.png"" style=""width: 234px; height: 230px; margin-top: -50px;""><div style=""display: flex; justify-content: space-between; margin-top: 33px;""><img src=""images/choice_trial_9.png"" style=""width: 408px; height: 417px; margin-right: 200px;""><img src=""images/choice_trial_15.png"" style=""width: 408px; height: 417px;""></div></div>","j","delaylearn","learning","trial","6310b940e5a073466d04381f","UGUZQESoKfXHwB47iHZEbZ633vJ3","3","images/choice_trial_9.png","images/choice_trial_15.png","images/pattern_4.png","f","j","7000","9","15","3","1","37","1","0","15","170","","","","",""
"html-keyboard-response","205","683722","0.0-85.0-1.0","","null","<div style=""display: flex; flex-direction: column; align-items: center; margin-top: -40px;""><img src=""images/pattern_4.png"" style=""width: 234px; height: 230px; margin-top: -50px;""><div style=""display: flex; justify-content: space-between; margin-top: 33px;""><img src=""images/choice_trial_15.png"" style=""width: 408px; height: 417px; margin-left:608px;""></div></div>","null","delaylearn","learning","display_response","6310b940e5a073466d04381f","UGUZQESoKfXHwB47iHZEbZ633vJ3","","","","","","","","","","","","","","","","","chosen stimuli: images/choice_trial_15.png","","","",""
"html-keyboard-response","206","690725","0.0-85.0-2.0","","null","","null","delaylearn","learning","feedback_duration_window","6310b940e5a073466d04381f","UGUZQESoKfXHwB47iHZEbZ633vJ3","","","","","","","","","","","","","","","","","","7000","","",""
"html-keyboard-response","207","692228","0.0-85.0-3.0","","null","<div style='margin:auto;width: auto; font-size: 150%'><span style='font-weight: bold; font-size: 100px; color: red;'>0 points!</span><br><br></div>","null","delaylearn","learning","feedback_image_window","6310b940e5a073466d04381f","UGUZQESoKfXHwB47iHZEbZ633vJ3","","","","","","","","","","","","","","","","","","","","",""
"html-keyboard-response","208","693958","0.0-86.0","","null","<div style=""font-size:100px;"">+</div>","null","delaylearn","learning","ITI","6310b940e5a073466d04381f","UGUZQESoKfXHwB47iHZEbZ633vJ3","","","","","","","","","","","","","","","","","","","1728","",""
"html-keyboard-response","209","694985","0.0-87.0-0.0","","1024.0999999940395","<div style=""display: flex; flex-direction: column; align-items: center; margin-top: -40px;""><img src=""images/pattern_7.png"" style=""width: 234px; height: 230px; margin-top: -50px;""><div style=""display: flex; justify-content: space-between; margin-top: 33px;""><img src=""images/choice_trial_6.png"" style=""width: 408px; height: 417px; margin-right: 200px;""><img src=""images/choice_trial_12.png"" style=""width: 408px; height: 417px;""></div></div>","f","delaylearn","learning","trial","6310b940e5a073466d04381f","UGUZQESoKfXHwB47iHZEbZ633vJ3","3","images/choice_trial_6.png","images/choice_trial_12.png","images/pattern_7.png","f","f","750","6","12","6","0","38","1","1","6","180","","","","",""
"html-keyboard-response","210","695988","0.0-87.0-1.0","","null","<div style=""display: flex; flex-direction: column; align-items: center; margin-top: -40px;""><img src=""images/pattern_7.png"" style=""width: 234px; height: 230px; margin-top: -50px;""><div style=""display: flex; justify-content: space-between; margin-top: 33px;""><img src=""images/choice_trial_6.png"" style=""width: 408px; height: 417px; margin-right: 608px;""></div></div>","null","delaylearn","learning","display_response","6310b940e5a073466d04381f","UGUZQESoKfXHwB47iHZEbZ633vJ3","","","","","","","","","","","","","","","","","chosen stimuli: images/choice_trial_6.png","","","",""
"html-keyboard-response","211","696740","0.0-87.0-2.0","","null","","null","delaylearn","learning","feedback_duration_window","6310b940e5a073466d04381f","UGUZQESoKfXHwB47iHZEbZ633vJ3","","","","","","","","","","","","","","","","","","750","","",""
"html-keyboard-response","212","698243","0.0-87.0-3.0","","null","<div style='margin:auto;width: auto; font-size: 150%'><span style='font-weight: bold; font-size: 100px; color: green;'>+10 points!</span><br><br></div>","null","delaylearn","learning","feedback_image_window","6310b940e5a073466d04381f","UGUZQESoKfXHwB47iHZEbZ633vJ3","","","","","","","","","","","","","","","","","","","","",""
"html-keyboard-response","213","700378","0.0-88.0","","null","<div style=""font-size:100px;"">+</div>","null","delaylearn","learning","ITI","6310b940e5a073466d04381f","UGUZQESoKfXHwB47iHZEbZ633vJ3","","","","","","","","","","","","","","","","","","","2133","",""
"html-keyboard-response","214","701658","0.0-89.0-0.0","","1277.3999999985099","<div style=""display: flex; flex-direction: column; align-items: center; margin-top: -40px;""><img src=""images/pattern_1.png"" style=""width: 234px; height: 230px; margin-top: -50px;""><div style=""display: flex; justify-content: space-between; margin-top: 33px;""><img src=""images/choice_trial_14.png"" style=""width: 408px; height: 417px; margin-right: 200px;""><img src=""images/choice_trial_8.png"" style=""width: 408px; height: 417px;""></div></div>","f","delaylearn","learning","trial","6310b940e5a073466d04381f","UGUZQESoKfXHwB47iHZEbZ633vJ3","3","images/choice_trial_14.png","images/choice_trial_8.png","images/pattern_1.png","f","f","7000","14","8","1","0","39","1","1","14","190","","","","",""
"html-keyboard-response","215","702661","0.0-89.0-1.0","","null","<div style=""display: flex; flex-direction: column; align-items: center; margin-top: -40px;""><img src=""images/pattern_1.png"" style=""width: 234px; height: 230px; margin-top: -50px;""><div style=""display: flex; justify-content: space-between; margin-top: 33px;""><img src=""images/choice_trial_14.png"" style=""width: 408px; height: 417px; margin-right: 608px;""></div></div>","null","delaylearn","learning","display_response","6310b940e5a073466d04381f","UGUZQESoKfXHwB47iHZEbZ633vJ3","","","","","","","","","","","","","","","","","chosen stimuli: images/choice_trial_14.png","","","",""
"html-keyboard-response","216","709663","0.0-89.0-2.0","","null","","null","delaylearn","learning","feedback_duration_window","6310b940e5a073466d04381f","UGUZQESoKfXHwB47iHZEbZ633vJ3","","","","","","","","","","","","","","","","","","7000","","",""
"html-keyboard-response","217","711166","0.0-89.0-3.0","","null","<div style='margin:auto;width: auto; font-size: 150%'><span style='font-weight: bold; font-size: 100px; color: green;'>+10 points!</span><br><br></div>","null","delaylearn","learning","feedback_image_window","6310b940e5a073466d04381f","UGUZQESoKfXHwB47iHZEbZ633vJ3","","","","","","","","","","","","","","","","","","","","",""
"html-keyboard-response","218","711669","0.0-90.0-0.0","","null","","null","","","mood_trial_fixation","","","","","","","","","","","","","","","","","","","","","","",""
"lmdlab-html-vas-response","219","715923","0.0-90.0-1.0","","3248","How happy are you right now?","0.17962962962962964","delaylearn","learning","mood_trial","6310b940e5a073466d04381f","UGUZQESoKfXHwB47iHZEbZ633vJ3","","","","","","","","","","","","","","","","","","","","[""Very unhappy"",""Very happy""]",""
"html-keyboard-response","220","718394","0.0-91.0","","null","<div style=""font-size:100px;"">+</div>","null","delaylearn","learning","ITI","6310b940e5a073466d04381f","UGUZQESoKfXHwB47iHZEbZ633vJ3","","","","","","","","","","","","","","","","","","","2469","",""
"html-keyboard-response","221","719684","0.0-92.0-0.0","","1286.3999999985099","<div style=""display: flex; flex-direction: column; align-items: center; margin-top: -40px;""><img src=""images/pattern_3.png"" style=""width: 234px; height: 230px; margin-top: -50px;""><div style=""display: flex; justify-content: space-between; margin-top: 33px;""><img src=""images/choice_trial_13.png"" style=""width: 408px; height: 417px; margin-right: 200px;""><img src=""images/choice_trial_10.png"" style=""width: 408px; height: 417px;""></div></div>","f","delaylearn","learning","trial","6310b940e5a073466d04381f","UGUZQESoKfXHwB47iHZEbZ633vJ3","3","images/choice_trial_13.png","images/choice_trial_10.png","images/pattern_3.png","j","f","7000","13","10","2","0","40","1","0","13","190","","","","",""
