"trial_type","trial_index","time_elapsed","internal_node_id","participant","rt","stimulus","response","exp_name","exp_stage","test_part","subjectID","databaseID","counterbal","choice_stimuli_1","choice_stimuli_2","pattern_stimuli","rewarded_answer","correct_answer","feedback_duration_times","stim_left","stim_right","pair","leftright_counter","trial","response_correct","response_rewarded","chosen_stim","counter","displayed_choice","feedback_durations","ITI_duration","labels","rest_warning"
"pavlovia","0","527","0.0-0.0","","","","","","","","","","","","","","","","","","","","","","","","","","","","","",""
"html-keyboard-response","1","3543","0.0-1.0","","null","<div style=""font-size:100px;"">+</div>","null","delaylearn","learning","pre_fixation","55e876f25e4d360012cc283d","","","","","","","","","","","","","","","","","","","","","",""
"html-keyboard-response","2","4177","0.0-2.0-0.0","","632.5999999046326","<div style=""display: flex; flex-direction: column; align-items: center; margin-top: -40px;""><img src=""images/demo_images/pattern_1.png"" style=""width: 234px; height: 230px; margin-top: -50px;""><div style=""display: flex; justify-content: space-between; margin-top: 33px;""><img src=""images/demo_images/choice_trial_2.png"" style=""width: 408px; height: 417px; margin-right: 200px;""><img src=""images/demo_images/choice_trial_1.png"" style=""width: 408px; height: 417px;""></div></div>","j","delaylearn","learning","trial","55e876f25e4d360012cc283d","Fk4Z6bxutfUrJ3Te9yL3M9UxTEn1","1","images/demo_images/choice_trial_2.png","images/demo_images/choice_trial_1.png","images/demo_images/pattern_1.png","j","j","3000","2","1","20","1","1","1","1","1","10","","","","",""
"html-keyboard-response","3","5193","0.0-2.0-1.0","","null","<div style=""display: flex; flex-direction: column; align-items: center; margin-top: -40px;""><img src=""images/demo_images/pattern_1.png"" style=""width: 234px; height: 230px; margin-top: -50px;""><div style=""display: flex; justify-content: space-between; margin-top: 33px;""><img src=""images/demo_images/choice_trial_1.png"" style=""width: 408px; height: 417px; margin-left:608px;""></div></div>","null","delaylearn","learning","display_response","55e876f25e4d360012cc283d","Fk4Z6bxutfUrJ3Te9yL3M9UxTEn1","","","","","","","","","","","","","","","","","chosen stimuli: images/demo_images/choice_trial_1.png","","","",""
"html-keyboard-response","4","8198","0.0-2.0-2.0","","null","","null","delaylearn","learning","feedback_duration_window","55e876f25e4d360012cc283d","Fk4Z6bxutfUrJ3Te9yL3M9UxTEn1","","","","","","","","","","","","","","","","","","3000","","",""
"html-keyboard-response","5","9715","0.0-2.0-3.0","","null","<div style='margin:auto;width: auto; font-size: 150%'><span style='font-weight: bold; font-size: 100px; color: green;'>+10 points!</span><br><br></div>","null","delaylearn","learning","feedback_image_window","55e876f25e4d360012cc283d","Fk4Z6bxutfUrJ3Te9yL3M9UxTEn1","","","","","","","","","","","","","","","","","","","","",""
"html-keyboard-response","6","11721","0.0-3.0","","null","<div style=""font-size:100px;"">+</div>","null","delaylearn","learning","ITI","55e876f25e4d360012cc283d","Fk4Z6bxutfUrJ3Te9yL3M9UxTEn1","","","","","","","","","","","","","","","","","","","1991","",""
"html-keyboard-response","7","12416","0.0-4.0-0.0","","692.3000001907349","<div style=""display: flex; flex-direction: column; align-items: center; margin-top: -40px;""><img src=""images/demo_images/pattern_1.png"" style=""width: 234px; height: 230px; margin-top: -50px;""><div style=""display: flex; justify-content: space-between; margin-top: 33px;""><img src=""images/demo_images/choice_trial_2.png"" style=""width: 408px; height: 417px; margin-right: 200px;""><img src=""images/demo_images/choice_trial_1.png"" style=""width: 408px; height: 417px;""></div></div>","j","delaylearn","learning","trial","55e876f25e4d360012cc283d","Fk4Z6bxutfUrJ3Te9yL3M9UxTEn1","1","images/demo_images/choice_trial_2.png","images/demo_images/choice_trial_1.png","images/demo_images/pattern_1.png","j","j","3000","2","1","20","1","2","1","1","1","20","","","","",""
"html-keyboard-response","8","13420","0.0-4.0-1.0","","null","<div style=""display: flex; flex-direction: column; align-items: center; margin-top: -40px;""><img src=""images/demo_images/pattern_1.png"" style=""width: 234px; height: 230px; margin-top: -50px;""><div style=""display: flex; justify-content: space-between; margin-top: 33px;""><img src=""images/demo_images/choice_trial_1.png"" style=""width: 408px; height: 417px; margin-left:608px;""></div></div>","null","delaylearn","learning","display_response","55e876f25e4d360012cc283d","Fk4Z6bxutfUrJ3Te9yL3M9UxTEn1","","","","","","","","","","","","","","","","","chosen stimuli: images/demo_images/choice_trial_1.png","","","",""
"html-keyboard-response","9","16422","0.0-4.0-2.0","","null","","null","delaylearn","learning","feedback_duration_window","55e876f25e4d360012cc283d","Fk4Z6bxutfUrJ3Te9yL3M9UxTEn1","","","","","","","","","","","","","","","","","","3000","","",""
"html-keyboard-response","10","17926","0.0-4.0-3.0","","null","<div style='margin:auto;width: auto; font-size: 150%'><span style='font-weight: bold; font-size: 100px; color: green;'>+10 points!</span><br><br></div>","null","delaylearn","learning","feedback_image_window","55e876f25e4d360012cc283d","Fk4Z6bxutfUrJ3Te9yL3M9UxTEn1","","","","","","","","","","","","","","","","","","","","",""
"html-keyboard-response","11","20242","0.0-5.0","","null","<div style=""font-size:100px;"">+</div>","null","delaylearn","learning","ITI","55e876f25e4d360012cc283d","Fk4Z6bxutfUrJ3Te9yL3M9UxTEn1","","","","","","","","","","","","","","","","","","","2315","",""
"html-keyboard-response","12","20981","0.0-6.0-0.0","","736","<div style=""display: flex; flex-direction: column; align-items: center; margin-top: -40px;""><img src=""images/demo_images/pattern_1.png"" style=""width: 234px; height: 230px; margin-top: -50px;""><div style=""display: flex; justify-content: space-between; margin-top: 33px;""><img src=""images/demo_images/choice_trial_1.png"" style=""width: 408px; height: 417px; margin-right: 200px;""><img src=""images/demo_images/choice_trial_2.png"" style=""width: 408px; height: 417px;""></div></div>","f","delaylearn","learning","trial","55e876f25e4d360012cc283d","Fk4Z6bxutfUrJ3Te9yL3M9UxTEn1","1","images/demo_images/choice_trial_1.png","images/demo_images/choice_trial_2.png","images/demo_images/pattern_1.png","j","f","3000","1","2","20","0","3","1","0","1","20","","","","",""
"html-keyboard-response","13","21992","0.0-6.0-1.0","","null","<div style=""display: flex; flex-direction: column; align-items: center; margin-top: -40px;""><img src=""images/demo_images/pattern_1.png"" style=""width: 234px; height: 230px; margin-top: -50px;""><div style=""display: flex; justify-content: space-between; margin-top: 33px;""><img src=""images/demo_images/choice_trial_1.png"" style=""width: 408px; height: 417px; margin-right: 608px;""></div></div>","null","delaylearn","learning","display_response","55e876f25e4d360012cc283d","Fk4Z6bxutfUrJ3Te9yL3M9UxTEn1","","","","","","","","","","","","","","","","","chosen stimuli: images/demo_images/choice_trial_1.png","","","",""
"html-keyboard-response","14","25004","0.0-6.0-2.0","","null","","null","delaylearn","learning","feedback_duration_window","55e876f25e4d360012cc283d","Fk4Z6bxutfUrJ3Te9yL3M9UxTEn1","","","","","","","","","","","","","","","","","","3000","","",""
"html-keyboard-response","15","26516","0.0-6.0-3.0","","null","<div style='margin:auto;width: auto; font-size: 150%'><span style='font-weight: bold; font-size: 100px; color: red;'>0 points!</span><br><br></div>","null","delaylearn","learning","feedback_image_window","55e876f25e4d360012cc283d","Fk4Z6bxutfUrJ3Te9yL3M9UxTEn1","","","","","","","","","","","","","","","","","","","","",""
"html-keyboard-response","16","28692","0.0-7.0","","null","<div style=""font-size:100px;"">+</div>","null","delaylearn","learning","ITI","55e876f25e4d360012cc283d","Fk4Z6bxutfUrJ3Te9yL3M9UxTEn1","","","","","","","","","","","","","","","","","","","2160","",""
"html-keyboard-response","17","29711","0.0-8.0-0.0","","1015.2000002861023","<div style=""display: flex; flex-direction: column; align-items: center; margin-top: -40px;""><img src=""images/demo_images/pattern_1.png"" style=""width: 234px; height: 230px; margin-top: -50px;""><div style=""display: flex; justify-content: space-between; margin-top: 33px;""><img src=""images/demo_images/choice_trial_1.png"" style=""width: 408px; height: 417px; margin-right: 200px;""><img src=""images/demo_images/choice_trial_2.png"" style=""width: 408px; height: 417px;""></div></div>","j","delaylearn","learning","trial","55e876f25e4d360012cc283d","Fk4Z6bxutfUrJ3Te9yL3M9UxTEn1","1","images/demo_images/choice_trial_1.png","images/demo_images/choice_trial_2.png","images/demo_images/pattern_1.png","f","f","3000","1","2","20","0","4","0","0","2","20","","","","",""
"html-keyboard-response","18","30719","0.0-8.0-1.0","","null","<div style=""display: flex; flex-direction: column; align-items: center; margin-top: -40px;""><img src=""images/demo_images/pattern_1.png"" style=""width: 234px; height: 230px; margin-top: -50px;""><div style=""display: flex; justify-content: space-between; margin-top: 33px;""><img src=""images/demo_images/choice_trial_2.png"" style=""width: 408px; height: 417px; margin-left:608px;""></div></div>","null","delaylearn","learning","display_response","55e876f25e4d360012cc283d","Fk4Z6bxutfUrJ3Te9yL3M9UxTEn1","","","","","","","","","","","","","","","","","chosen stimuli: images/demo_images/choice_trial_2.png","","","",""
"html-keyboard-response","19","33721","0.0-8.0-2.0","","null","","null","delaylearn","learning","feedback_duration_window","55e876f25e4d360012cc283d","Fk4Z6bxutfUrJ3Te9yL3M9UxTEn1","","","","","","","","","","","","","","","","","","3000","","",""
"html-keyboard-response","20","35237","0.0-8.0-3.0","","null","<div style='margin:auto;width: auto; font-size: 150%'><span style='font-weight: bold; font-size: 100px; color: red;'>0 points!</span><br><br></div>","null","delaylearn","learning","feedback_image_window","55e876f25e4d360012cc283d","Fk4Z6bxutfUrJ3Te9yL3M9UxTEn1","","","","","","","","","","","","","","","","","","","","",""
"html-keyboard-response","21","35752","0.0-9.0-0.0","","null","","null","","","mood_trial_fixation","","","","","","","","","","","","","","","","","","","","","","",""
"lmdlab-html-vas-response","22","39872","0.0-9.0-1.0","","3103","How happy are you right now?","0.19138211655877588","delaylearn","learning","mood_trial","55e876f25e4d360012cc283d","Fk4Z6bxutfUrJ3Te9yL3M9UxTEn1","","","","","","","","","","","","","","","","","","","","[""Very unhappy"",""Very happy""]",""
"html-keyboard-response","23","42301","0.0-10.0","","null","<div style=""font-size:100px;"">+</div>","null","delaylearn","learning","ITI","55e876f25e4d360012cc283d","Fk4Z6bxutfUrJ3Te9yL3M9UxTEn1","","","","","","","","","","","","","","","","","","","2416","",""
"html-keyboard-response","24","43046","0.0-11.0-0.0","","742.6999998092651","<div style=""display: flex; flex-direction: column; align-items: center; margin-top: -40px;""><img src=""images/demo_images/pattern_1.png"" style=""width: 234px; height: 230px; margin-top: -50px;""><div style=""display: flex; justify-content: space-between; margin-top: 33px;""><img src=""images/demo_images/choice_trial_2.png"" style=""width: 408px; height: 417px; margin-right: 200px;""><img src=""images/demo_images/choice_trial_1.png"" style=""width: 408px; height: 417px;""></div></div>","j","delaylearn","learning","trial","55e876f25e4d360012cc283d","Fk4Z6bxutfUrJ3Te9yL3M9UxTEn1","1","images/demo_images/choice_trial_2.png","images/demo_images/choice_trial_1.png","images/demo_images/pattern_1.png","j","j","3000","2","1","20","1","5","1","1","1","30","","","","",""
"html-keyboard-response","25","44049","0.0-11.0-1.0","","null","<div style=""display: flex; flex-direction: column; align-items: center; margin-top: -40px;""><img src=""images/demo_images/pattern_1.png"" style=""width: 234px; height: 230px; margin-top: -50px;""><div style=""display: flex; justify-content: space-between; margin-top: 33px;""><img src=""images/demo_images/choice_trial_1.png"" style=""width: 408px; height: 417px; margin-left:608px;""></div></div>","null","delaylearn","learning","display_response","55e876f25e4d360012cc283d","Fk4Z6bxutfUrJ3Te9yL3M9UxTEn1","","","","","","","","","","","","","","","","","chosen stimuli: images/demo_images/choice_trial_1.png","","","",""
"html-keyboard-response","26","47057","0.0-11.0-2.0","","null","","null","delaylearn","learning","feedback_duration_window","55e876f25e4d360012cc283d","Fk4Z6bxutfUrJ3Te9yL3M9UxTEn1","","","","","","","","","","","","","","","","","","3000","","",""
"html-keyboard-response","27","48575","0.0-11.0-3.0","","null","<div style='margin:auto;width: auto; font-size: 150%'><span style='font-weight: bold; font-size: 100px; color: green;'>+10 points!</span><br><br></div>","null","delaylearn","learning","feedback_image_window","55e876f25e4d360012cc283d","Fk4Z6bxutfUrJ3Te9yL3M9UxTEn1","","","","","","","","","","","","","","","","","","","","",""
"html-keyboard-response","28","50979","0.0-12.0","","null","<div style=""font-size:100px;"">+</div>","null","delaylearn","learning","ITI","55e876f25e4d360012cc283d","Fk4Z6bxutfUrJ3Te9yL3M9UxTEn1","","","","","","","","","","","","","","","","","","","2395","",""
"html-keyboard-response","29","51974","0.0-13.0-0.0","","992.9000000953674","<div style=""display: flex; flex-direction: column; align-items: center; margin-top: -40px;""><img src=""images/demo_images/pattern_1.png"" style=""width: 234px; height: 230px; margin-top: -50px;""><div style=""display: flex; justify-content: space-between; margin-top: 33px;""><img src=""images/demo_images/choice_trial_1.png"" style=""width: 408px; height: 417px; margin-right: 200px;""><img src=""images/demo_images/choice_trial_2.png"" style=""width: 408px; height: 417px;""></div></div>","j","delaylearn","learning","trial","55e876f25e4d360012cc283d","Fk4Z6bxutfUrJ3Te9yL3M9UxTEn1","1","images/demo_images/choice_trial_1.png","images/demo_images/choice_trial_2.png","images/demo_images/pattern_1.png","f","f","3000","1","2","20","0","6","0","0","2","30","","","","",""
"html-keyboard-response","30","52984","0.0-13.0-1.0","","null","<div style=""display: flex; flex-direction: column; align-items: center; margin-top: -40px;""><img src=""images/demo_images/pattern_1.png"" style=""width: 234px; height: 230px; margin-top: -50px;""><div style=""display: flex; justify-content: space-between; margin-top: 33px;""><img src=""images/demo_images/choice_trial_2.png"" style=""width: 408px; height: 417px; margin-left:608px;""></div></div>","null","delaylearn","learning","display_response","55e876f25e4d360012cc283d","Fk4Z6bxutfUrJ3Te9yL3M9UxTEn1","","","","","","","","","","","","","","","","","chosen stimuli: images/demo_images/choice_trial_2.png","","","",""
"html-keyboard-response","31","55989","0.0-13.0-2.0","","null","","null","delaylearn","learning","feedback_duration_window","55e876f25e4d360012cc283d","Fk4Z6bxutfUrJ3Te9yL3M9UxTEn1","","","","","","","","","","","","","","","","","","3000","","",""
"html-keyboard-response","32","57505","0.0-13.0-3.0","","null","<div style='margin:auto;width: auto; font-size: 150%'><span style='font-weight: bold; font-size: 100px; color: red;'>0 points!</span><br><br></div>","null","delaylearn","learning","feedback_image_window","55e876f25e4d360012cc283d","Fk4Z6bxutfUrJ3Te9yL3M9UxTEn1","","","","","","","","","","","","","","","","","","","","",""
"html-keyboard-response","33","59057","0.0-14.0","","null","<div style=""font-size:100px;"">+</div>","null","delaylearn","learning","ITI","55e876f25e4d360012cc283d","Fk4Z6bxutfUrJ3Te9yL3M9UxTEn1","","","","","","","","","","","","","","","","","","","1549","",""
"html-keyboard-response","34","59934","0.0-15.0-0.0","","875.7000002861023","<div style=""display: flex; flex-direction: column; align-items: center; margin-top: -40px;""><img src=""images/demo_images/pattern_1.png"" style=""width: 234px; height: 230px; margin-top: -50px;""><div style=""display: flex; justify-content: space-between; margin-top: 33px;""><img src=""images/demo_images/choice_trial_2.png"" style=""width: 408px; height: 417px; margin-right: 200px;""><img src=""images/demo_images/choice_trial_1.png"" style=""width: 408px; height: 417px;""></div></div>","j","delaylearn","learning","trial","55e876f25e4d360012cc283d","Fk4Z6bxutfUrJ3Te9yL3M9UxTEn1","1","images/demo_images/choice_trial_2.png","images/demo_images/choice_trial_1.png","images/demo_images/pattern_1.png","j","j","3000","2","1","20","1","7","1","1","1","40","","","","",""
"html-keyboard-response","35","60942","0.0-15.0-1.0","","null","<div style=""display: flex; flex-direction: column; align-items: center; margin-top: -40px;""><img src=""images/demo_images/pattern_1.png"" style=""width: 234px; height: 230px; margin-top: -50px;""><div style=""display: flex; justify-content: space-between; margin-top: 33px;""><img src=""images/demo_images/choice_trial_1.png"" style=""width: 408px; height: 417px; margin-left:608px;""></div></div>","null","delaylearn","learning","display_response","55e876f25e4d360012cc283d","Fk4Z6bxutfUrJ3Te9yL3M9UxTEn1","","","","","","","","","","","","","","","","","chosen stimuli: images/demo_images/choice_trial_1.png","","","",""
"html-keyboard-response","36","63955","0.0-15.0-2.0","","null","","null","delaylearn","learning","feedback_duration_window","55e876f25e4d360012cc283d","Fk4Z6bxutfUrJ3Te9yL3M9UxTEn1","","","","","","","","","","","","","","","","","","3000","","",""
"html-keyboard-response","37","65469","0.0-15.0-3.0","","null","<div style='margin:auto;width: auto; font-size: 150%'><span style='font-weight: bold; font-size: 100px; color: green;'>+10 points!</span><br><br></div>","null","delaylearn","learning","feedback_image_window","55e876f25e4d360012cc283d","Fk4Z6bxutfUrJ3Te9yL3M9UxTEn1","","","","","","","","","","","","","","","","","","","","",""
"html-keyboard-response","38","67461","0.0-16.0","","null","<div style=""font-size:100px;"">+</div>","null","delaylearn","learning","ITI","55e876f25e4d360012cc283d","Fk4Z6bxutfUrJ3Te9yL3M9UxTEn1","","","","","","","","","","","","","","","","","","","1980","",""
"html-keyboard-response","39","68150","0.0-17.0-0.0","","686.7999997138977","<div style=""display: flex; flex-direction: column; align-items: center; margin-top: -40px;""><img src=""images/demo_images/pattern_1.png"" style=""width: 234px; height: 230px; margin-top: -50px;""><div style=""display: flex; justify-content: space-between; margin-top: 33px;""><img src=""images/demo_images/choice_trial_1.png"" style=""width: 408px; height: 417px; margin-right: 200px;""><img src=""images/demo_images/choice_trial_2.png"" style=""width: 408px; height: 417px;""></div></div>","f","delaylearn","learning","trial","55e876f25e4d360012cc283d","Fk4Z6bxutfUrJ3Te9yL3M9UxTEn1","1","images/demo_images/choice_trial_1.png","images/demo_images/choice_trial_2.png","images/demo_images/pattern_1.png","f","f","3000","1","2","20","0","8","1","1","1","50","","","","",""
"html-keyboard-response","40","69161","0.0-17.0-1.0","","null","<div style=""display: flex; flex-direction: column; align-items: center; margin-top: -40px;""><img src=""images/demo_images/pattern_1.png"" style=""width: 234px; height: 230px; margin-top: -50px;""><div style=""display: flex; justify-content: space-between; margin-top: 33px;""><img src=""images/demo_images/choice_trial_1.png"" style=""width: 408px; height: 417px; margin-right: 608px;""></div></div>","null","delaylearn","learning","display_response","55e876f25e4d360012cc283d","Fk4Z6bxutfUrJ3Te9yL3M9UxTEn1","","","","","","","","","","","","","","","","","chosen stimuli: images/demo_images/choice_trial_1.png","","","",""
"html-keyboard-response","41","72172","0.0-17.0-2.0","","null","","null","delaylearn","learning","feedback_duration_window","55e876f25e4d360012cc283d","Fk4Z6bxutfUrJ3Te9yL3M9UxTEn1","","","","","","","","","","","","","","","","","","3000","","",""
"html-keyboard-response","42","73685","0.0-17.0-3.0","","null","<div style='margin:auto;width: auto; font-size: 150%'><span style='font-weight: bold; font-size: 100px; color: green;'>+10 points!</span><br><br></div>","null","delaylearn","learning","feedback_image_window","55e876f25e4d360012cc283d","Fk4Z6bxutfUrJ3Te9yL3M9UxTEn1","","","","","","","","","","","","","","","","","","","","",""
"html-button-response","43","76631","0.0-18.0","","2945.2000002861023","
  <div style=""display: flex; align-items: center; justify-content: center; height: 80vh;"">
  <div>
          <img src=""images/inst_demo_finish.png"" style=""width: 80vw; height:auto;"">
          <br><br>
      </div>
      <br><br>
  </div>","0","","","","","","","","","","","","","","","","","","","","","","","","","",""
"html-keyboard-response","44","79797","0.0-19.0","","3164.800000190735","
  <div style=""display: flex; align-items: center; justify-content: center; height: 80vh;"">
  <div>
          <img src=""images/inst_6.png"" style=""width: 80vw; height:auto;"">
          <br><br>
      </div>
      <br><br>
  </div>","j","","","","","","","","","","","","","","","","","","","","","","","","","",""
"html-keyboard-response","45","82811","0.0-20.0","","null","<div style=""font-size:100px;"">+</div>","null","delaylearn","learning","pre_fixation","55e876f25e4d360012cc283d","","","","","","","","","","","","","","","","","","","","","",""
"html-keyboard-response","46","85228","0.0-21.0","","null","<div style=""font-size:100px;"">+</div>","null","delaylearn","learning","ITI","55e876f25e4d360012cc283d","Fk4Z6bxutfUrJ3Te9yL3M9UxTEn1","","","","","","","","","","","","","","","","","","","2412","",""
"html-keyboard-response","47","86025","0.0-22.0-0.0","","794.9000000953674","<div style=""display: flex; flex-direction: column; align-items: center; margin-top: -40px;""><img src=""images/pattern_3.png"" style=""width: 234px; height: 230px; margin-top: -50px;""><div style=""display: flex; justify-content: space-between; margin-top: 33px;""><img src=""images/choice_trial_5.png"" style=""width: 408px; height: 417px; margin-right: 200px;""><img src=""images/choice_trial_6.png"" style=""width: 408px; height: 417px;""></div></div>","j","delaylearn","learning","trial","55e876f25e4d360012cc283d","Fk4Z6bxutfUrJ3Te9yL3M9UxTEn1","1","images/choice_trial_5.png","images/choice_trial_6.png","images/pattern_3.png","f","f","7000","5","6","2","0","9","0","0","6","50","","","","",""
"html-keyboard-response","48","87030","0.0-22.0-1.0","","null","<div style=""display: flex; flex-direction: column; align-items: center; margin-top: -40px;""><img src=""images/pattern_3.png"" style=""width: 234px; height: 230px; margin-top: -50px;""><div style=""display: flex; justify-content: space-between; margin-top: 33px;""><img src=""images/choice_trial_6.png"" style=""width: 408px; height: 417px; margin-left:608px;""></div></div>","null","delaylearn","learning","display_response","55e876f25e4d360012cc283d","Fk4Z6bxutfUrJ3Te9yL3M9UxTEn1","","","","","","","","","","","","","","","","","chosen stimuli: images/choice_trial_6.png","","","",""
"html-keyboard-response","49","94034","0.0-22.0-2.0","","null","","null","delaylearn","learning","feedback_duration_window","55e876f25e4d360012cc283d","Fk4Z6bxutfUrJ3Te9yL3M9UxTEn1","","","","","","","","","","","","","","","","","","7000","","",""
"html-keyboard-response","50","95547","0.0-22.0-3.0","","null","<div style='margin:auto;width: auto; font-size: 150%'><span style='font-weight: bold; font-size: 100px; color: red;'>0 points!</span><br><br></div>","null","delaylearn","learning","feedback_image_window","55e876f25e4d360012cc283d","Fk4Z6bxutfUrJ3Te9yL3M9UxTEn1","","","","","","","","","","","","","","","","","","","","",""
"html-keyboard-response","51","97526","0.0-23.0","","null","<div style=""font-size:100px;"">+</div>","null","delaylearn","learning","ITI","55e876f25e4d360012cc283d","Fk4Z6bxutfUrJ3Te9yL3M9UxTEn1","","","","","","","","","","","","","","","","","","","1971","",""
"html-keyboard-response","52","98846","0.0-24.0-0.0","","1318.3999996185303","<div style=""display: flex; flex-direction: column; align-items: center; margin-top: -40px;""><img src=""images/pattern_7.png"" style=""width: 234px; height: 230px; margin-top: -50px;""><div style=""display: flex; justify-content: space-between; margin-top: 33px;""><img src=""images/choice_trial_14.png"" style=""width: 408px; height: 417px; margin-right: 200px;""><img src=""images/choice_trial_13.png"" style=""width: 408px; height: 417px;""></div></div>","j","delaylearn","learning","trial","55e876f25e4d360012cc283d","Fk4Z6bxutfUrJ3Te9yL3M9UxTEn1","1","images/choice_trial_14.png","images/choice_trial_13.png","images/pattern_7.png","j","j","750","14","13","6","1","10","1","1","13","60","","","","",""
"html-keyboard-response","53","99861","0.0-24.0-1.0","","null","<div style=""display: flex; flex-direction: column; align-items: center; margin-top: -40px;""><img src=""images/pattern_7.png"" style=""width: 234px; height: 230px; margin-top: -50px;""><div style=""display: flex; justify-content: space-between; margin-top: 33px;""><img src=""images/choice_trial_13.png"" style=""width: 408px; height: 417px; margin-left:608px;""></div></div>","null","delaylearn","learning","display_response","55e876f25e4d360012cc283d","Fk4Z6bxutfUrJ3Te9yL3M9UxTEn1","","","","","","","","","","","","","","","","","chosen stimuli: images/choice_trial_13.png","","","",""
"html-keyboard-response","54","100622","0.0-24.0-2.0","","null","","null","delaylearn","learning","feedback_duration_window","55e876f25e4d360012cc283d","Fk4Z6bxutfUrJ3Te9yL3M9UxTEn1","","","","","","","","","","","","","","","","","","750","","",""
"html-keyboard-response","55","102134","0.0-24.0-3.0","","null","<div style='margin:auto;width: auto; font-size: 150%'><span style='font-weight: bold; font-size: 100px; color: green;'>+10 points!</span><br><br></div>","null","delaylearn","learning","feedback_image_window","55e876f25e4d360012cc283d","Fk4Z6bxutfUrJ3Te9yL3M9UxTEn1","","","","","","","","","","","","","","","","","","","","",""
"html-keyboard-response","56","104204","0.0-25.0","","null","<div style=""font-size:100px;"">+</div>","null","delaylearn","learning","ITI","55e876f25e4d360012cc283d","Fk4Z6bxutfUrJ3Te9yL3M9UxTEn1","","","","","","","","","","","","","","","","","","","2066","",""
"html-keyboard-response","57","105708","0.0-26.0-0.0","","1501.6999998092651","<div style=""display: flex; flex-direction: column; align-items: center; margin-top: -40px;""><img src=""images/pattern_4.png"" style=""width: 234px; height: 230px; margin-top: -50px;""><div style=""display: flex; justify-content: space-between; margin-top: 33px;""><img src=""images/choice_trial_7.png"" style=""width: 408px; height: 417px; margin-right: 200px;""><img src=""images/choice_trial_8.png"" style=""width: 408px; height: 417px;""></div></div>","f","delaylearn","learning","trial","55e876f25e4d360012cc283d","Fk4Z6bxutfUrJ3Te9yL3M9UxTEn1","1","images/choice_trial_7.png","images/choice_trial_8.png","images/pattern_4.png","f","f","7000","7","8","3","0","11","1","1","7","70","","","","",""
"html-keyboard-response","58","106714","0.0-26.0-1.0","","null","<div style=""display: flex; flex-direction: column; align-items: center; margin-top: -40px;""><img src=""images/pattern_4.png"" style=""width: 234px; height: 230px; margin-top: -50px;""><div style=""display: flex; justify-content: space-between; margin-top: 33px;""><img src=""images/choice_trial_7.png"" style=""width: 408px; height: 417px; margin-right: 608px;""></div></div>","null","delaylearn","learning","display_response","55e876f25e4d360012cc283d","Fk4Z6bxutfUrJ3Te9yL3M9UxTEn1","","","","","","","","","","","","","","","","","chosen stimuli: images/choice_trial_7.png","","","",""
"html-keyboard-response","59","113725","0.0-26.0-2.0","","null","","null","delaylearn","learning","feedback_duration_window","55e876f25e4d360012cc283d","Fk4Z6bxutfUrJ3Te9yL3M9UxTEn1","","","","","","","","","","","","","","","","","","7000","","",""
"html-keyboard-response","60","115238","0.0-26.0-3.0","","null","<div style='margin:auto;width: auto; font-size: 150%'><span style='font-weight: bold; font-size: 100px; color: green;'>+10 points!</span><br><br></div>","null","delaylearn","learning","feedback_image_window","55e876f25e4d360012cc283d","Fk4Z6bxutfUrJ3Te9yL3M9UxTEn1","","","","","","","","","","","","","","","","","","","","",""
"html-keyboard-response","61","116798","0.0-27.0","","null","<div style=""font-size:100px;"">+</div>","null","delaylearn","learning","ITI","55e876f25e4d360012cc283d","Fk4Z6bxutfUrJ3Te9yL3M9UxTEn1","","","","","","","","","","","","","","","","","","","1559","",""
"html-keyboard-response","62","118120","0.0-28.0-0.0","","1319.7999997138977","<div style=""display: flex; flex-direction: column; align-items: center; margin-top: -40px;""><img src=""images/pattern_5.png"" style=""width: 234px; height: 230px; margin-top: -50px;""><div style=""display: flex; justify-content: space-between; margin-top: 33px;""><img src=""images/choice_trial_10.png"" style=""width: 408px; height: 417px; margin-right: 200px;""><img src=""images/choice_trial_9.png"" style=""width: 408px; height: 417px;""></div></div>","j","delaylearn","learning","trial","55e876f25e4d360012cc283d","Fk4Z6bxutfUrJ3Te9yL3M9UxTEn1","1","images/choice_trial_10.png","images/choice_trial_9.png","images/pattern_5.png","j","j","750","10","9","4","1","12","1","1","9","80","","","","",""
"html-keyboard-response","63","119125","0.0-28.0-1.0","","null","<div style=""display: flex; flex-direction: column; align-items: center; margin-top: -40px;""><img src=""images/pattern_5.png"" style=""width: 234px; height: 230px; margin-top: -50px;""><div style=""display: flex; justify-content: space-between; margin-top: 33px;""><img src=""images/choice_trial_9.png"" style=""width: 408px; height: 417px; margin-left:608px;""></div></div>","null","delaylearn","learning","display_response","55e876f25e4d360012cc283d","Fk4Z6bxutfUrJ3Te9yL3M9UxTEn1","","","","","","","","","","","","","","","","","chosen stimuli: images/choice_trial_9.png","","","",""
"html-keyboard-response","64","119889","0.0-28.0-2.0","","null","","null","delaylearn","learning","feedback_duration_window","55e876f25e4d360012cc283d","Fk4Z6bxutfUrJ3Te9yL3M9UxTEn1","","","","","","","","","","","","","","","","","","750","","",""
"html-keyboard-response","65","121400","0.0-28.0-3.0","","null","<div style='margin:auto;width: auto; font-size: 150%'><span style='font-weight: bold; font-size: 100px; color: green;'>+10 points!</span><br><br></div>","null","delaylearn","learning","feedback_image_window","55e876f25e4d360012cc283d","Fk4Z6bxutfUrJ3Te9yL3M9UxTEn1","","","","","","","","","","","","","","","","","","","","",""
"html-keyboard-response","66","123512","0.0-29.0","","null","<div style=""font-size:100px;"">+</div>","null","delaylearn","learning","ITI","55e876f25e4d360012cc283d","Fk4Z6bxutfUrJ3Te9yL3M9UxTEn1","","","","","","","","","","","","","","","","","","","2099","",""
"html-keyboard-response","67","125063","0.0-30.0-0.0","","1548.1000003814697","<div style=""display: flex; flex-direction: column; align-items: center; margin-top: -40px;""><img src=""images/pattern_6.png"" style=""width: 234px; height: 230px; margin-top: -50px;""><div style=""display: flex; justify-content: space-between; margin-top: 33px;""><img src=""images/choice_trial_11.png"" style=""width: 408px; height: 417px; margin-right: 200px;""><img src=""images/choice_trial_12.png"" style=""width: 408px; height: 417px;""></div></div>","f","delaylearn","learning","trial","55e876f25e4d360012cc283d","Fk4Z6bxutfUrJ3Te9yL3M9UxTEn1","1","images/choice_trial_11.png","images/choice_trial_12.png","images/pattern_6.png","j","f","750","11","12","5","0","13","1","0","11","80","","","","",""
"html-keyboard-response","68","126068","0.0-30.0-1.0","","null","<div style=""display: flex; flex-direction: column; align-items: center; margin-top: -40px;""><img src=""images/pattern_6.png"" style=""width: 234px; height: 230px; margin-top: -50px;""><div style=""display: flex; justify-content: space-between; margin-top: 33px;""><img src=""images/choice_trial_11.png"" style=""width: 408px; height: 417px; margin-right: 608px;""></div></div>","null","delaylearn","learning","display_response","55e876f25e4d360012cc283d","Fk4Z6bxutfUrJ3Te9yL3M9UxTEn1","","","","","","","","","","","","","","","","","chosen stimuli: images/choice_trial_11.png","","","",""
"html-keyboard-response","69","126835","0.0-30.0-2.0","","null","","null","delaylearn","learning","feedback_duration_window","55e876f25e4d360012cc283d","Fk4Z6bxutfUrJ3Te9yL3M9UxTEn1","","","","","","","","","","","","","","","","","","750","","",""
"html-keyboard-response","70","128343","0.0-30.0-3.0","","null","<div style='margin:auto;width: auto; font-size: 150%'><span style='font-weight: bold; font-size: 100px; color: red;'>0 points!</span><br><br></div>","null","delaylearn","learning","feedback_image_window","55e876f25e4d360012cc283d","Fk4Z6bxutfUrJ3Te9yL3M9UxTEn1","","","","","","","","","","","","","","","","","","","","",""
"html-keyboard-response","71","128858","0.0-31.0-0.0","","null","","null","","","mood_trial_fixation","","","","","","","","","","","","","","","","","","","","","","",""
"lmdlab-html-vas-response","72","133064","0.0-31.0-1.0","","3200","How happy are you right now?","0.3534191459646745","delaylearn","learning","mood_trial","55e876f25e4d360012cc283d","Fk4Z6bxutfUrJ3Te9yL3M9UxTEn1","","","","","","","","","","","","","","","","","","","","[""Very unhappy"",""Very happy""]",""
"html-keyboard-response","73","135138","0.0-32.0","","null","<div style=""font-size:100px;"">+</div>","null","delaylearn","learning","ITI","55e876f25e4d360012cc283d","Fk4Z6bxutfUrJ3Te9yL3M9UxTEn1","","","","","","","","","","","","","","","","","","","2068","",""
"html-keyboard-response","74","136331","0.0-33.0-0.0","","1191.1999998092651","<div style=""display: flex; flex-direction: column; align-items: center; margin-top: -40px;""><img src=""images/pattern_1.png"" style=""width: 234px; height: 230px; margin-top: -50px;""><div style=""display: flex; justify-content: space-between; margin-top: 33px;""><img src=""images/choice_trial_2.png"" style=""width: 408px; height: 417px; margin-right: 200px;""><img src=""images/choice_trial_1.png"" style=""width: 408px; height: 417px;""></div></div>","j","delaylearn","learning","trial","55e876f25e4d360012cc283d","Fk4Z6bxutfUrJ3Te9yL3M9UxTEn1","1","images/choice_trial_2.png","images/choice_trial_1.png","images/pattern_1.png","j","j","7000","2","1","1","1","14","1","1","1","90","","","","",""
"html-keyboard-response","75","137342","0.0-33.0-1.0","","null","<div style=""display: flex; flex-direction: column; align-items: center; margin-top: -40px;""><img src=""images/pattern_1.png"" style=""width: 234px; height: 230px; margin-top: -50px;""><div style=""display: flex; justify-content: space-between; margin-top: 33px;""><img src=""images/choice_trial_1.png"" style=""width: 408px; height: 417px; margin-left:608px;""></div></div>","null","delaylearn","learning","display_response","55e876f25e4d360012cc283d","Fk4Z6bxutfUrJ3Te9yL3M9UxTEn1","","","","","","","","","","","","","","","","","chosen stimuli: images/choice_trial_1.png","","","",""
"html-keyboard-response","76","144355","0.0-33.0-2.0","","null","","null","delaylearn","learning","feedback_duration_window","55e876f25e4d360012cc283d","Fk4Z6bxutfUrJ3Te9yL3M9UxTEn1","","","","","","","","","","","","","","","","","","7000","","",""
"html-keyboard-response","77","145869","0.0-33.0-3.0","","null","<div style='margin:auto;width: auto; font-size: 150%'><span style='font-weight: bold; font-size: 100px; color: green;'>+10 points!</span><br><br></div>","null","delaylearn","learning","feedback_image_window","55e876f25e4d360012cc283d","Fk4Z6bxutfUrJ3Te9yL3M9UxTEn1","","","","","","","","","","","","","","","","","","","","",""
"html-keyboard-response","78","147991","0.0-34.0","","null","<div style=""font-size:100px;"">+</div>","null","delaylearn","learning","ITI","55e876f25e4d360012cc283d","Fk4Z6bxutfUrJ3Te9yL3M9UxTEn1","","","","","","","","","","","","","","","","","","","2108","",""
"html-keyboard-response","79","149845","0.0-35.0-0.0","","1851.7999997138977","<div style=""display: flex; flex-direction: column; align-items: center; margin-top: -40px;""><img src=""images/pattern_3.png"" style=""width: 234px; height: 230px; margin-top: -50px;""><div style=""display: flex; justify-content: space-between; margin-top: 33px;""><img src=""images/choice_trial_6.png"" style=""width: 408px; height: 417px; margin-right: 200px;""><img src=""images/choice_trial_5.png"" style=""width: 408px; height: 417px;""></div></div>","f","delaylearn","learning","trial","55e876f25e4d360012cc283d","Fk4Z6bxutfUrJ3Te9yL3M9UxTEn1","1","images/choice_trial_6.png","images/choice_trial_5.png","images/pattern_3.png","f","j","7000","6","5","2","1","15","0","1","6","100","","","","",""
"html-keyboard-response","80","150853","0.0-35.0-1.0","","null","<div style=""display: flex; flex-direction: column; align-items: center; margin-top: -40px;""><img src=""images/pattern_3.png"" style=""width: 234px; height: 230px; margin-top: -50px;""><div style=""display: flex; justify-content: space-between; margin-top: 33px;""><img src=""images/choice_trial_6.png"" style=""width: 408px; height: 417px; margin-right: 608px;""></div></div>","null","delaylearn","learning","display_response","55e876f25e4d360012cc283d","Fk4Z6bxutfUrJ3Te9yL3M9UxTEn1","","","","","","","","","","","","","","","","","chosen stimuli: images/choice_trial_6.png","","","",""
"html-keyboard-response","81","157857","0.0-35.0-2.0","","null","","null","delaylearn","learning","feedback_duration_window","55e876f25e4d360012cc283d","Fk4Z6bxutfUrJ3Te9yL3M9UxTEn1","","","","","","","","","","","","","","","","","","7000","","",""
"html-keyboard-response","82","159374","0.0-35.0-3.0","","null","<div style='margin:auto;width: auto; font-size: 150%'><span style='font-weight: bold; font-size: 100px; color: green;'>+10 points!</span><br><br></div>","null","delaylearn","learning","feedback_image_window","55e876f25e4d360012cc283d","Fk4Z6bxutfUrJ3Te9yL3M9UxTEn1","","","","","","","","","","","","","","","","","","","","",""
"html-keyboard-response","83","160957","0.0-36.0","","null","<div style=""font-size:100px;"">+</div>","null","delaylearn","learning","ITI","55e876f25e4d360012cc283d","Fk4Z6bxutfUrJ3Te9yL3M9UxTEn1","","","","","","","","","","","","","","","","","","","1579","",""
"html-keyboard-response","84","162245","0.0-37.0-0.0","","1285.1999998092651","<div style=""display: flex; flex-direction: column; align-items: center; margin-top: -40px;""><img src=""images/pattern_5.png"" style=""width: 234px; height: 230px; margin-top: -50px;""><div style=""display: flex; justify-content: space-between; margin-top: 33px;""><img src=""images/choice_trial_9.png"" style=""width: 408px; height: 417px; margin-right: 200px;""><img src=""images/choice_trial_10.png"" style=""width: 408px; height: 417px;""></div></div>","j","delaylearn","learning","trial","55e876f25e4d360012cc283d","Fk4Z6bxutfUrJ3Te9yL3M9UxTEn1","1","images/choice_trial_9.png","images/choice_trial_10.png","images/pattern_5.png","f","f","750","9","10","4","0","16","0","0","10","100","","","","",""
"html-keyboard-response","85","163261","0.0-37.0-1.0","","null","<div style=""display: flex; flex-direction: column; align-items: center; margin-top: -40px;""><img src=""images/pattern_5.png"" style=""width: 234px; height: 230px; margin-top: -50px;""><div style=""display: flex; justify-content: space-between; margin-top: 33px;""><img src=""images/choice_trial_10.png"" style=""width: 408px; height: 417px; margin-left:608px;""></div></div>","null","delaylearn","learning","display_response","55e876f25e4d360012cc283d","Fk4Z6bxutfUrJ3Te9yL3M9UxTEn1","","","","","","","","","","","","","","","","","chosen stimuli: images/choice_trial_10.png","","","",""
"html-keyboard-response","86","164027","0.0-37.0-2.0","","null","","null","delaylearn","learning","feedback_duration_window","55e876f25e4d360012cc283d","Fk4Z6bxutfUrJ3Te9yL3M9UxTEn1","","","","","","","","","","","","","","","","","","750","","",""
"html-keyboard-response","87","165542","0.0-37.0-3.0","","null","<div style='margin:auto;width: auto; font-size: 150%'><span style='font-weight: bold; font-size: 100px; color: red;'>0 points!</span><br><br></div>","null","delaylearn","learning","feedback_image_window","55e876f25e4d360012cc283d","Fk4Z6bxutfUrJ3Te9yL3M9UxTEn1","","","","","","","","","","","","","","","","","","","","",""
"html-keyboard-response","88","166045","0.0-38.0-0.0","","null","","null","","","mood_trial_fixation","","","","","","","","","","","","","","","","","","","","","","",""
"lmdlab-html-vas-response","89","169913","0.0-38.0-1.0","","2849","How happy are you right now?","0.4614438322352736","delaylearn","learning","mood_trial","55e876f25e4d360012cc283d","Fk4Z6bxutfUrJ3Te9yL3M9UxTEn1","","","","","","","","","","","","","","","","","","","","[""Very unhappy"",""Very happy""]",""
"html-keyboard-response","90","172005","0.0-39.0","","null","<div style=""font-size:100px;"">+</div>","null","delaylearn","learning","ITI","55e876f25e4d360012cc283d","Fk4Z6bxutfUrJ3Te9yL3M9UxTEn1","","","","","","","","","","","","","","","","","","","2088","",""
"html-keyboard-response","91","173835","0.0-40.0-0.0","","1827.8000001907349","<div style=""display: flex; flex-direction: column; align-items: center; margin-top: -40px;""><img src=""images/pattern_6.png"" style=""width: 234px; height: 230px; margin-top: -50px;""><div style=""display: flex; justify-content: space-between; margin-top: 33px;""><img src=""images/choice_trial_11.png"" style=""width: 408px; height: 417px; margin-right: 200px;""><img src=""images/choice_trial_12.png"" style=""width: 408px; height: 417px;""></div></div>","f","delaylearn","learning","trial","55e876f25e4d360012cc283d","Fk4Z6bxutfUrJ3Te9yL3M9UxTEn1","1","images/choice_trial_11.png","images/choice_trial_12.png","images/pattern_6.png","f","f","750","11","12","5","0","17","1","1","11","110","","","","",""
"html-keyboard-response","92","174846","0.0-40.0-1.0","","null","<div style=""display: flex; flex-direction: column; align-items: center; margin-top: -40px;""><img src=""images/pattern_6.png"" style=""width: 234px; height: 230px; margin-top: -50px;""><div style=""display: flex; justify-content: space-between; margin-top: 33px;""><img src=""images/choice_trial_11.png"" style=""width: 408px; height: 417px; margin-right: 608px;""></div></div>","null","delaylearn","learning","display_response","55e876f25e4d360012cc283d","Fk4Z6bxutfUrJ3Te9yL3M9UxTEn1","","","","","","","","","","","","","","","","","chosen stimuli: images/choice_trial_11.png","","","",""
"html-keyboard-response","93","175604","0.0-40.0-2.0","","null","","null","delaylearn","learning","feedback_duration_window","55e876f25e4d360012cc283d","Fk4Z6bxutfUrJ3Te9yL3M9UxTEn1","","","","","","","","","","","","","","","","","","750","","",""
"html-keyboard-response","94","177112","0.0-40.0-3.0","","null","<div style='margin:auto;width: auto; font-size: 150%'><span style='font-weight: bold; font-size: 100px; color: green;'>+10 points!</span><br><br></div>","null","delaylearn","learning","feedback_image_window","55e876f25e4d360012cc283d","Fk4Z6bxutfUrJ3Te9yL3M9UxTEn1","","","","","","","","","","","","","","","","","","","","",""
"html-keyboard-response","95","178695","0.0-41.0","","null","<div style=""font-size:100px;"">+</div>","null","delaylearn","learning","ITI","55e876f25e4d360012cc283d","Fk4Z6bxutfUrJ3Te9yL3M9UxTEn1","","","","","","","","","","","","","","","","","","","1569","",""
"html-keyboard-response","96","180600","0.0-42.0-0.0","","1902.5999999046326","<div style=""display: flex; flex-direction: column; align-items: center; margin-top: -40px;""><img src=""images/pattern_4.png"" style=""width: 234px; height: 230px; margin-top: -50px;""><div style=""display: flex; justify-content: space-between; margin-top: 33px;""><img src=""images/choice_trial_8.png"" style=""width: 408px; height: 417px; margin-right: 200px;""><img src=""images/choice_trial_7.png"" style=""width: 408px; height: 417px;""></div></div>","j","delaylearn","learning","trial","55e876f25e4d360012cc283d","Fk4Z6bxutfUrJ3Te9yL3M9UxTEn1","1","images/choice_trial_8.png","images/choice_trial_7.png","images/pattern_4.png","j","j","7000","8","7","3","1","18","1","1","7","120","","","","",""
"html-keyboard-response","97","181612","0.0-42.0-1.0","","null","<div style=""display: flex; flex-direction: column; align-items: center; margin-top: -40px;""><img src=""images/pattern_4.png"" style=""width: 234px; height: 230px; margin-top: -50px;""><div style=""display: flex; justify-content: space-between; margin-top: 33px;""><img src=""images/choice_trial_7.png"" style=""width: 408px; height: 417px; margin-left:608px;""></div></div>","null","delaylearn","learning","display_response","55e876f25e4d360012cc283d","Fk4Z6bxutfUrJ3Te9yL3M9UxTEn1","","","","","","","","","","","","","","","","","chosen stimuli: images/choice_trial_7.png","","","",""
"html-keyboard-response","98","188621","0.0-42.0-2.0","","null","","null","delaylearn","learning","feedback_duration_window","55e876f25e4d360012cc283d","Fk4Z6bxutfUrJ3Te9yL3M9UxTEn1","","","","","","","","","","","","","","","","","","7000","","",""
"html-keyboard-response","99","190128","0.0-42.0-3.0","","null","<div style='margin:auto;width: auto; font-size: 150%'><span style='font-weight: bold; font-size: 100px; color: green;'>+10 points!</span><br><br></div>","null","delaylearn","learning","feedback_image_window","55e876f25e4d360012cc283d","Fk4Z6bxutfUrJ3Te9yL3M9UxTEn1","","","","","","","","","","","","","","","","","","","","",""
"html-keyboard-response","100","192470","0.0-43.0","","null","<div style=""font-size:100px;"">+</div>","null","delaylearn","learning","ITI","55e876f25e4d360012cc283d","Fk4Z6bxutfUrJ3Te9yL3M9UxTEn1","","","","","","","","","","","","","","","","","","","2328","",""
"html-keyboard-response","101","193928","0.0-44.0-0.0","","1455.5","<div style=""display: flex; flex-direction: column; align-items: center; margin-top: -40px;""><img src=""images/pattern_7.png"" style=""width: 234px; height: 230px; margin-top: -50px;""><div style=""display: flex; justify-content: space-between; margin-top: 33px;""><img src=""images/choice_trial_13.png"" style=""width: 408px; height: 417px; margin-right: 200px;""><img src=""images/choice_trial_14.png"" style=""width: 408px; height: 417px;""></div></div>","j","delaylearn","learning","trial","55e876f25e4d360012cc283d","Fk4Z6bxutfUrJ3Te9yL3M9UxTEn1","1","images/choice_trial_13.png","images/choice_trial_14.png","images/pattern_7.png","j","f","750","13","14","6","0","19","0","1","14","130","","","","",""
"html-keyboard-response","102","194941","0.0-44.0-1.0","","null","<div style=""display: flex; flex-direction: column; align-items: center; margin-top: -40px;""><img src=""images/pattern_7.png"" style=""width: 234px; height: 230px; margin-top: -50px;""><div style=""display: flex; justify-content: space-between; margin-top: 33px;""><img src=""images/choice_trial_14.png"" style=""width: 408px; height: 417px; margin-left:608px;""></div></div>","null","delaylearn","learning","display_response","55e876f25e4d360012cc283d","Fk4Z6bxutfUrJ3Te9yL3M9UxTEn1","","","","","","","","","","","","","","","","","chosen stimuli: images/choice_trial_14.png","","","",""
"html-keyboard-response","103","195705","0.0-44.0-2.0","","null","","null","delaylearn","learning","feedback_duration_window","55e876f25e4d360012cc283d","Fk4Z6bxutfUrJ3Te9yL3M9UxTEn1","","","","","","","","","","","","","","","","","","750","","",""
"html-keyboard-response","104","197211","0.0-44.0-3.0","","null","<div style='margin:auto;width: auto; font-size: 150%'><span style='font-weight: bold; font-size: 100px; color: green;'>+10 points!</span><br><br></div>","null","delaylearn","learning","feedback_image_window","55e876f25e4d360012cc283d","Fk4Z6bxutfUrJ3Te9yL3M9UxTEn1","","","","","","","","","","","","","","","","","","","","",""
"html-keyboard-response","105","199051","0.0-45.0","","null","<div style=""font-size:100px;"">+</div>","null","delaylearn","learning","ITI","55e876f25e4d360012cc283d","Fk4Z6bxutfUrJ3Te9yL3M9UxTEn1","","","","","","","","","","","","","","","","","","","1835","",""
"html-keyboard-response","106","201013","0.0-46.0-0.0","","1959.2999997138977","<div style=""display: flex; flex-direction: column; align-items: center; margin-top: -40px;""><img src=""images/pattern_1.png"" style=""width: 234px; height: 230px; margin-top: -50px;""><div style=""display: flex; justify-content: space-between; margin-top: 33px;""><img src=""images/choice_trial_1.png"" style=""width: 408px; height: 417px; margin-right: 200px;""><img src=""images/choice_trial_2.png"" style=""width: 408px; height: 417px;""></div></div>","f","delaylearn","learning","trial","55e876f25e4d360012cc283d","Fk4Z6bxutfUrJ3Te9yL3M9UxTEn1","1","images/choice_trial_1.png","images/choice_trial_2.png","images/pattern_1.png","f","f","7000","1","2","1","0","20","1","1","1","140","","","","",""
"html-keyboard-response","107","202027","0.0-46.0-1.0","","null","<div style=""display: flex; flex-direction: column; align-items: center; margin-top: -40px;""><img src=""images/pattern_1.png"" style=""width: 234px; height: 230px; margin-top: -50px;""><div style=""display: flex; justify-content: space-between; margin-top: 33px;""><img src=""images/choice_trial_1.png"" style=""width: 408px; height: 417px; margin-right: 608px;""></div></div>","null","delaylearn","learning","display_response","55e876f25e4d360012cc283d","Fk4Z6bxutfUrJ3Te9yL3M9UxTEn1","","","","","","","","","","","","","","","","","chosen stimuli: images/choice_trial_1.png","","","",""
"html-keyboard-response","108","209035","0.0-46.0-2.0","","null","","null","delaylearn","learning","feedback_duration_window","55e876f25e4d360012cc283d","Fk4Z6bxutfUrJ3Te9yL3M9UxTEn1","","","","","","","","","","","","","","","","","","7000","","",""
"html-keyboard-response","109","210541","0.0-46.0-3.0","","null","<div style='margin:auto;width: auto; font-size: 150%'><span style='font-weight: bold; font-size: 100px; color: green;'>+10 points!</span><br><br></div>","null","delaylearn","learning","feedback_image_window","55e876f25e4d360012cc283d","Fk4Z6bxutfUrJ3Te9yL3M9UxTEn1","","","","","","","","","","","","","","","","","","","","",""
"html-keyboard-response","110","212780","0.0-47.0","","null","<div style=""font-size:100px;"">+</div>","null","delaylearn","learning","ITI","55e876f25e4d360012cc283d","Fk4Z6bxutfUrJ3Te9yL3M9UxTEn1","","","","","","","","","","","","","","","","","","","2225","",""
"html-keyboard-response","111","214741","0.0-48.0-0.0","","1958.5","<div style=""display: flex; flex-direction: column; align-items: center; margin-top: -40px;""><img src=""images/pattern_6.png"" style=""width: 234px; height: 230px; margin-top: -50px;""><div style=""display: flex; justify-content: space-between; margin-top: 33px;""><img src=""images/choice_trial_12.png"" style=""width: 408px; height: 417px; margin-right: 200px;""><img src=""images/choice_trial_11.png"" style=""width: 408px; height: 417px;""></div></div>","f","delaylearn","learning","trial","55e876f25e4d360012cc283d","Fk4Z6bxutfUrJ3Te9yL3M9UxTEn1","1","images/choice_trial_12.png","images/choice_trial_11.png","images/pattern_6.png","j","j","750","12","11","5","1","21","0","0","12","140","","","","",""
"html-keyboard-response","112","215751","0.0-48.0-1.0","","null","<div style=""display: flex; flex-direction: column; align-items: center; margin-top: -40px;""><img src=""images/pattern_6.png"" style=""width: 234px; height: 230px; margin-top: -50px;""><div style=""display: flex; justify-content: space-between; margin-top: 33px;""><img src=""images/choice_trial_12.png"" style=""width: 408px; height: 417px; margin-right: 608px;""></div></div>","null","delaylearn","learning","display_response","55e876f25e4d360012cc283d","Fk4Z6bxutfUrJ3Te9yL3M9UxTEn1","","","","","","","","","","","","","","","","","chosen stimuli: images/choice_trial_12.png","","","",""
"html-keyboard-response","113","216517","0.0-48.0-2.0","","null","","null","delaylearn","learning","feedback_duration_window","55e876f25e4d360012cc283d","Fk4Z6bxutfUrJ3Te9yL3M9UxTEn1","","","","","","","","","","","","","","","","","","750","","",""
"html-keyboard-response","114","218022","0.0-48.0-3.0","","null","<div style='margin:auto;width: auto; font-size: 150%'><span style='font-weight: bold; font-size: 100px; color: red;'>0 points!</span><br><br></div>","null","delaylearn","learning","feedback_image_window","55e876f25e4d360012cc283d","Fk4Z6bxutfUrJ3Te9yL3M9UxTEn1","","","","","","","","","","","","","","","","","","","","",""
"html-keyboard-response","115","220109","0.0-49.0","","null","<div style=""font-size:100px;"">+</div>","null","delaylearn","learning","ITI","55e876f25e4d360012cc283d","Fk4Z6bxutfUrJ3Te9yL3M9UxTEn1","","","","","","","","","","","","","","","","","","","2079","",""
"html-keyboard-response","116","221916","0.0-50.0-0.0","","1804.5","<div style=""display: flex; flex-direction: column; align-items: center; margin-top: -40px;""><img src=""images/pattern_4.png"" style=""width: 234px; height: 230px; margin-top: -50px;""><div style=""display: flex; justify-content: space-between; margin-top: 33px;""><img src=""images/choice_trial_7.png"" style=""width: 408px; height: 417px; margin-right: 200px;""><img src=""images/choice_trial_8.png"" style=""width: 408px; height: 417px;""></div></div>","f","delaylearn","learning","trial","55e876f25e4d360012cc283d","Fk4Z6bxutfUrJ3Te9yL3M9UxTEn1","1","images/choice_trial_7.png","images/choice_trial_8.png","images/pattern_4.png","f","f","7000","7","8","3","0","22","1","1","7","150","","","","",""
"html-keyboard-response","117","222927","0.0-50.0-1.0","","null","<div style=""display: flex; flex-direction: column; align-items: center; margin-top: -40px;""><img src=""images/pattern_4.png"" style=""width: 234px; height: 230px; margin-top: -50px;""><div style=""display: flex; justify-content: space-between; margin-top: 33px;""><img src=""images/choice_trial_7.png"" style=""width: 408px; height: 417px; margin-right: 608px;""></div></div>","null","delaylearn","learning","display_response","55e876f25e4d360012cc283d","Fk4Z6bxutfUrJ3Te9yL3M9UxTEn1","","","","","","","","","","","","","","","","","chosen stimuli: images/choice_trial_7.png","","","",""
"html-keyboard-response","118","229934","0.0-50.0-2.0","","null","","null","delaylearn","learning","feedback_duration_window","55e876f25e4d360012cc283d","Fk4Z6bxutfUrJ3Te9yL3M9UxTEn1","","","","","","","","","","","","","","","","","","7000","","",""
"html-keyboard-response","119","231447","0.0-50.0-3.0","","null","<div style='margin:auto;width: auto; font-size: 150%'><span style='font-weight: bold; font-size: 100px; color: green;'>+10 points!</span><br><br></div>","null","delaylearn","learning","feedback_image_window","55e876f25e4d360012cc283d","Fk4Z6bxutfUrJ3Te9yL3M9UxTEn1","","","","","","","","","","","","","","","","","","","","",""
"html-keyboard-response","120","231961","0.0-51.0-0.0","","null","","null","","","mood_trial_fixation","","","","","","","","","","","","","","","","","","","","","","",""
"lmdlab-html-vas-response","121","236136","0.0-51.0-1.0","","3173","How happy are you right now?","0.5945456778186903","delaylearn","learning","mood_trial","55e876f25e4d360012cc283d","Fk4Z6bxutfUrJ3Te9yL3M9UxTEn1","","","","","","","","","","","","","","","","","","","","[""Very unhappy"",""Very happy""]",""
"html-keyboard-response","122","237776","0.0-52.0","","null","<div style=""font-size:100px;"">+</div>","null","delaylearn","learning","ITI","55e876f25e4d360012cc283d","Fk4Z6bxutfUrJ3Te9yL3M9UxTEn1","","","","","","","","","","","","","","","","","","","1626","",""
"html-keyboard-response","123","239678","0.0-53.0-0.0","","1898.7000002861023","<div style=""display: flex; flex-direction: column; align-items: center; margin-top: -40px;""><img src=""images/pattern_7.png"" style=""width: 234px; height: 230px; margin-top: -50px;""><div style=""display: flex; justify-content: space-between; margin-top: 33px;""><img src=""images/choice_trial_14.png"" style=""width: 408px; height: 417px; margin-right: 200px;""><img src=""images/choice_trial_13.png"" style=""width: 408px; height: 417px;""></div></div>","j","delaylearn","learning","trial","55e876f25e4d360012cc283d","Fk4Z6bxutfUrJ3Te9yL3M9UxTEn1","1","images/choice_trial_14.png","images/choice_trial_13.png","images/pattern_7.png","j","j","750","14","13","6","1","23","1","1","13","160","","","","",""
"html-keyboard-response","124","240692","0.0-53.0-1.0","","null","<div style=""display: flex; flex-direction: column; align-items: center; margin-top: -40px;""><img src=""images/pattern_7.png"" style=""width: 234px; height: 230px; margin-top: -50px;""><div style=""display: flex; justify-content: space-between; margin-top: 33px;""><img src=""images/choice_trial_13.png"" style=""width: 408px; height: 417px; margin-left:608px;""></div></div>","null","delaylearn","learning","display_response","55e876f25e4d360012cc283d","Fk4Z6bxutfUrJ3Te9yL3M9UxTEn1","","","","","","","","","","","","","","","","","chosen stimuli: images/choice_trial_13.png","","","",""
"html-keyboard-response","125","241458","0.0-53.0-2.0","","null","","null","delaylearn","learning","feedback_duration_window","55e876f25e4d360012cc283d","Fk4Z6bxutfUrJ3Te9yL3M9UxTEn1","","","","","","","","","","","","","","","","","","750","","",""
"html-keyboard-response","126","242973","0.0-53.0-3.0","","null","<div style='margin:auto;width: auto; font-size: 150%'><span style='font-weight: bold; font-size: 100px; color: green;'>+10 points!</span><br><br></div>","null","delaylearn","learning","feedback_image_window","55e876f25e4d360012cc283d","Fk4Z6bxutfUrJ3Te9yL3M9UxTEn1","","","","","","","","","","","","","","","","","","","","",""
"html-keyboard-response","127","245092","0.0-54.0","","null","<div style=""font-size:100px;"">+</div>","null","delaylearn","learning","ITI","55e876f25e4d360012cc283d","Fk4Z6bxutfUrJ3Te9yL3M9UxTEn1","","","","","","","","","","","","","","","","","","","2102","",""
"html-keyboard-response","128","246264","0.0-55.0-0.0","","1168.7999997138977","<div style=""display: flex; flex-direction: column; align-items: center; margin-top: -40px;""><img src=""images/pattern_1.png"" style=""width: 234px; height: 230px; margin-top: -50px;""><div style=""display: flex; justify-content: space-between; margin-top: 33px;""><img src=""images/choice_trial_2.png"" style=""width: 408px; height: 417px; margin-right: 200px;""><img src=""images/choice_trial_1.png"" style=""width: 408px; height: 417px;""></div></div>","f","delaylearn","learning","trial","55e876f25e4d360012cc283d","Fk4Z6bxutfUrJ3Te9yL3M9UxTEn1","1","images/choice_trial_2.png","images/choice_trial_1.png","images/pattern_1.png","f","j","7000","2","1","1","1","24","0","1","2","170","","","","",""
"html-keyboard-response","129","247271","0.0-55.0-1.0","","null","<div style=""display: flex; flex-direction: column; align-items: center; margin-top: -40px;""><img src=""images/pattern_1.png"" style=""width: 234px; height: 230px; margin-top: -50px;""><div style=""display: flex; justify-content: space-between; margin-top: 33px;""><img src=""images/choice_trial_2.png"" style=""width: 408px; height: 417px; margin-right: 608px;""></div></div>","null","delaylearn","learning","display_response","55e876f25e4d360012cc283d","Fk4Z6bxutfUrJ3Te9yL3M9UxTEn1","","","","","","","","","","","","","","","","","chosen stimuli: images/choice_trial_2.png","","","",""
"html-keyboard-response","130","254285","0.0-55.0-2.0","","null","","null","delaylearn","learning","feedback_duration_window","55e876f25e4d360012cc283d","Fk4Z6bxutfUrJ3Te9yL3M9UxTEn1","","","","","","","","","","","","","","","","","","7000","","",""
"html-keyboard-response","131","255789","0.0-55.0-3.0","","null","<div style='margin:auto;width: auto; font-size: 150%'><span style='font-weight: bold; font-size: 100px; color: green;'>+10 points!</span><br><br></div>","null","delaylearn","learning","feedback_image_window","55e876f25e4d360012cc283d","Fk4Z6bxutfUrJ3Te9yL3M9UxTEn1","","","","","","","","","","","","","","","","","","","","",""
"html-keyboard-response","132","257832","0.0-56.0","","null","<div style=""font-size:100px;"">+</div>","null","delaylearn","learning","ITI","55e876f25e4d360012cc283d","Fk4Z6bxutfUrJ3Te9yL3M9UxTEn1","","","","","","","","","","","","","","","","","","","2035","",""
"html-keyboard-response","133","259279","0.0-57.0-0.0","","1445.0999999046326","<div style=""display: flex; flex-direction: column; align-items: center; margin-top: -40px;""><img src=""images/pattern_5.png"" style=""width: 234px; height: 230px; margin-top: -50px;""><div style=""display: flex; justify-content: space-between; margin-top: 33px;""><img src=""images/choice_trial_10.png"" style=""width: 408px; height: 417px; margin-right: 200px;""><img src=""images/choice_trial_9.png"" style=""width: 408px; height: 417px;""></div></div>","f","delaylearn","learning","trial","55e876f25e4d360012cc283d","Fk4Z6bxutfUrJ3Te9yL3M9UxTEn1","1","images/choice_trial_10.png","images/choice_trial_9.png","images/pattern_5.png","j","j","750","10","9","4","1","25","0","0","10","170","","","","",""
"html-keyboard-response","134","260282","0.0-57.0-1.0","","null","<div style=""display: flex; flex-direction: column; align-items: center; margin-top: -40px;""><img src=""images/pattern_5.png"" style=""width: 234px; height: 230px; margin-top: -50px;""><div style=""display: flex; justify-content: space-between; margin-top: 33px;""><img src=""images/choice_trial_10.png"" style=""width: 408px; height: 417px; margin-right: 608px;""></div></div>","null","delaylearn","learning","display_response","55e876f25e4d360012cc283d","Fk4Z6bxutfUrJ3Te9yL3M9UxTEn1","","","","","","","","","","","","","","","","","chosen stimuli: images/choice_trial_10.png","","","",""
"html-keyboard-response","135","261034","0.0-57.0-2.0","","null","","null","delaylearn","learning","feedback_duration_window","55e876f25e4d360012cc283d","Fk4Z6bxutfUrJ3Te9yL3M9UxTEn1","","","","","","","","","","","","","","","","","","750","","",""
"html-keyboard-response","136","262547","0.0-57.0-3.0","","null","<div style='margin:auto;width: auto; font-size: 150%'><span style='font-weight: bold; font-size: 100px; color: red;'>0 points!</span><br><br></div>","null","delaylearn","learning","feedback_image_window","55e876f25e4d360012cc283d","Fk4Z6bxutfUrJ3Te9yL3M9UxTEn1","","","","","","","","","","","","","","","","","","","","",""
"html-keyboard-response","137","264421","0.0-58.0","","null","<div style=""font-size:100px;"">+</div>","null","delaylearn","learning","ITI","55e876f25e4d360012cc283d","Fk4Z6bxutfUrJ3Te9yL3M9UxTEn1","","","","","","","","","","","","","","","","","","","1866","",""
"html-keyboard-response","138","266195","0.0-59.0-0.0","","1772.1999998092651","<div style=""display: flex; flex-direction: column; align-items: center; margin-top: -40px;""><img src=""images/pattern_3.png"" style=""width: 234px; height: 230px; margin-top: -50px;""><div style=""display: flex; justify-content: space-between; margin-top: 33px;""><img src=""images/choice_trial_6.png"" style=""width: 408px; height: 417px; margin-right: 200px;""><img src=""images/choice_trial_5.png"" style=""width: 408px; height: 417px;""></div></div>","f","delaylearn","learning","trial","55e876f25e4d360012cc283d","Fk4Z6bxutfUrJ3Te9yL3M9UxTEn1","1","images/choice_trial_6.png","images/choice_trial_5.png","images/pattern_3.png","j","j","7000","6","5","2","1","26","0","0","6","170","","","","",""
"html-keyboard-response","139","267203","0.0-59.0-1.0","","null","<div style=""display: flex; flex-direction: column; align-items: center; margin-top: -40px;""><img src=""images/pattern_3.png"" style=""width: 234px; height: 230px; margin-top: -50px;""><div style=""display: flex; justify-content: space-between; margin-top: 33px;""><img src=""images/choice_trial_6.png"" style=""width: 408px; height: 417px; margin-right: 608px;""></div></div>","null","delaylearn","learning","display_response","55e876f25e4d360012cc283d","Fk4Z6bxutfUrJ3Te9yL3M9UxTEn1","","","","","","","","","","","","","","","","","chosen stimuli: images/choice_trial_6.png","","","",""
"html-keyboard-response","140","274216","0.0-59.0-2.0","","null","","null","delaylearn","learning","feedback_duration_window","55e876f25e4d360012cc283d","Fk4Z6bxutfUrJ3Te9yL3M9UxTEn1","","","","","","","","","","","","","","","","","","7000","","",""
"html-keyboard-response","141","275722","0.0-59.0-3.0","","null","<div style='margin:auto;width: auto; font-size: 150%'><span style='font-weight: bold; font-size: 100px; color: red;'>0 points!</span><br><br></div>","null","delaylearn","learning","feedback_image_window","55e876f25e4d360012cc283d","Fk4Z6bxutfUrJ3Te9yL3M9UxTEn1","","","","","","","","","","","","","","","","","","","","",""
"lmdlab-html-vas-response","142","281272","0.0-60.0-0.0","","4034","*How <b><u>confident</u></b> are you feeling about your answers at this moment?*","0.5540122842665174","rewlearn","rate_confidence","","55e876f25e4d360012cc283d","Fk4Z6bxutfUrJ3Te9yL3M9UxTEn1","","","","","","","","","","","","","","","","","","","","[""No confidence"",""Complete confidence""]",""
"lmdlab-rest-trial-limit","143","298681","0.0-60.0-1.0","","15892.10000038147","<div style=""font-size:40px;""><b>Please take a break!</b><br><br><br><br><p>Great work: you earned 170 points.<br><br><br><p>You have completed part(s) 1 of 5.<br><br><br><br>When you are ready to continue<br><br><br>please click the button.</p><br><br>","0","delaylearn","learning","break","55e876f25e4d360012cc283d","Fk4Z6bxutfUrJ3Te9yL3M9UxTEn1","","","","","","","","","","","","","","","","","","","","","0"
"html-keyboard-response","144","301683","0.0-60.0-2.0","","null","<div style=""font-size:100px;"">+</div>","null","delaylearn","learning","pre_fixation","55e876f25e4d360012cc283d","","","","","","","","","","","","","","","","","","","","","",""
"lmdlab-html-vas-response","145","306209","0.0-60.0-3.0-0.0","","3512","How happy are you right now?","0.5386043224285586","delaylearn","learning","mood_baseline","55e876f25e4d360012cc283d","Fk4Z6bxutfUrJ3Te9yL3M9UxTEn1","","","","","","","","","","","","","","","","","","","","[""Very unhappy"",""Very happy""]",""
"html-keyboard-response","146","307717","0.0-60.0-3.0-1.0","","null","","null","","","mood_baseline_fixation","","","","","","","","","","","","","","","","","","","","","","",""
"html-keyboard-response","147","309637","0.0-61.0","","null","<div style=""font-size:100px;"">+</div>","null","delaylearn","learning","ITI","55e876f25e4d360012cc283d","Fk4Z6bxutfUrJ3Te9yL3M9UxTEn1","","","","","","","","","","","","","","","","","","","1912","",""
"html-keyboard-response","148","311180","0.0-62.0-0.0","","1539.9000000953674","<div style=""display: flex; flex-direction: column; align-items: center; margin-top: -40px;""><img src=""images/pattern_7.png"" style=""width: 234px; height: 230px; margin-top: -50px;""><div style=""display: flex; justify-content: space-between; margin-top: 33px;""><img src=""images/choice_trial_14.png"" style=""width: 408px; height: 417px; margin-right: 200px;""><img src=""images/choice_trial_13.png"" style=""width: 408px; height: 417px;""></div></div>","j","delaylearn","learning","trial","55e876f25e4d360012cc283d","Fk4Z6bxutfUrJ3Te9yL3M9UxTEn1","1","images/choice_trial_14.png","images/choice_trial_13.png","images/pattern_7.png","j","j","750","14","13","6","1","27","1","1","13","180","","","","",""
"html-keyboard-response","149","312186","0.0-62.0-1.0","","null","<div style=""display: flex; flex-direction: column; align-items: center; margin-top: -40px;""><img src=""images/pattern_7.png"" style=""width: 234px; height: 230px; margin-top: -50px;""><div style=""display: flex; justify-content: space-between; margin-top: 33px;""><img src=""images/choice_trial_13.png"" style=""width: 408px; height: 417px; margin-left:608px;""></div></div>","null","delaylearn","learning","display_response","55e876f25e4d360012cc283d","Fk4Z6bxutfUrJ3Te9yL3M9UxTEn1","","","","","","","","","","","","","","","","","chosen stimuli: images/choice_trial_13.png","","","",""
"html-keyboard-response","150","312939","0.0-62.0-2.0","","null","","null","delaylearn","learning","feedback_duration_window","55e876f25e4d360012cc283d","Fk4Z6bxutfUrJ3Te9yL3M9UxTEn1","","","","","","","","","","","","","","","","","","750","","",""
"html-keyboard-response","151","314453","0.0-62.0-3.0","","null","<div style='margin:auto;width: auto; font-size: 150%'><span style='font-weight: bold; font-size: 100px; color: green;'>+10 points!</span><br><br></div>","null","delaylearn","learning","feedback_image_window","55e876f25e4d360012cc283d","Fk4Z6bxutfUrJ3Te9yL3M9UxTEn1","","","","","","","","","","","","","","","","","","","","",""
"html-keyboard-response","152","314965","0.0-63.0-0.0","","null","","null","","","mood_trial_fixation","","","","","","","","","","","","","","","","","","","","","","",""
"lmdlab-html-vas-response","153","319017","0.0-63.0-1.0","","3044","How happy are you right now?","0.6697771557571432","delaylearn","learning","mood_trial","55e876f25e4d360012cc283d","Fk4Z6bxutfUrJ3Te9yL3M9UxTEn1","","","","","","","","","","","","","","","","","","","","[""Very unhappy"",""Very happy""]",""
"html-keyboard-response","154","320775","0.0-64.0","","null","<div style=""font-size:100px;"">+</div>","null","delaylearn","learning","ITI","55e876f25e4d360012cc283d","Fk4Z6bxutfUrJ3Te9yL3M9UxTEn1","","","","","","","","","","","","","","","","","","","1751","",""
"html-keyboard-response","155","322171","0.0-65.0-0.0","","1393.5999999046326","<div style=""display: flex; flex-direction: column; align-items: center; margin-top: -40px;""><img src=""images/pattern_1.png"" style=""width: 234px; height: 230px; margin-top: -50px;""><div style=""display: flex; justify-content: space-between; margin-top: 33px;""><img src=""images/choice_trial_1.png"" style=""width: 408px; height: 417px; margin-right: 200px;""><img src=""images/choice_trial_2.png"" style=""width: 408px; height: 417px;""></div></div>","j","delaylearn","learning","trial","55e876f25e4d360012cc283d","Fk4Z6bxutfUrJ3Te9yL3M9UxTEn1","1","images/choice_trial_1.png","images/choice_trial_2.png","images/pattern_1.png","f","f","7000","1","2","1","0","28","0","0","2","180","","","","",""
"html-keyboard-response","156","323183","0.0-65.0-1.0","","null","<div style=""display: flex; flex-direction: column; align-items: center; margin-top: -40px;""><img src=""images/pattern_1.png"" style=""width: 234px; height: 230px; margin-top: -50px;""><div style=""display: flex; justify-content: space-between; margin-top: 33px;""><img src=""images/choice_trial_2.png"" style=""width: 408px; height: 417px; margin-left:608px;""></div></div>","null","delaylearn","learning","display_response","55e876f25e4d360012cc283d","Fk4Z6bxutfUrJ3Te9yL3M9UxTEn1","","","","","","","","","","","","","","","","","chosen stimuli: images/choice_trial_2.png","","","",""
"html-keyboard-response","157","330193","0.0-65.0-2.0","","null","","null","delaylearn","learning","feedback_duration_window","55e876f25e4d360012cc283d","Fk4Z6bxutfUrJ3Te9yL3M9UxTEn1","","","","","","","","","","","","","","","","","","7000","","",""
"html-keyboard-response","158","331707","0.0-65.0-3.0","","null","<div style='margin:auto;width: auto; font-size: 150%'><span style='font-weight: bold; font-size: 100px; color: red;'>0 points!</span><br><br></div>","null","delaylearn","learning","feedback_image_window","55e876f25e4d360012cc283d","Fk4Z6bxutfUrJ3Te9yL3M9UxTEn1","","","","","","","","","","","","","","","","","","","","",""
"html-keyboard-response","159","334012","0.0-66.0","","null","<div style=""font-size:100px;"">+</div>","null","delaylearn","learning","ITI","55e876f25e4d360012cc283d","Fk4Z6bxutfUrJ3Te9yL3M9UxTEn1","","","","","","","","","","","","","","","","","","","2294","",""
"html-keyboard-response","160","335893","0.0-67.0-0.0","","1879.0999999046326","<div style=""display: flex; flex-direction: column; align-items: center; margin-top: -40px;""><img src=""images/pattern_5.png"" style=""width: 234px; height: 230px; margin-top: -50px;""><div style=""display: flex; justify-content: space-between; margin-top: 33px;""><img src=""images/choice_trial_9.png"" style=""width: 408px; height: 417px; margin-right: 200px;""><img src=""images/choice_trial_10.png"" style=""width: 408px; height: 417px;""></div></div>","f","delaylearn","learning","trial","55e876f25e4d360012cc283d","Fk4Z6bxutfUrJ3Te9yL3M9UxTEn1","1","images/choice_trial_9.png","images/choice_trial_10.png","images/pattern_5.png","f","f","750","9","10","4","0","29","1","1","9","190","","","","",""
"html-keyboard-response","161","336908","0.0-67.0-1.0","","null","<div style=""display: flex; flex-direction: column; align-items: center; margin-top: -40px;""><img src=""images/pattern_5.png"" style=""width: 234px; height: 230px; margin-top: -50px;""><div style=""display: flex; justify-content: space-between; margin-top: 33px;""><img src=""images/choice_trial_9.png"" style=""width: 408px; height: 417px; margin-right: 608px;""></div></div>","null","delaylearn","learning","display_response","55e876f25e4d360012cc283d","Fk4Z6bxutfUrJ3Te9yL3M9UxTEn1","","","","","","","","","","","","","","","","","chosen stimuli: images/choice_trial_9.png","","","",""
"html-keyboard-response","162","337673","0.0-67.0-2.0","","null","","null","delaylearn","learning","feedback_duration_window","55e876f25e4d360012cc283d","Fk4Z6bxutfUrJ3Te9yL3M9UxTEn1","","","","","","","","","","","","","","","","","","750","","",""
"html-keyboard-response","163","339190","0.0-67.0-3.0","","null","<div style='margin:auto;width: auto; font-size: 150%'><span style='font-weight: bold; font-size: 100px; color: green;'>+10 points!</span><br><br></div>","null","delaylearn","learning","feedback_image_window","55e876f25e4d360012cc283d","Fk4Z6bxutfUrJ3Te9yL3M9UxTEn1","","","","","","","","","","","","","","","","","","","","",""
"html-keyboard-response","164","340988","0.0-68.0","","null","<div style=""font-size:100px;"">+</div>","null","delaylearn","learning","ITI","55e876f25e4d360012cc283d","Fk4Z6bxutfUrJ3Te9yL3M9UxTEn1","","","","","","","","","","","","","","","","","","","1787","",""
"html-keyboard-response","165","343005","0.0-69.0-0.0","","2014.5999999046326","<div style=""display: flex; flex-direction: column; align-items: center; margin-top: -40px;""><img src=""images/pattern_6.png"" style=""width: 234px; height: 230px; margin-top: -50px;""><div style=""display: flex; justify-content: space-between; margin-top: 33px;""><img src=""images/choice_trial_12.png"" style=""width: 408px; height: 417px; margin-right: 200px;""><img src=""images/choice_trial_11.png"" style=""width: 408px; height: 417px;""></div></div>","j","delaylearn","learning","trial","55e876f25e4d360012cc283d","Fk4Z6bxutfUrJ3Te9yL3M9UxTEn1","1","images/choice_trial_12.png","images/choice_trial_11.png","images/pattern_6.png","j","j","750","12","11","5","1","30","1","1","11","200","","","","",""
"html-keyboard-response","166","344017","0.0-69.0-1.0","","null","<div style=""display: flex; flex-direction: column; align-items: center; margin-top: -40px;""><img src=""images/pattern_6.png"" style=""width: 234px; height: 230px; margin-top: -50px;""><div style=""display: flex; justify-content: space-between; margin-top: 33px;""><img src=""images/choice_trial_11.png"" style=""width: 408px; height: 417px; margin-left:608px;""></div></div>","null","delaylearn","learning","display_response","55e876f25e4d360012cc283d","Fk4Z6bxutfUrJ3Te9yL3M9UxTEn1","","","","","","","","","","","","","","","","","chosen stimuli: images/choice_trial_11.png","","","",""
"html-keyboard-response","167","344775","0.0-69.0-2.0","","null","","null","delaylearn","learning","feedback_duration_window","55e876f25e4d360012cc283d","Fk4Z6bxutfUrJ3Te9yL3M9UxTEn1","","","","","","","","","","","","","","","","","","750","","",""
"html-keyboard-response","168","346288","0.0-69.0-3.0","","null","<div style='margin:auto;width: auto; font-size: 150%'><span style='font-weight: bold; font-size: 100px; color: green;'>+10 points!</span><br><br></div>","null","delaylearn","learning","feedback_image_window","55e876f25e4d360012cc283d","Fk4Z6bxutfUrJ3Te9yL3M9UxTEn1","","","","","","","","","","","","","","","","","","","","",""
"html-keyboard-response","169","346802","0.0-70.0-0.0","","null","","null","","","mood_trial_fixation","","","","","","","","","","","","","","","","","","","","","","",""
"lmdlab-html-vas-response","170","350679","0.0-70.0-1.0","","2861","How happy are you right now?","0.7006413518344572","delaylearn","learning","mood_trial","55e876f25e4d360012cc283d","Fk4Z6bxutfUrJ3Te9yL3M9UxTEn1","","","","","","","","","","","","","","","","","","","","[""Very unhappy"",""Very happy""]",""
"html-keyboard-response","171","352521","0.0-71.0","","null","<div style=""font-size:100px;"">+</div>","null","delaylearn","learning","ITI","55e876f25e4d360012cc283d","Fk4Z6bxutfUrJ3Te9yL3M9UxTEn1","","","","","","","","","","","","","","","","","","","1832","",""
"html-keyboard-response","172","354158","0.0-72.0-0.0","","1635.8000001907349","<div style=""display: flex; flex-direction: column; align-items: center; margin-top: -40px;""><img src=""images/pattern_4.png"" style=""width: 234px; height: 230px; margin-top: -50px;""><div style=""display: flex; justify-content: space-between; margin-top: 33px;""><img src=""images/choice_trial_8.png"" style=""width: 408px; height: 417px; margin-right: 200px;""><img src=""images/choice_trial_7.png"" style=""width: 408px; height: 417px;""></div></div>","j","delaylearn","learning","trial","55e876f25e4d360012cc283d","Fk4Z6bxutfUrJ3Te9yL3M9UxTEn1","1","images/choice_trial_8.png","images/choice_trial_7.png","images/pattern_4.png","j","j","7000","8","7","3","1","31","1","1","7","210","","","","",""
"html-keyboard-response","173","355160","0.0-72.0-1.0","","null","<div style=""display: flex; flex-direction: column; align-items: center; margin-top: -40px;""><img src=""images/pattern_4.png"" style=""width: 234px; height: 230px; margin-top: -50px;""><div style=""display: flex; justify-content: space-between; margin-top: 33px;""><img src=""images/choice_trial_7.png"" style=""width: 408px; height: 417px; margin-left:608px;""></div></div>","null","delaylearn","learning","display_response","55e876f25e4d360012cc283d","Fk4Z6bxutfUrJ3Te9yL3M9UxTEn1","","","","","","","","","","","","","","","","","chosen stimuli: images/choice_trial_7.png","","","",""
"html-keyboard-response","174","362165","0.0-72.0-2.0","","null","","null","delaylearn","learning","feedback_duration_window","55e876f25e4d360012cc283d","Fk4Z6bxutfUrJ3Te9yL3M9UxTEn1","","","","","","","","","","","","","","","","","","7000","","",""
"html-keyboard-response","175","363681","0.0-72.0-3.0","","null","<div style='margin:auto;width: auto; font-size: 150%'><span style='font-weight: bold; font-size: 100px; color: green;'>+10 points!</span><br><br></div>","null","delaylearn","learning","feedback_image_window","55e876f25e4d360012cc283d","Fk4Z6bxutfUrJ3Te9yL3M9UxTEn1","","","","","","","","","","","","","","","","","","","","",""
"html-keyboard-response","176","365669","0.0-73.0","","null","<div style=""font-size:100px;"">+</div>","null","delaylearn","learning","ITI","55e876f25e4d360012cc283d","Fk4Z6bxutfUrJ3Te9yL3M9UxTEn1","","","","","","","","","","","","","","","","","","","1976","",""
"html-keyboard-response","177","367067","0.0-74.0-0.0","","1395.7999997138977","<div style=""display: flex; flex-direction: column; align-items: center; margin-top: -40px;""><img src=""images/pattern_3.png"" style=""width: 234px; height: 230px; margin-top: -50px;""><div style=""display: flex; justify-content: space-between; margin-top: 33px;""><img src=""images/choice_trial_6.png"" style=""width: 408px; height: 417px; margin-right: 200px;""><img src=""images/choice_trial_5.png"" style=""width: 408px; height: 417px;""></div></div>","f","delaylearn","learning","trial","55e876f25e4d360012cc283d","Fk4Z6bxutfUrJ3Te9yL3M9UxTEn1","1","images/choice_trial_6.png","images/choice_trial_5.png","images/pattern_3.png","j","j","7000","6","5","2","1","32","0","0","6","210","","","","",""
"html-keyboard-response","178","368079","0.0-74.0-1.0","","null","<div style=""display: flex; flex-direction: column; align-items: center; margin-top: -40px;""><img src=""images/pattern_3.png"" style=""width: 234px; height: 230px; margin-top: -50px;""><div style=""display: flex; justify-content: space-between; margin-top: 33px;""><img src=""images/choice_trial_6.png"" style=""width: 408px; height: 417px; margin-right: 608px;""></div></div>","null","delaylearn","learning","display_response","55e876f25e4d360012cc283d","Fk4Z6bxutfUrJ3Te9yL3M9UxTEn1","","","","","","","","","","","","","","","","","chosen stimuli: images/choice_trial_6.png","","","",""
"html-keyboard-response","179","375094","0.0-74.0-2.0","","null","","null","delaylearn","learning","feedback_duration_window","55e876f25e4d360012cc283d","Fk4Z6bxutfUrJ3Te9yL3M9UxTEn1","","","","","","","","","","","","","","","","","","7000","","",""
"html-keyboard-response","180","376596","0.0-74.0-3.0","","null","<div style='margin:auto;width: auto; font-size: 150%'><span style='font-weight: bold; font-size: 100px; color: red;'>0 points!</span><br><br></div>","null","delaylearn","learning","feedback_image_window","55e876f25e4d360012cc283d","Fk4Z6bxutfUrJ3Te9yL3M9UxTEn1","","","","","","","","","","","","","","","","","","","","",""
"html-keyboard-response","181","378931","0.0-75.0","","null","<div style=""font-size:100px;"">+</div>","null","delaylearn","learning","ITI","55e876f25e4d360012cc283d","Fk4Z6bxutfUrJ3Te9yL3M9UxTEn1","","","","","","","","","","","","","","","","","","","2331","",""
"html-keyboard-response","182","380927","0.0-76.0-0.0","","1992.5","<div style=""display: flex; flex-direction: column; align-items: center; margin-top: -40px;""><img src=""images/pattern_5.png"" style=""width: 234px; height: 230px; margin-top: -50px;""><div style=""display: flex; justify-content: space-between; margin-top: 33px;""><img src=""images/choice_trial_9.png"" style=""width: 408px; height: 417px; margin-right: 200px;""><img src=""images/choice_trial_10.png"" style=""width: 408px; height: 417px;""></div></div>","f","delaylearn","learning","trial","55e876f25e4d360012cc283d","Fk4Z6bxutfUrJ3Te9yL3M9UxTEn1","1","images/choice_trial_9.png","images/choice_trial_10.png","images/pattern_5.png","j","f","750","9","10","4","0","33","1","0","9","210","","","","",""
"html-keyboard-response","183","381939","0.0-76.0-1.0","","null","<div style=""display: flex; flex-direction: column; align-items: center; margin-top: -40px;""><img src=""images/pattern_5.png"" style=""width: 234px; height: 230px; margin-top: -50px;""><div style=""display: flex; justify-content: space-between; margin-top: 33px;""><img src=""images/choice_trial_9.png"" style=""width: 408px; height: 417px; margin-right: 608px;""></div></div>","null","delaylearn","learning","display_response","55e876f25e4d360012cc283d","Fk4Z6bxutfUrJ3Te9yL3M9UxTEn1","","","","","","","","","","","","","","","","","chosen stimuli: images/choice_trial_9.png","","","",""
"html-keyboard-response","184","382701","0.0-76.0-2.0","","null","","null","delaylearn","learning","feedback_duration_window","55e876f25e4d360012cc283d","Fk4Z6bxutfUrJ3Te9yL3M9UxTEn1","","","","","","","","","","","","","","","","","","750","","",""
"html-keyboard-response","185","384210","0.0-76.0-3.0","","null","<div style='margin:auto;width: auto; font-size: 150%'><span style='font-weight: bold; font-size: 100px; color: red;'>0 points!</span><br><br></div>","null","delaylearn","learning","feedback_image_window","55e876f25e4d360012cc283d","Fk4Z6bxutfUrJ3Te9yL3M9UxTEn1","","","","","","","","","","","","","","","","","","","","",""
"html-keyboard-response","186","386496","0.0-77.0","","null","<div style=""font-size:100px;"">+</div>","null","delaylearn","learning","ITI","55e876f25e4d360012cc283d","Fk4Z6bxutfUrJ3Te9yL3M9UxTEn1","","","","","","","","","","","","","","","","","","","2274","",""
"html-keyboard-response","187","388125","0.0-78.0-0.0","","1626.2999997138977","<div style=""display: flex; flex-direction: column; align-items: center; margin-top: -40px;""><img src=""images/pattern_1.png"" style=""width: 234px; height: 230px; margin-top: -50px;""><div style=""display: flex; justify-content: space-between; margin-top: 33px;""><img src=""images/choice_trial_1.png"" style=""width: 408px; height: 417px; margin-right: 200px;""><img src=""images/choice_trial_2.png"" style=""width: 408px; height: 417px;""></div></div>","j","delaylearn","learning","trial","55e876f25e4d360012cc283d","Fk4Z6bxutfUrJ3Te9yL3M9UxTEn1","1","images/choice_trial_1.png","images/choice_trial_2.png","images/pattern_1.png","f","f","7000","1","2","1","0","34","0","0","2","210","","","","",""
"html-keyboard-response","188","389129","0.0-78.0-1.0","","null","<div style=""display: flex; flex-direction: column; align-items: center; margin-top: -40px;""><img src=""images/pattern_1.png"" style=""width: 234px; height: 230px; margin-top: -50px;""><div style=""display: flex; justify-content: space-between; margin-top: 33px;""><img src=""images/choice_trial_2.png"" style=""width: 408px; height: 417px; margin-left:608px;""></div></div>","null","delaylearn","learning","display_response","55e876f25e4d360012cc283d","Fk4Z6bxutfUrJ3Te9yL3M9UxTEn1","","","","","","","","","","","","","","","","","chosen stimuli: images/choice_trial_2.png","","","",""
"html-keyboard-response","189","396133","0.0-78.0-2.0","","null","","null","delaylearn","learning","feedback_duration_window","55e876f25e4d360012cc283d","Fk4Z6bxutfUrJ3Te9yL3M9UxTEn1","","","","","","","","","","","","","","","","","","7000","","",""
"html-keyboard-response","190","397646","0.0-78.0-3.0","","null","<div style='margin:auto;width: auto; font-size: 150%'><span style='font-weight: bold; font-size: 100px; color: red;'>0 points!</span><br><br></div>","null","delaylearn","learning","feedback_image_window","55e876f25e4d360012cc283d","Fk4Z6bxutfUrJ3Te9yL3M9UxTEn1","","","","","","","","","","","","","","","","","","","","",""
"html-keyboard-response","191","398158","0.0-79.0-0.0","","null","","null","","","mood_trial_fixation","","","","","","","","","","","","","","","","","","","","","","",""
"lmdlab-html-vas-response","192","402410","0.0-79.0-1.0","","3236","How happy are you right now?","0.2222463126360899","delaylearn","learning","mood_trial","55e876f25e4d360012cc283d","Fk4Z6bxutfUrJ3Te9yL3M9UxTEn1","","","","","","","","","","","","","","","","","","","","[""Very unhappy"",""Very happy""]",""
"html-keyboard-response","193","404891","0.0-80.0","","null","<div style=""font-size:100px;"">+</div>","null","delaylearn","learning","ITI","55e876f25e4d360012cc283d","Fk4Z6bxutfUrJ3Te9yL3M9UxTEn1","","","","","","","","","","","","","","","","","","","2476","",""
"html-keyboard-response","194","406319","0.0-81.0-0.0","","1426","<div style=""display: flex; flex-direction: column; align-items: center; margin-top: -40px;""><img src=""images/pattern_6.png"" style=""width: 234px; height: 230px; margin-top: -50px;""><div style=""display: flex; justify-content: space-between; margin-top: 33px;""><img src=""images/choice_trial_11.png"" style=""width: 408px; height: 417px; margin-right: 200px;""><img src=""images/choice_trial_12.png"" style=""width: 408px; height: 417px;""></div></div>","j","delaylearn","learning","trial","55e876f25e4d360012cc283d","Fk4Z6bxutfUrJ3Te9yL3M9UxTEn1","1","images/choice_trial_11.png","images/choice_trial_12.png","images/pattern_6.png","j","f","750","11","12","5","0","35","0","1","12","220","","","","",""
"html-keyboard-response","195","407329","0.0-81.0-1.0","","null","<div style=""display: flex; flex-direction: column; align-items: center; margin-top: -40px;""><img src=""images/pattern_6.png"" style=""width: 234px; height: 230px; margin-top: -50px;""><div style=""display: flex; justify-content: space-between; margin-top: 33px;""><img src=""images/choice_trial_12.png"" style=""width: 408px; height: 417px; margin-left:608px;""></div></div>","null","delaylearn","learning","display_response","55e876f25e4d360012cc283d","Fk4Z6bxutfUrJ3Te9yL3M9UxTEn1","","","","","","","","","","","","","","","","","chosen stimuli: images/choice_trial_12.png","","","",""
"html-keyboard-response","196","408089","0.0-81.0-2.0","","null","","null","delaylearn","learning","feedback_duration_window","55e876f25e4d360012cc283d","Fk4Z6bxutfUrJ3Te9yL3M9UxTEn1","","","","","","","","","","","","","","","","","","750","","",""
"html-keyboard-response","197","409602","0.0-81.0-3.0","","null","<div style='margin:auto;width: auto; font-size: 150%'><span style='font-weight: bold; font-size: 100px; color: green;'>+10 points!</span><br><br></div>","null","delaylearn","learning","feedback_image_window","55e876f25e4d360012cc283d","Fk4Z6bxutfUrJ3Te9yL3M9UxTEn1","","","","","","","","","","","","","","","","","","","","",""
"html-keyboard-response","198","411592","0.0-82.0","","null","<div style=""font-size:100px;"">+</div>","null","delaylearn","learning","ITI","55e876f25e4d360012cc283d","Fk4Z6bxutfUrJ3Te9yL3M9UxTEn1","","","","","","","","","","","","","","","","","","","1983","",""
"html-keyboard-response","199","413176","0.0-83.0-0.0","","1580.6999998092651","<div style=""display: flex; flex-direction: column; align-items: center; margin-top: -40px;""><img src=""images/pattern_3.png"" style=""width: 234px; height: 230px; margin-top: -50px;""><div style=""display: flex; justify-content: space-between; margin-top: 33px;""><img src=""images/choice_trial_6.png"" style=""width: 408px; height: 417px; margin-right: 200px;""><img src=""images/choice_trial_5.png"" style=""width: 408px; height: 417px;""></div></div>","j","delaylearn","learning","trial","55e876f25e4d360012cc283d","Fk4Z6bxutfUrJ3Te9yL3M9UxTEn1","1","images/choice_trial_6.png","images/choice_trial_5.png","images/pattern_3.png","j","j","7000","6","5","2","1","36","1","1","5","230","","","","",""
"html-keyboard-response","200","414182","0.0-83.0-1.0","","null","<div style=""display: flex; flex-direction: column; align-items: center; margin-top: -40px;""><img src=""images/pattern_3.png"" style=""width: 234px; height: 230px; margin-top: -50px;""><div style=""display: flex; justify-content: space-between; margin-top: 33px;""><img src=""images/choice_trial_5.png"" style=""width: 408px; height: 417px; margin-left:608px;""></div></div>","null","delaylearn","learning","display_response","55e876f25e4d360012cc283d","Fk4Z6bxutfUrJ3Te9yL3M9UxTEn1","","","","","","","","","","","","","","","","","chosen stimuli: images/choice_trial_5.png","","","",""
"html-keyboard-response","201","421195","0.0-83.0-2.0","","null","","null","delaylearn","learning","feedback_duration_window","55e876f25e4d360012cc283d","Fk4Z6bxutfUrJ3Te9yL3M9UxTEn1","","","","","","","","","","","","","","","","","","7000","","",""
"html-keyboard-response","202","422709","0.0-83.0-3.0","","null","<div style='margin:auto;width: auto; font-size: 150%'><span style='font-weight: bold; font-size: 100px; color: green;'>+10 points!</span><br><br></div>","null","delaylearn","learning","feedback_image_window","55e876f25e4d360012cc283d","Fk4Z6bxutfUrJ3Te9yL3M9UxTEn1","","","","","","","","","","","","","","","","","","","","",""
"html-keyboard-response","203","424413","0.0-84.0","","null","<div style=""font-size:100px;"">+</div>","null","delaylearn","learning","ITI","55e876f25e4d360012cc283d","Fk4Z6bxutfUrJ3Te9yL3M9UxTEn1","","","","","","","","","","","","","","","","","","","1690","",""
"html-keyboard-response","204","426584","0.0-85.0-0.0","","2169.300000190735","<div style=""display: flex; flex-direction: column; align-items: center; margin-top: -40px;""><img src=""images/pattern_4.png"" style=""width: 234px; height: 230px; margin-top: -50px;""><div style=""display: flex; justify-content: space-between; margin-top: 33px;""><img src=""images/choice_trial_8.png"" style=""width: 408px; height: 417px; margin-right: 200px;""><img src=""images/choice_trial_7.png"" style=""width: 408px; height: 417px;""></div></div>","f","delaylearn","learning","trial","55e876f25e4d360012cc283d","Fk4Z6bxutfUrJ3Te9yL3M9UxTEn1","1","images/choice_trial_8.png","images/choice_trial_7.png","images/pattern_4.png","f","j","7000","8","7","3","1","37","0","1","8","240","","","","",""
"html-keyboard-response","205","427594","0.0-85.0-1.0","","null","<div style=""display: flex; flex-direction: column; align-items: center; margin-top: -40px;""><img src=""images/pattern_4.png"" style=""width: 234px; height: 230px; margin-top: -50px;""><div style=""display: flex; justify-content: space-between; margin-top: 33px;""><img src=""images/choice_trial_8.png"" style=""width: 408px; height: 417px; margin-right: 608px;""></div></div>","null","delaylearn","learning","display_response","55e876f25e4d360012cc283d","Fk4Z6bxutfUrJ3Te9yL3M9UxTEn1","","","","","","","","","","","","","","","","","chosen stimuli: images/choice_trial_8.png","","","",""
"html-keyboard-response","206","434602","0.0-85.0-2.0","","null","","null","delaylearn","learning","feedback_duration_window","55e876f25e4d360012cc283d","Fk4Z6bxutfUrJ3Te9yL3M9UxTEn1","","","","","","","","","","","","","","","","","","7000","","",""
"html-keyboard-response","207","436109","0.0-85.0-3.0","","null","<div style='margin:auto;width: auto; font-size: 150%'><span style='font-weight: bold; font-size: 100px; color: green;'>+10 points!</span><br><br></div>","null","delaylearn","learning","feedback_image_window","55e876f25e4d360012cc283d","Fk4Z6bxutfUrJ3Te9yL3M9UxTEn1","","","","","","","","","","","","","","","","","","","","",""
"html-keyboard-response","208","438272","0.0-86.0","","null","<div style=""font-size:100px;"">+</div>","null","delaylearn","learning","ITI","55e876f25e4d360012cc283d","Fk4Z6bxutfUrJ3Te9yL3M9UxTEn1","","","","","","","","","","","","","","","","","","","2151","",""
"html-keyboard-response","209","440121","0.0-87.0-0.0","","1845.8999996185303","<div style=""display: flex; flex-direction: column; align-items: center; margin-top: -40px;""><img src=""images/pattern_7.png"" style=""width: 234px; height: 230px; margin-top: -50px;""><div style=""display: flex; justify-content: space-between; margin-top: 33px;""><img src=""images/choice_trial_13.png"" style=""width: 408px; height: 417px; margin-right: 200px;""><img src=""images/choice_trial_14.png"" style=""width: 408px; height: 417px;""></div></div>","f","delaylearn","learning","trial","55e876f25e4d360012cc283d","Fk4Z6bxutfUrJ3Te9yL3M9UxTEn1","1","images/choice_trial_13.png","images/choice_trial_14.png","images/pattern_7.png","f","f","750","13","14","6","0","38","1","1","13","250","","","","",""
"html-keyboard-response","210","441124","0.0-87.0-1.0","","null","<div style=""display: flex; flex-direction: column; align-items: center; margin-top: -40px;""><img src=""images/pattern_7.png"" style=""width: 234px; height: 230px; margin-top: -50px;""><div style=""display: flex; justify-content: space-between; margin-top: 33px;""><img src=""images/choice_trial_13.png"" style=""width: 408px; height: 417px; margin-right: 608px;""></div></div>","null","delaylearn","learning","display_response","55e876f25e4d360012cc283d","Fk4Z6bxutfUrJ3Te9yL3M9UxTEn1","","","","","","","","","","","","","","","","","chosen stimuli: images/choice_trial_13.png","","","",""
"html-keyboard-response","211","441888","0.0-87.0-2.0","","null","","null","delaylearn","learning","feedback_duration_window","55e876f25e4d360012cc283d","Fk4Z6bxutfUrJ3Te9yL3M9UxTEn1","","","","","","","","","","","","","","","","","","750","","",""
"html-keyboard-response","212","443398","0.0-87.0-3.0","","null","<div style='margin:auto;width: auto; font-size: 150%'><span style='font-weight: bold; font-size: 100px; color: green;'>+10 points!</span><br><br></div>","null","delaylearn","learning","feedback_image_window","55e876f25e4d360012cc283d","Fk4Z6bxutfUrJ3Te9yL3M9UxTEn1","","","","","","","","","","","","","","","","","","","","",""
"html-keyboard-response","213","445065","0.0-88.0","","null","<div style=""font-size:100px;"">+</div>","null","delaylearn","learning","ITI","55e876f25e4d360012cc283d","Fk4Z6bxutfUrJ3Te9yL3M9UxTEn1","","","","","","","","","","","","","","","","","","","1657","",""
"html-keyboard-response","214","446871","0.0-89.0-0.0","","1803.3000001907349","<div style=""display: flex; flex-direction: column; align-items: center; margin-top: -40px;""><img src=""images/pattern_1.png"" style=""width: 234px; height: 230px; margin-top: -50px;""><div style=""display: flex; justify-content: space-between; margin-top: 33px;""><img src=""images/choice_trial_1.png"" style=""width: 408px; height: 417px; margin-right: 200px;""><img src=""images/choice_trial_2.png"" style=""width: 408px; height: 417px;""></div></div>","f","delaylearn","learning","trial","55e876f25e4d360012cc283d","Fk4Z6bxutfUrJ3Te9yL3M9UxTEn1","1","images/choice_trial_1.png","images/choice_trial_2.png","images/pattern_1.png","f","f","7000","1","2","1","0","39","1","1","1","260","","","","",""
"html-keyboard-response","215","447876","0.0-89.0-1.0","","null","<div style=""display: flex; flex-direction: column; align-items: center; margin-top: -40px;""><img src=""images/pattern_1.png"" style=""width: 234px; height: 230px; margin-top: -50px;""><div style=""display: flex; justify-content: space-between; margin-top: 33px;""><img src=""images/choice_trial_1.png"" style=""width: 408px; height: 417px; margin-right: 608px;""></div></div>","null","delaylearn","learning","display_response","55e876f25e4d360012cc283d","Fk4Z6bxutfUrJ3Te9yL3M9UxTEn1","","","","","","","","","","","","","","","","","chosen stimuli: images/choice_trial_1.png","","","",""
"html-keyboard-response","216","454889","0.0-89.0-2.0","","null","","null","delaylearn","learning","feedback_duration_window","55e876f25e4d360012cc283d","Fk4Z6bxutfUrJ3Te9yL3M9UxTEn1","","","","","","","","","","","","","","","","","","7000","","",""
"html-keyboard-response","217","456391","0.0-89.0-3.0","","null","<div style='margin:auto;width: auto; font-size: 150%'><span style='font-weight: bold; font-size: 100px; color: green;'>+10 points!</span><br><br></div>","null","delaylearn","learning","feedback_image_window","55e876f25e4d360012cc283d","Fk4Z6bxutfUrJ3Te9yL3M9UxTEn1","","","","","","","","","","","","","","","","","","","","",""
"html-keyboard-response","218","456903","0.0-90.0-0.0","","null","","null","","","mood_trial_fixation","","","","","","","","","","","","","","","","","","","","","","",""
"lmdlab-html-vas-response","219","462648","0.0-90.0-1.0","","4730","How happy are you right now?","0.6929253028151288","delaylearn","learning","mood_trial","55e876f25e4d360012cc283d","Fk4Z6bxutfUrJ3Te9yL3M9UxTEn1","","","","","","","","","","","","","","","","","","","","[""Very unhappy"",""Very happy""]",""
"html-keyboard-response","220","465008","0.0-91.0","","null","<div style=""font-size:100px;"">+</div>","null","delaylearn","learning","ITI","55e876f25e4d360012cc283d","Fk4Z6bxutfUrJ3Te9yL3M9UxTEn1","","","","","","","","","","","","","","","","","","","2355","",""
