"trial_type","trial_index","time_elapsed","internal_node_id","participant","rt","stimulus","response","exp_name","exp_stage","test_part","subjectID","databaseID","counterbal","choice_stimuli_1","choice_stimuli_2","pattern_stimuli","rewarded_answer","correct_answer","feedback_duration_times","stim_left","stim_right","pair","leftright_counter","trial","response_correct","response_rewarded","chosen_stim","counter","displayed_choice","feedback_durations","ITI_duration","labels","rest_warning"
"pavlovia","0","1514","0.0-0.0","","","","","","","","","","","","","","","","","","","","","","","","","","","","","",""
"html-keyboard-response","1","4539","0.0-1.0","","null","<div style=""font-size:100px;"">+</div>","null","delaylearn","learning","pre_fixation","5b7924d8338a93000154ad21","","","","","","","","","","","","","","","","","","","","","",""
"html-keyboard-response","2","5564","0.0-2.0-0.0","","1022","<div style=""display: flex; flex-direction: column; align-items: center; margin-top: -40px;""><img src=""images/demo_images/pattern_1.png"" style=""width: 234px; height: 230px; margin-top: -50px;""><div style=""display: flex; justify-content: space-between; margin-top: 33px;""><img src=""images/demo_images/choice_trial_2.png"" style=""width: 408px; height: 417px; margin-right: 200px;""><img src=""images/demo_images/choice_trial_1.png"" style=""width: 408px; height: 417px;""></div></div>","f","delaylearn","learning","trial","5b7924d8338a93000154ad21","jCr86v8Josb6J4FPz63278F1pby1","5","images/demo_images/choice_trial_2.png","images/demo_images/choice_trial_1.png","images/demo_images/pattern_1.png","j","j","3000","2","1","20","1","1","0","0","2","0","","","","",""
"html-keyboard-response","3","6579","0.0-2.0-1.0","","null","<div style=""display: flex; flex-direction: column; align-items: center; margin-top: -40px;""><img src=""images/demo_images/pattern_1.png"" style=""width: 234px; height: 230px; margin-top: -50px;""><div style=""display: flex; justify-content: space-between; margin-top: 33px;""><img src=""images/demo_images/choice_trial_2.png"" style=""width: 408px; height: 417px; margin-right: 608px;""></div></div>","null","delaylearn","learning","display_response","5b7924d8338a93000154ad21","jCr86v8Josb6J4FPz63278F1pby1","","","","","","","","","","","","","","","","","chosen stimuli: images/demo_images/choice_trial_2.png","","","",""
"html-keyboard-response","4","9593","0.0-2.0-2.0","","null","","null","delaylearn","learning","feedback_duration_window","5b7924d8338a93000154ad21","jCr86v8Josb6J4FPz63278F1pby1","","","","","","","","","","","","","","","","","","3000","","",""
"html-keyboard-response","5","11109","0.0-2.0-3.0","","null","<div style='margin:auto;width: auto; font-size: 150%'><span style='font-weight: bold; font-size: 100px; color: red;'>0 points!</span><br><br></div>","null","delaylearn","learning","feedback_image_window","5b7924d8338a93000154ad21","jCr86v8Josb6J4FPz63278F1pby1","","","","","","","","","","","","","","","","","","","","",""
"html-keyboard-response","6","12750","0.0-3.0","","null","<div style=""font-size:100px;"">+</div>","null","delaylearn","learning","ITI","5b7924d8338a93000154ad21","jCr86v8Josb6J4FPz63278F1pby1","","","","","","","","","","","","","","","","","","","1640","",""
"html-keyboard-response","7","13665","0.0-4.0-0.0","","913.1000000014901","<div style=""display: flex; flex-direction: column; align-items: center; margin-top: -40px;""><img src=""images/demo_images/pattern_1.png"" style=""width: 234px; height: 230px; margin-top: -50px;""><div style=""display: flex; justify-content: space-between; margin-top: 33px;""><img src=""images/demo_images/choice_trial_2.png"" style=""width: 408px; height: 417px; margin-right: 200px;""><img src=""images/demo_images/choice_trial_1.png"" style=""width: 408px; height: 417px;""></div></div>","j","delaylearn","learning","trial","5b7924d8338a93000154ad21","jCr86v8Josb6J4FPz63278F1pby1","5","images/demo_images/choice_trial_2.png","images/demo_images/choice_trial_1.png","images/demo_images/pattern_1.png","j","j","3000","2","1","20","1","2","1","1","1","10","","","","",""
"html-keyboard-response","8","14685","0.0-4.0-1.0","","null","<div style=""display: flex; flex-direction: column; align-items: center; margin-top: -40px;""><img src=""images/demo_images/pattern_1.png"" style=""width: 234px; height: 230px; margin-top: -50px;""><div style=""display: flex; justify-content: space-between; margin-top: 33px;""><img src=""images/demo_images/choice_trial_1.png"" style=""width: 408px; height: 417px; margin-left:608px;""></div></div>","null","delaylearn","learning","display_response","5b7924d8338a93000154ad21","jCr86v8Josb6J4FPz63278F1pby1","","","","","","","","","","","","","","","","","chosen stimuli: images/demo_images/choice_trial_1.png","","","",""
"html-keyboard-response","9","17691","0.0-4.0-2.0","","null","","null","delaylearn","learning","feedback_duration_window","5b7924d8338a93000154ad21","jCr86v8Josb6J4FPz63278F1pby1","","","","","","","","","","","","","","","","","","3000","","",""
"html-keyboard-response","10","19200","0.0-4.0-3.0","","null","<div style='margin:auto;width: auto; font-size: 150%'><span style='font-weight: bold; font-size: 100px; color: green;'>+10 points!</span><br><br></div>","null","delaylearn","learning","feedback_image_window","5b7924d8338a93000154ad21","jCr86v8Josb6J4FPz63278F1pby1","","","","","","","","","","","","","","","","","","","","",""
"html-keyboard-response","11","20945","0.0-5.0","","null","<div style=""font-size:100px;"">+</div>","null","delaylearn","learning","ITI","5b7924d8338a93000154ad21","jCr86v8Josb6J4FPz63278F1pby1","","","","","","","","","","","","","","","","","","","1741","",""
"html-keyboard-response","12","22229","0.0-6.0-0.0","","1282.0999999977648","<div style=""display: flex; flex-direction: column; align-items: center; margin-top: -40px;""><img src=""images/demo_images/pattern_1.png"" style=""width: 234px; height: 230px; margin-top: -50px;""><div style=""display: flex; justify-content: space-between; margin-top: 33px;""><img src=""images/demo_images/choice_trial_1.png"" style=""width: 408px; height: 417px; margin-right: 200px;""><img src=""images/demo_images/choice_trial_2.png"" style=""width: 408px; height: 417px;""></div></div>","f","delaylearn","learning","trial","5b7924d8338a93000154ad21","jCr86v8Josb6J4FPz63278F1pby1","5","images/demo_images/choice_trial_1.png","images/demo_images/choice_trial_2.png","images/demo_images/pattern_1.png","j","f","3000","1","2","20","0","3","1","0","1","10","","","","",""
"html-keyboard-response","13","23240","0.0-6.0-1.0","","null","<div style=""display: flex; flex-direction: column; align-items: center; margin-top: -40px;""><img src=""images/demo_images/pattern_1.png"" style=""width: 234px; height: 230px; margin-top: -50px;""><div style=""display: flex; justify-content: space-between; margin-top: 33px;""><img src=""images/demo_images/choice_trial_1.png"" style=""width: 408px; height: 417px; margin-right: 608px;""></div></div>","null","delaylearn","learning","display_response","5b7924d8338a93000154ad21","jCr86v8Josb6J4FPz63278F1pby1","","","","","","","","","","","","","","","","","chosen stimuli: images/demo_images/choice_trial_1.png","","","",""
"html-keyboard-response","14","26247","0.0-6.0-2.0","","null","","null","delaylearn","learning","feedback_duration_window","5b7924d8338a93000154ad21","jCr86v8Josb6J4FPz63278F1pby1","","","","","","","","","","","","","","","","","","3000","","",""
"html-keyboard-response","15","27766","0.0-6.0-3.0","","null","<div style='margin:auto;width: auto; font-size: 150%'><span style='font-weight: bold; font-size: 100px; color: red;'>0 points!</span><br><br></div>","null","delaylearn","learning","feedback_image_window","5b7924d8338a93000154ad21","jCr86v8Josb6J4FPz63278F1pby1","","","","","","","","","","","","","","","","","","","","",""
"html-keyboard-response","16","30040","0.0-7.0","","null","<div style=""font-size:100px;"">+</div>","null","delaylearn","learning","ITI","5b7924d8338a93000154ad21","jCr86v8Josb6J4FPz63278F1pby1","","","","","","","","","","","","","","","","","","","2269","",""
"html-keyboard-response","17","31541","0.0-8.0-0.0","","1498.5","<div style=""display: flex; flex-direction: column; align-items: center; margin-top: -40px;""><img src=""images/demo_images/pattern_1.png"" style=""width: 234px; height: 230px; margin-top: -50px;""><div style=""display: flex; justify-content: space-between; margin-top: 33px;""><img src=""images/demo_images/choice_trial_1.png"" style=""width: 408px; height: 417px; margin-right: 200px;""><img src=""images/demo_images/choice_trial_2.png"" style=""width: 408px; height: 417px;""></div></div>","f","delaylearn","learning","trial","5b7924d8338a93000154ad21","jCr86v8Josb6J4FPz63278F1pby1","5","images/demo_images/choice_trial_1.png","images/demo_images/choice_trial_2.png","images/demo_images/pattern_1.png","f","f","3000","1","2","20","0","4","1","1","1","20","","","","",""
"html-keyboard-response","18","32546","0.0-8.0-1.0","","null","<div style=""display: flex; flex-direction: column; align-items: center; margin-top: -40px;""><img src=""images/demo_images/pattern_1.png"" style=""width: 234px; height: 230px; margin-top: -50px;""><div style=""display: flex; justify-content: space-between; margin-top: 33px;""><img src=""images/demo_images/choice_trial_1.png"" style=""width: 408px; height: 417px; margin-right: 608px;""></div></div>","null","delaylearn","learning","display_response","5b7924d8338a93000154ad21","jCr86v8Josb6J4FPz63278F1pby1","","","","","","","","","","","","","","","","","chosen stimuli: images/demo_images/choice_trial_1.png","","","",""
"html-keyboard-response","19","35548","0.0-8.0-2.0","","null","","null","delaylearn","learning","feedback_duration_window","5b7924d8338a93000154ad21","jCr86v8Josb6J4FPz63278F1pby1","","","","","","","","","","","","","","","","","","3000","","",""
"html-keyboard-response","20","37054","0.0-8.0-3.0","","null","<div style='margin:auto;width: auto; font-size: 150%'><span style='font-weight: bold; font-size: 100px; color: green;'>+10 points!</span><br><br></div>","null","delaylearn","learning","feedback_image_window","5b7924d8338a93000154ad21","jCr86v8Josb6J4FPz63278F1pby1","","","","","","","","","","","","","","","","","","","","",""
"html-keyboard-response","21","37558","0.0-9.0-0.0","","null","","null","","","mood_trial_fixation","","","","","","","","","","","","","","","","","","","","","","",""
"lmdlab-html-vas-response","22","44269","0.0-9.0-1.0","","5691","How happy are you right now?","0.47685185185185186","delaylearn","learning","mood_trial","5b7924d8338a93000154ad21","jCr86v8Josb6J4FPz63278F1pby1","","","","","","","","","","","","","","","","","","","","[""Very unhappy"",""Very happy""]",""
"html-keyboard-response","23","46084","0.0-10.0","","null","<div style=""font-size:100px;"">+</div>","null","delaylearn","learning","ITI","5b7924d8338a93000154ad21","jCr86v8Josb6J4FPz63278F1pby1","","","","","","","","","","","","","","","","","","","1813","",""
"html-keyboard-response","24","46831","0.0-11.0-0.0","","745.6999999992549","<div style=""display: flex; flex-direction: column; align-items: center; margin-top: -40px;""><img src=""images/demo_images/pattern_1.png"" style=""width: 234px; height: 230px; margin-top: -50px;""><div style=""display: flex; justify-content: space-between; margin-top: 33px;""><img src=""images/demo_images/choice_trial_2.png"" style=""width: 408px; height: 417px; margin-right: 200px;""><img src=""images/demo_images/choice_trial_1.png"" style=""width: 408px; height: 417px;""></div></div>","f","delaylearn","learning","trial","5b7924d8338a93000154ad21","jCr86v8Josb6J4FPz63278F1pby1","5","images/demo_images/choice_trial_2.png","images/demo_images/choice_trial_1.png","images/demo_images/pattern_1.png","j","j","3000","2","1","20","1","5","0","0","2","20","","","","",""
"html-keyboard-response","25","47857","0.0-11.0-1.0","","null","<div style=""display: flex; flex-direction: column; align-items: center; margin-top: -40px;""><img src=""images/demo_images/pattern_1.png"" style=""width: 234px; height: 230px; margin-top: -50px;""><div style=""display: flex; justify-content: space-between; margin-top: 33px;""><img src=""images/demo_images/choice_trial_2.png"" style=""width: 408px; height: 417px; margin-right: 608px;""></div></div>","null","delaylearn","learning","display_response","5b7924d8338a93000154ad21","jCr86v8Josb6J4FPz63278F1pby1","","","","","","","","","","","","","","","","","chosen stimuli: images/demo_images/choice_trial_2.png","","","",""
"html-keyboard-response","26","50864","0.0-11.0-2.0","","null","","null","delaylearn","learning","feedback_duration_window","5b7924d8338a93000154ad21","jCr86v8Josb6J4FPz63278F1pby1","","","","","","","","","","","","","","","","","","3000","","",""
"html-keyboard-response","27","52382","0.0-11.0-3.0","","null","<div style='margin:auto;width: auto; font-size: 150%'><span style='font-weight: bold; font-size: 100px; color: red;'>0 points!</span><br><br></div>","null","delaylearn","learning","feedback_image_window","5b7924d8338a93000154ad21","jCr86v8Josb6J4FPz63278F1pby1","","","","","","","","","","","","","","","","","","","","",""
"html-keyboard-response","28","54066","0.0-12.0","","null","<div style=""font-size:100px;"">+</div>","null","delaylearn","learning","ITI","5b7924d8338a93000154ad21","jCr86v8Josb6J4FPz63278F1pby1","","","","","","","","","","","","","","","","","","","1682","",""
"html-keyboard-response","29","55498","0.0-13.0-0.0","","1430.1000000014901","<div style=""display: flex; flex-direction: column; align-items: center; margin-top: -40px;""><img src=""images/demo_images/pattern_1.png"" style=""width: 234px; height: 230px; margin-top: -50px;""><div style=""display: flex; justify-content: space-between; margin-top: 33px;""><img src=""images/demo_images/choice_trial_1.png"" style=""width: 408px; height: 417px; margin-right: 200px;""><img src=""images/demo_images/choice_trial_2.png"" style=""width: 408px; height: 417px;""></div></div>","f","delaylearn","learning","trial","5b7924d8338a93000154ad21","jCr86v8Josb6J4FPz63278F1pby1","5","images/demo_images/choice_trial_1.png","images/demo_images/choice_trial_2.png","images/demo_images/pattern_1.png","f","f","3000","1","2","20","0","6","1","1","1","30","","","","",""
"html-keyboard-response","30","56506","0.0-13.0-1.0","","null","<div style=""display: flex; flex-direction: column; align-items: center; margin-top: -40px;""><img src=""images/demo_images/pattern_1.png"" style=""width: 234px; height: 230px; margin-top: -50px;""><div style=""display: flex; justify-content: space-between; margin-top: 33px;""><img src=""images/demo_images/choice_trial_1.png"" style=""width: 408px; height: 417px; margin-right: 608px;""></div></div>","null","delaylearn","learning","display_response","5b7924d8338a93000154ad21","jCr86v8Josb6J4FPz63278F1pby1","","","","","","","","","","","","","","","","","chosen stimuli: images/demo_images/choice_trial_1.png","","","",""
"html-keyboard-response","31","59514","0.0-13.0-2.0","","null","","null","delaylearn","learning","feedback_duration_window","5b7924d8338a93000154ad21","jCr86v8Josb6J4FPz63278F1pby1","","","","","","","","","","","","","","","","","","3000","","",""
"html-keyboard-response","32","61021","0.0-13.0-3.0","","null","<div style='margin:auto;width: auto; font-size: 150%'><span style='font-weight: bold; font-size: 100px; color: green;'>+10 points!</span><br><br></div>","null","delaylearn","learning","feedback_image_window","5b7924d8338a93000154ad21","jCr86v8Josb6J4FPz63278F1pby1","","","","","","","","","","","","","","","","","","","","",""
"html-keyboard-response","33","63308","0.0-14.0","","null","<div style=""font-size:100px;"">+</div>","null","delaylearn","learning","ITI","5b7924d8338a93000154ad21","jCr86v8Josb6J4FPz63278F1pby1","","","","","","","","","","","","","","","","","","","2276","",""
"html-keyboard-response","34","64640","0.0-15.0-0.0","","1330.199999999255","<div style=""display: flex; flex-direction: column; align-items: center; margin-top: -40px;""><img src=""images/demo_images/pattern_1.png"" style=""width: 234px; height: 230px; margin-top: -50px;""><div style=""display: flex; justify-content: space-between; margin-top: 33px;""><img src=""images/demo_images/choice_trial_2.png"" style=""width: 408px; height: 417px; margin-right: 200px;""><img src=""images/demo_images/choice_trial_1.png"" style=""width: 408px; height: 417px;""></div></div>","j","delaylearn","learning","trial","5b7924d8338a93000154ad21","jCr86v8Josb6J4FPz63278F1pby1","5","images/demo_images/choice_trial_2.png","images/demo_images/choice_trial_1.png","images/demo_images/pattern_1.png","j","j","3000","2","1","20","1","7","1","1","1","40","","","","",""
"html-keyboard-response","35","65647","0.0-15.0-1.0","","null","<div style=""display: flex; flex-direction: column; align-items: center; margin-top: -40px;""><img src=""images/demo_images/pattern_1.png"" style=""width: 234px; height: 230px; margin-top: -50px;""><div style=""display: flex; justify-content: space-between; margin-top: 33px;""><img src=""images/demo_images/choice_trial_1.png"" style=""width: 408px; height: 417px; margin-left:608px;""></div></div>","null","delaylearn","learning","display_response","5b7924d8338a93000154ad21","jCr86v8Josb6J4FPz63278F1pby1","","","","","","","","","","","","","","","","","chosen stimuli: images/demo_images/choice_trial_1.png","","","",""
"html-keyboard-response","36","68669","0.0-15.0-2.0","","null","","null","delaylearn","learning","feedback_duration_window","5b7924d8338a93000154ad21","jCr86v8Josb6J4FPz63278F1pby1","","","","","","","","","","","","","","","","","","3000","","",""
"html-keyboard-response","37","70185","0.0-15.0-3.0","","null","<div style='margin:auto;width: auto; font-size: 150%'><span style='font-weight: bold; font-size: 100px; color: green;'>+10 points!</span><br><br></div>","null","delaylearn","learning","feedback_image_window","5b7924d8338a93000154ad21","jCr86v8Josb6J4FPz63278F1pby1","","","","","","","","","","","","","","","","","","","","",""
"html-keyboard-response","38","71751","0.0-16.0","","null","<div style=""font-size:100px;"">+</div>","null","delaylearn","learning","ITI","5b7924d8338a93000154ad21","jCr86v8Josb6J4FPz63278F1pby1","","","","","","","","","","","","","","","","","","","1563","",""
"html-keyboard-response","39","73240","0.0-17.0-0.0","","1487.5","<div style=""display: flex; flex-direction: column; align-items: center; margin-top: -40px;""><img src=""images/demo_images/pattern_1.png"" style=""width: 234px; height: 230px; margin-top: -50px;""><div style=""display: flex; justify-content: space-between; margin-top: 33px;""><img src=""images/demo_images/choice_trial_1.png"" style=""width: 408px; height: 417px; margin-right: 200px;""><img src=""images/demo_images/choice_trial_2.png"" style=""width: 408px; height: 417px;""></div></div>","f","delaylearn","learning","trial","5b7924d8338a93000154ad21","jCr86v8Josb6J4FPz63278F1pby1","5","images/demo_images/choice_trial_1.png","images/demo_images/choice_trial_2.png","images/demo_images/pattern_1.png","f","f","3000","1","2","20","0","8","1","1","1","50","","","","",""
"html-keyboard-response","40","74243","0.0-17.0-1.0","","null","<div style=""display: flex; flex-direction: column; align-items: center; margin-top: -40px;""><img src=""images/demo_images/pattern_1.png"" style=""width: 234px; height: 230px; margin-top: -50px;""><div style=""display: flex; justify-content: space-between; margin-top: 33px;""><img src=""images/demo_images/choice_trial_1.png"" style=""width: 408px; height: 417px; margin-right: 608px;""></div></div>","null","delaylearn","learning","display_response","5b7924d8338a93000154ad21","jCr86v8Josb6J4FPz63278F1pby1","","","","","","","","","","","","","","","","","chosen stimuli: images/demo_images/choice_trial_1.png","","","",""
"html-keyboard-response","41","77251","0.0-17.0-2.0","","null","","null","delaylearn","learning","feedback_duration_window","5b7924d8338a93000154ad21","jCr86v8Josb6J4FPz63278F1pby1","","","","","","","","","","","","","","","","","","3000","","",""
"html-keyboard-response","42","78766","0.0-17.0-3.0","","null","<div style='margin:auto;width: auto; font-size: 150%'><span style='font-weight: bold; font-size: 100px; color: green;'>+10 points!</span><br><br></div>","null","delaylearn","learning","feedback_image_window","5b7924d8338a93000154ad21","jCr86v8Josb6J4FPz63278F1pby1","","","","","","","","","","","","","","","","","","","","",""
"html-button-response","43","81753","0.0-18.0","","2985.699999999255","
  <div style=""display: flex; align-items: center; justify-content: center; height: 80vh;"">
  <div>
          <img src=""images/inst_demo_finish.png"" style=""width: 80vw; height:auto;"">
          <br><br>
      </div>
      <br><br>
  </div>","0","","","","","","","","","","","","","","","","","","","","","","","","","",""
"html-keyboard-response","44","85344","0.0-19.0","","3589.5","
  <div style=""display: flex; align-items: center; justify-content: center; height: 80vh;"">
  <div>
          <img src=""images/inst_6.png"" style=""width: 80vw; height:auto;"">
          <br><br>
      </div>
      <br><br>
  </div>","j","","","","","","","","","","","","","","","","","","","","","","","","","",""
"html-keyboard-response","45","88347","0.0-20.0","","null","<div style=""font-size:100px;"">+</div>","null","delaylearn","learning","pre_fixation","5b7924d8338a93000154ad21","","","","","","","","","","","","","","","","","","","","","",""
"html-keyboard-response","46","90118","0.0-21.0","","null","<div style=""font-size:100px;"">+</div>","null","delaylearn","learning","ITI","5b7924d8338a93000154ad21","jCr86v8Josb6J4FPz63278F1pby1","","","","","","","","","","","","","","","","","","","1765","",""
"html-keyboard-response","47","90181","0.0-22.0-0.0","","61.30000000074506","<div style=""display: flex; flex-direction: column; align-items: center; margin-top: -40px;""><img src=""images/pattern_3.png"" style=""width: 234px; height: 230px; margin-top: -50px;""><div style=""display: flex; justify-content: space-between; margin-top: 33px;""><img src=""images/choice_trial_16.png"" style=""width: 408px; height: 417px; margin-right: 200px;""><img src=""images/choice_trial_2.png"" style=""width: 408px; height: 417px;""></div></div>","f","delaylearn","learning","trial","5b7924d8338a93000154ad21","jCr86v8Josb6J4FPz63278F1pby1","5","images/choice_trial_16.png","images/choice_trial_2.png","images/pattern_3.png","f","f","7000","16","2","2","0","9","1","1","16","60","","","","",""
"html-keyboard-response","48","91204","0.0-22.0-1.0","","null","<div style=""display: flex; flex-direction: column; align-items: center; margin-top: -40px;""><img src=""images/pattern_3.png"" style=""width: 234px; height: 230px; margin-top: -50px;""><div style=""display: flex; justify-content: space-between; margin-top: 33px;""><img src=""images/choice_trial_16.png"" style=""width: 408px; height: 417px; margin-right: 608px;""></div></div>","null","delaylearn","learning","display_response","5b7924d8338a93000154ad21","jCr86v8Josb6J4FPz63278F1pby1","","","","","","","","","","","","","","","","","chosen stimuli: images/choice_trial_16.png","","","",""
"html-keyboard-response","49","98208","0.0-22.0-2.0","","null","","null","delaylearn","learning","feedback_duration_window","5b7924d8338a93000154ad21","jCr86v8Josb6J4FPz63278F1pby1","","","","","","","","","","","","","","","","","","7000","","",""
"html-keyboard-response","50","99730","0.0-22.0-3.0","","null","<div style='margin:auto;width: auto; font-size: 150%'><span style='font-weight: bold; font-size: 100px; color: green;'>+10 points!</span><br><br></div>","null","delaylearn","learning","feedback_image_window","5b7924d8338a93000154ad21","jCr86v8Josb6J4FPz63278F1pby1","","","","","","","","","","","","","","","","","","","","",""
"html-keyboard-response","51","102218","0.0-23.0","","null","<div style=""font-size:100px;"">+</div>","null","delaylearn","learning","ITI","5b7924d8338a93000154ad21","jCr86v8Josb6J4FPz63278F1pby1","","","","","","","","","","","","","","","","","","","2461","",""
"html-keyboard-response","52","104230","0.0-24.0-0.0","","2010","<div style=""display: flex; flex-direction: column; align-items: center; margin-top: -40px;""><img src=""images/pattern_7.png"" style=""width: 234px; height: 230px; margin-top: -50px;""><div style=""display: flex; justify-content: space-between; margin-top: 33px;""><img src=""images/choice_trial_10.png"" style=""width: 408px; height: 417px; margin-right: 200px;""><img src=""images/choice_trial_8.png"" style=""width: 408px; height: 417px;""></div></div>","j","delaylearn","learning","trial","5b7924d8338a93000154ad21","jCr86v8Josb6J4FPz63278F1pby1","5","images/choice_trial_10.png","images/choice_trial_8.png","images/pattern_7.png","j","j","750","10","8","6","1","10","1","1","8","70","","","","",""
"html-keyboard-response","53","105235","0.0-24.0-1.0","","null","<div style=""display: flex; flex-direction: column; align-items: center; margin-top: -40px;""><img src=""images/pattern_7.png"" style=""width: 234px; height: 230px; margin-top: -50px;""><div style=""display: flex; justify-content: space-between; margin-top: 33px;""><img src=""images/choice_trial_8.png"" style=""width: 408px; height: 417px; margin-left:608px;""></div></div>","null","delaylearn","learning","display_response","5b7924d8338a93000154ad21","jCr86v8Josb6J4FPz63278F1pby1","","","","","","","","","","","","","","","","","chosen stimuli: images/choice_trial_8.png","","","",""
"html-keyboard-response","54","105991","0.0-24.0-2.0","","null","","null","delaylearn","learning","feedback_duration_window","5b7924d8338a93000154ad21","jCr86v8Josb6J4FPz63278F1pby1","","","","","","","","","","","","","","","","","","750","","",""
"html-keyboard-response","55","107499","0.0-24.0-3.0","","null","<div style='margin:auto;width: auto; font-size: 150%'><span style='font-weight: bold; font-size: 100px; color: green;'>+10 points!</span><br><br></div>","null","delaylearn","learning","feedback_image_window","5b7924d8338a93000154ad21","jCr86v8Josb6J4FPz63278F1pby1","","","","","","","","","","","","","","","","","","","","",""
"html-keyboard-response","56","109192","0.0-25.0","","null","<div style=""font-size:100px;"">+</div>","null","delaylearn","learning","ITI","5b7924d8338a93000154ad21","jCr86v8Josb6J4FPz63278F1pby1","","","","","","","","","","","","","","","","","","","1682","",""
"html-keyboard-response","57","111472","0.0-26.0-0.0","","2276.89999999851","<div style=""display: flex; flex-direction: column; align-items: center; margin-top: -40px;""><img src=""images/pattern_4.png"" style=""width: 234px; height: 230px; margin-top: -50px;""><div style=""display: flex; justify-content: space-between; margin-top: 33px;""><img src=""images/choice_trial_11.png"" style=""width: 408px; height: 417px; margin-right: 200px;""><img src=""images/choice_trial_4.png"" style=""width: 408px; height: 417px;""></div></div>","f","delaylearn","learning","trial","5b7924d8338a93000154ad21","jCr86v8Josb6J4FPz63278F1pby1","5","images/choice_trial_11.png","images/choice_trial_4.png","images/pattern_4.png","f","f","7000","11","4","3","0","11","1","1","11","80","","","","",""
"html-keyboard-response","58","112485","0.0-26.0-1.0","","null","<div style=""display: flex; flex-direction: column; align-items: center; margin-top: -40px;""><img src=""images/pattern_4.png"" style=""width: 234px; height: 230px; margin-top: -50px;""><div style=""display: flex; justify-content: space-between; margin-top: 33px;""><img src=""images/choice_trial_11.png"" style=""width: 408px; height: 417px; margin-right: 608px;""></div></div>","null","delaylearn","learning","display_response","5b7924d8338a93000154ad21","jCr86v8Josb6J4FPz63278F1pby1","","","","","","","","","","","","","","","","","chosen stimuli: images/choice_trial_11.png","","","",""
"html-keyboard-response","59","119496","0.0-26.0-2.0","","null","","null","delaylearn","learning","feedback_duration_window","5b7924d8338a93000154ad21","jCr86v8Josb6J4FPz63278F1pby1","","","","","","","","","","","","","","","","","","7000","","",""
"html-keyboard-response","60","121004","0.0-26.0-3.0","","null","<div style='margin:auto;width: auto; font-size: 150%'><span style='font-weight: bold; font-size: 100px; color: green;'>+10 points!</span><br><br></div>","null","delaylearn","learning","feedback_image_window","5b7924d8338a93000154ad21","jCr86v8Josb6J4FPz63278F1pby1","","","","","","","","","","","","","","","","","","","","",""
"html-keyboard-response","61","123377","0.0-27.0","","null","<div style=""font-size:100px;"">+</div>","null","delaylearn","learning","ITI","5b7924d8338a93000154ad21","jCr86v8Josb6J4FPz63278F1pby1","","","","","","","","","","","","","","","","","","","2361","",""
"html-keyboard-response","62","126240","0.0-28.0-0.0","","2860.300000000745","<div style=""display: flex; flex-direction: column; align-items: center; margin-top: -40px;""><img src=""images/pattern_5.png"" style=""width: 234px; height: 230px; margin-top: -50px;""><div style=""display: flex; justify-content: space-between; margin-top: 33px;""><img src=""images/choice_trial_13.png"" style=""width: 408px; height: 417px; margin-right: 200px;""><img src=""images/choice_trial_7.png"" style=""width: 408px; height: 417px;""></div></div>","j","delaylearn","learning","trial","5b7924d8338a93000154ad21","jCr86v8Josb6J4FPz63278F1pby1","5","images/choice_trial_13.png","images/choice_trial_7.png","images/pattern_5.png","j","j","750","13","7","4","1","12","1","1","7","90","","","","",""
"html-keyboard-response","63","127258","0.0-28.0-1.0","","null","<div style=""display: flex; flex-direction: column; align-items: center; margin-top: -40px;""><img src=""images/pattern_5.png"" style=""width: 234px; height: 230px; margin-top: -50px;""><div style=""display: flex; justify-content: space-between; margin-top: 33px;""><img src=""images/choice_trial_7.png"" style=""width: 408px; height: 417px; margin-left:608px;""></div></div>","null","delaylearn","learning","display_response","5b7924d8338a93000154ad21","jCr86v8Josb6J4FPz63278F1pby1","","","","","","","","","","","","","","","","","chosen stimuli: images/choice_trial_7.png","","","",""
"html-keyboard-response","64","128012","0.0-28.0-2.0","","null","","null","delaylearn","learning","feedback_duration_window","5b7924d8338a93000154ad21","jCr86v8Josb6J4FPz63278F1pby1","","","","","","","","","","","","","","","","","","750","","",""
"html-keyboard-response","65","129517","0.0-28.0-3.0","","null","<div style='margin:auto;width: auto; font-size: 150%'><span style='font-weight: bold; font-size: 100px; color: green;'>+10 points!</span><br><br></div>","null","delaylearn","learning","feedback_image_window","5b7924d8338a93000154ad21","jCr86v8Josb6J4FPz63278F1pby1","","","","","","","","","","","","","","","","","","","","",""
"html-keyboard-response","66","131826","0.0-29.0","","null","<div style=""font-size:100px;"">+</div>","null","delaylearn","learning","ITI","5b7924d8338a93000154ad21","jCr86v8Josb6J4FPz63278F1pby1","","","","","","","","","","","","","","","","","","","2297","",""
"html-keyboard-response","67","134835","0.0-30.0-0.0","","null","<div style=""display: flex; flex-direction: column; align-items: center; margin-top: -40px;""><img src=""images/pattern_6.png"" style=""width: 234px; height: 230px; margin-top: -50px;""><div style=""display: flex; justify-content: space-between; margin-top: 33px;""><img src=""images/choice_trial_14.png"" style=""width: 408px; height: 417px; margin-right: 200px;""><img src=""images/choice_trial_9.png"" style=""width: 408px; height: 417px;""></div></div>","null","delaylearn","learning","trial","5b7924d8338a93000154ad21","jCr86v8Josb6J4FPz63278F1pby1","5","images/choice_trial_14.png","images/choice_trial_9.png","images/pattern_6.png","j","f","750","14","9","5","0","13","0","0","0","90","","","","",""
"html-keyboard-response","68","135838","0.0-30.0-1.0","","null","<div style='font-weight: bold; font-size: 75px; color: red;'>Missed Trial <br><br><br><br> Please respond faster</div>","null","delaylearn","learning","display_response","5b7924d8338a93000154ad21","jCr86v8Josb6J4FPz63278F1pby1","","","","","","","","","","","","","","","","","Missed trial","","","",""
"html-keyboard-response","69","135845","0.0-30.0-2.0","","null","","null","delaylearn","learning","feedback_duration_window","5b7924d8338a93000154ad21","jCr86v8Josb6J4FPz63278F1pby1","","","","","","","","","","","","","","","","","","0","","",""
"html-keyboard-response","70","135851","0.0-30.0-3.0","","null","","null","delaylearn","learning","feedback_image_window","5b7924d8338a93000154ad21","jCr86v8Josb6J4FPz63278F1pby1","","","","","","","","","","","","","","","","","","","","",""
"html-keyboard-response","71","136357","0.0-31.0-0.0","","null","","null","","","mood_trial_fixation","","","","","","","","","","","","","","","","","","","","","","",""
"lmdlab-html-vas-response","72","143129","0.0-31.0-1.0","","5754","How happy are you right now?","0.4837962962962963","delaylearn","learning","mood_trial","5b7924d8338a93000154ad21","jCr86v8Josb6J4FPz63278F1pby1","","","","","","","","","","","","","","","","","","","","[""Very unhappy"",""Very happy""]",""
"html-keyboard-response","73","144837","0.0-32.0","","null","<div style=""font-size:100px;"">+</div>","null","delaylearn","learning","ITI","5b7924d8338a93000154ad21","jCr86v8Josb6J4FPz63278F1pby1","","","","","","","","","","","","","","","","","","","1699","",""
"html-keyboard-response","74","146119","0.0-33.0-0.0","","1278.5","<div style=""display: flex; flex-direction: column; align-items: center; margin-top: -40px;""><img src=""images/pattern_1.png"" style=""width: 234px; height: 230px; margin-top: -50px;""><div style=""display: flex; justify-content: space-between; margin-top: 33px;""><img src=""images/choice_trial_15.png"" style=""width: 408px; height: 417px; margin-right: 200px;""><img src=""images/choice_trial_6.png"" style=""width: 408px; height: 417px;""></div></div>","f","delaylearn","learning","trial","5b7924d8338a93000154ad21","jCr86v8Josb6J4FPz63278F1pby1","5","images/choice_trial_15.png","images/choice_trial_6.png","images/pattern_1.png","j","j","7000","15","6","1","1","14","0","0","15","90","","","","",""
"html-keyboard-response","75","147128","0.0-33.0-1.0","","null","<div style=""display: flex; flex-direction: column; align-items: center; margin-top: -40px;""><img src=""images/pattern_1.png"" style=""width: 234px; height: 230px; margin-top: -50px;""><div style=""display: flex; justify-content: space-between; margin-top: 33px;""><img src=""images/choice_trial_15.png"" style=""width: 408px; height: 417px; margin-right: 608px;""></div></div>","null","delaylearn","learning","display_response","5b7924d8338a93000154ad21","jCr86v8Josb6J4FPz63278F1pby1","","","","","","","","","","","","","","","","","chosen stimuli: images/choice_trial_15.png","","","",""
"html-keyboard-response","76","154140","0.0-33.0-2.0","","null","","null","delaylearn","learning","feedback_duration_window","5b7924d8338a93000154ad21","jCr86v8Josb6J4FPz63278F1pby1","","","","","","","","","","","","","","","","","","7000","","",""
"html-keyboard-response","77","155659","0.0-33.0-3.0","","null","<div style='margin:auto;width: auto; font-size: 150%'><span style='font-weight: bold; font-size: 100px; color: red;'>0 points!</span><br><br></div>","null","delaylearn","learning","feedback_image_window","5b7924d8338a93000154ad21","jCr86v8Josb6J4FPz63278F1pby1","","","","","","","","","","","","","","","","","","","","",""
"html-keyboard-response","78","157963","0.0-34.0","","null","<div style=""font-size:100px;"">+</div>","null","delaylearn","learning","ITI","5b7924d8338a93000154ad21","jCr86v8Josb6J4FPz63278F1pby1","","","","","","","","","","","","","","","","","","","2300","",""
"html-keyboard-response","79","160053","0.0-35.0-0.0","","2088.5","<div style=""display: flex; flex-direction: column; align-items: center; margin-top: -40px;""><img src=""images/pattern_3.png"" style=""width: 234px; height: 230px; margin-top: -50px;""><div style=""display: flex; justify-content: space-between; margin-top: 33px;""><img src=""images/choice_trial_2.png"" style=""width: 408px; height: 417px; margin-right: 200px;""><img src=""images/choice_trial_16.png"" style=""width: 408px; height: 417px;""></div></div>","f","delaylearn","learning","trial","5b7924d8338a93000154ad21","jCr86v8Josb6J4FPz63278F1pby1","5","images/choice_trial_2.png","images/choice_trial_16.png","images/pattern_3.png","f","j","7000","2","16","2","1","15","0","1","2","100","","","","",""
"html-keyboard-response","80","161067","0.0-35.0-1.0","","null","<div style=""display: flex; flex-direction: column; align-items: center; margin-top: -40px;""><img src=""images/pattern_3.png"" style=""width: 234px; height: 230px; margin-top: -50px;""><div style=""display: flex; justify-content: space-between; margin-top: 33px;""><img src=""images/choice_trial_2.png"" style=""width: 408px; height: 417px; margin-right: 608px;""></div></div>","null","delaylearn","learning","display_response","5b7924d8338a93000154ad21","jCr86v8Josb6J4FPz63278F1pby1","","","","","","","","","","","","","","","","","chosen stimuli: images/choice_trial_2.png","","","",""
"html-keyboard-response","81","168081","0.0-35.0-2.0","","null","","null","delaylearn","learning","feedback_duration_window","5b7924d8338a93000154ad21","jCr86v8Josb6J4FPz63278F1pby1","","","","","","","","","","","","","","","","","","7000","","",""
"html-keyboard-response","82","169592","0.0-35.0-3.0","","null","<div style='margin:auto;width: auto; font-size: 150%'><span style='font-weight: bold; font-size: 100px; color: green;'>+10 points!</span><br><br></div>","null","delaylearn","learning","feedback_image_window","5b7924d8338a93000154ad21","jCr86v8Josb6J4FPz63278F1pby1","","","","","","","","","","","","","","","","","","","","",""
"html-keyboard-response","83","171675","0.0-36.0","","null","<div style=""font-size:100px;"">+</div>","null","delaylearn","learning","ITI","5b7924d8338a93000154ad21","jCr86v8Josb6J4FPz63278F1pby1","","","","","","","","","","","","","","","","","","","2064","",""
"html-keyboard-response","84","173410","0.0-37.0-0.0","","1731.8999999985099","<div style=""display: flex; flex-direction: column; align-items: center; margin-top: -40px;""><img src=""images/pattern_5.png"" style=""width: 234px; height: 230px; margin-top: -50px;""><div style=""display: flex; justify-content: space-between; margin-top: 33px;""><img src=""images/choice_trial_7.png"" style=""width: 408px; height: 417px; margin-right: 200px;""><img src=""images/choice_trial_13.png"" style=""width: 408px; height: 417px;""></div></div>","f","delaylearn","learning","trial","5b7924d8338a93000154ad21","jCr86v8Josb6J4FPz63278F1pby1","5","images/choice_trial_7.png","images/choice_trial_13.png","images/pattern_5.png","f","f","750","7","13","4","0","16","1","1","7","110","","","","",""
"html-keyboard-response","85","174412","0.0-37.0-1.0","","null","<div style=""display: flex; flex-direction: column; align-items: center; margin-top: -40px;""><img src=""images/pattern_5.png"" style=""width: 234px; height: 230px; margin-top: -50px;""><div style=""display: flex; justify-content: space-between; margin-top: 33px;""><img src=""images/choice_trial_7.png"" style=""width: 408px; height: 417px; margin-right: 608px;""></div></div>","null","delaylearn","learning","display_response","5b7924d8338a93000154ad21","jCr86v8Josb6J4FPz63278F1pby1","","","","","","","","","","","","","","","","","chosen stimuli: images/choice_trial_7.png","","","",""
"html-keyboard-response","86","175170","0.0-37.0-2.0","","null","","null","delaylearn","learning","feedback_duration_window","5b7924d8338a93000154ad21","jCr86v8Josb6J4FPz63278F1pby1","","","","","","","","","","","","","","","","","","750","","",""
"html-keyboard-response","87","176673","0.0-37.0-3.0","","null","<div style='margin:auto;width: auto; font-size: 150%'><span style='font-weight: bold; font-size: 100px; color: green;'>+10 points!</span><br><br></div>","null","delaylearn","learning","feedback_image_window","5b7924d8338a93000154ad21","jCr86v8Josb6J4FPz63278F1pby1","","","","","","","","","","","","","","","","","","","","",""
"html-keyboard-response","88","177195","0.0-38.0-0.0","","null","","null","","","mood_trial_fixation","","","","","","","","","","","","","","","","","","","","","","",""
"lmdlab-html-vas-response","89","186408","0.0-38.0-1.0","","8204","How happy are you right now?","0.5185185185185185","delaylearn","learning","mood_trial","5b7924d8338a93000154ad21","jCr86v8Josb6J4FPz63278F1pby1","","","","","","","","","","","","","","","","","","","","[""Very unhappy"",""Very happy""]",""
"html-keyboard-response","90","188843","0.0-39.0","","null","<div style=""font-size:100px;"">+</div>","null","delaylearn","learning","ITI","5b7924d8338a93000154ad21","jCr86v8Josb6J4FPz63278F1pby1","","","","","","","","","","","","","","","","","","","2418","",""
"html-keyboard-response","91","190297","0.0-40.0-0.0","","1451.7000000029802","<div style=""display: flex; flex-direction: column; align-items: center; margin-top: -40px;""><img src=""images/pattern_6.png"" style=""width: 234px; height: 230px; margin-top: -50px;""><div style=""display: flex; justify-content: space-between; margin-top: 33px;""><img src=""images/choice_trial_14.png"" style=""width: 408px; height: 417px; margin-right: 200px;""><img src=""images/choice_trial_9.png"" style=""width: 408px; height: 417px;""></div></div>","j","delaylearn","learning","trial","5b7924d8338a93000154ad21","jCr86v8Josb6J4FPz63278F1pby1","5","images/choice_trial_14.png","images/choice_trial_9.png","images/pattern_6.png","f","f","750","14","9","5","0","17","0","0","9","110","","","","",""
"html-keyboard-response","92","191302","0.0-40.0-1.0","","null","<div style=""display: flex; flex-direction: column; align-items: center; margin-top: -40px;""><img src=""images/pattern_6.png"" style=""width: 234px; height: 230px; margin-top: -50px;""><div style=""display: flex; justify-content: space-between; margin-top: 33px;""><img src=""images/choice_trial_9.png"" style=""width: 408px; height: 417px; margin-left:608px;""></div></div>","null","delaylearn","learning","display_response","5b7924d8338a93000154ad21","jCr86v8Josb6J4FPz63278F1pby1","","","","","","","","","","","","","","","","","chosen stimuli: images/choice_trial_9.png","","","",""
"html-keyboard-response","93","192055","0.0-40.0-2.0","","null","","null","delaylearn","learning","feedback_duration_window","5b7924d8338a93000154ad21","jCr86v8Josb6J4FPz63278F1pby1","","","","","","","","","","","","","","","","","","750","","",""
"html-keyboard-response","94","193565","0.0-40.0-3.0","","null","<div style='margin:auto;width: auto; font-size: 150%'><span style='font-weight: bold; font-size: 100px; color: red;'>0 points!</span><br><br></div>","null","delaylearn","learning","feedback_image_window","5b7924d8338a93000154ad21","jCr86v8Josb6J4FPz63278F1pby1","","","","","","","","","","","","","","","","","","","","",""
"html-keyboard-response","95","195514","0.0-41.0","","null","<div style=""font-size:100px;"">+</div>","null","delaylearn","learning","ITI","5b7924d8338a93000154ad21","jCr86v8Josb6J4FPz63278F1pby1","","","","","","","","","","","","","","","","","","","1941","",""
"html-keyboard-response","96","197169","0.0-42.0-0.0","","1652.199999999255","<div style=""display: flex; flex-direction: column; align-items: center; margin-top: -40px;""><img src=""images/pattern_4.png"" style=""width: 234px; height: 230px; margin-top: -50px;""><div style=""display: flex; justify-content: space-between; margin-top: 33px;""><img src=""images/choice_trial_4.png"" style=""width: 408px; height: 417px; margin-right: 200px;""><img src=""images/choice_trial_11.png"" style=""width: 408px; height: 417px;""></div></div>","j","delaylearn","learning","trial","5b7924d8338a93000154ad21","jCr86v8Josb6J4FPz63278F1pby1","5","images/choice_trial_4.png","images/choice_trial_11.png","images/pattern_4.png","j","j","7000","4","11","3","1","18","1","1","11","120","","","","",""
"html-keyboard-response","97","198172","0.0-42.0-1.0","","null","<div style=""display: flex; flex-direction: column; align-items: center; margin-top: -40px;""><img src=""images/pattern_4.png"" style=""width: 234px; height: 230px; margin-top: -50px;""><div style=""display: flex; justify-content: space-between; margin-top: 33px;""><img src=""images/choice_trial_11.png"" style=""width: 408px; height: 417px; margin-left:608px;""></div></div>","null","delaylearn","learning","display_response","5b7924d8338a93000154ad21","jCr86v8Josb6J4FPz63278F1pby1","","","","","","","","","","","","","","","","","chosen stimuli: images/choice_trial_11.png","","","",""
"html-keyboard-response","98","205185","0.0-42.0-2.0","","null","","null","delaylearn","learning","feedback_duration_window","5b7924d8338a93000154ad21","jCr86v8Josb6J4FPz63278F1pby1","","","","","","","","","","","","","","","","","","7000","","",""
"html-keyboard-response","99","206699","0.0-42.0-3.0","","null","<div style='margin:auto;width: auto; font-size: 150%'><span style='font-weight: bold; font-size: 100px; color: green;'>+10 points!</span><br><br></div>","null","delaylearn","learning","feedback_image_window","5b7924d8338a93000154ad21","jCr86v8Josb6J4FPz63278F1pby1","","","","","","","","","","","","","","","","","","","","",""
"html-keyboard-response","100","208805","0.0-43.0","","null","<div style=""font-size:100px;"">+</div>","null","delaylearn","learning","ITI","5b7924d8338a93000154ad21","jCr86v8Josb6J4FPz63278F1pby1","","","","","","","","","","","","","","","","","","","2100","",""
"html-keyboard-response","101","210924","0.0-44.0-0.0","","2117.199999999255","<div style=""display: flex; flex-direction: column; align-items: center; margin-top: -40px;""><img src=""images/pattern_7.png"" style=""width: 234px; height: 230px; margin-top: -50px;""><div style=""display: flex; justify-content: space-between; margin-top: 33px;""><img src=""images/choice_trial_8.png"" style=""width: 408px; height: 417px; margin-right: 200px;""><img src=""images/choice_trial_10.png"" style=""width: 408px; height: 417px;""></div></div>","j","delaylearn","learning","trial","5b7924d8338a93000154ad21","jCr86v8Josb6J4FPz63278F1pby1","5","images/choice_trial_8.png","images/choice_trial_10.png","images/pattern_7.png","j","f","750","8","10","6","0","19","0","1","10","130","","","","",""
"html-keyboard-response","102","211934","0.0-44.0-1.0","","null","<div style=""display: flex; flex-direction: column; align-items: center; margin-top: -40px;""><img src=""images/pattern_7.png"" style=""width: 234px; height: 230px; margin-top: -50px;""><div style=""display: flex; justify-content: space-between; margin-top: 33px;""><img src=""images/choice_trial_10.png"" style=""width: 408px; height: 417px; margin-left:608px;""></div></div>","null","delaylearn","learning","display_response","5b7924d8338a93000154ad21","jCr86v8Josb6J4FPz63278F1pby1","","","","","","","","","","","","","","","","","chosen stimuli: images/choice_trial_10.png","","","",""
"html-keyboard-response","103","212694","0.0-44.0-2.0","","null","","null","delaylearn","learning","feedback_duration_window","5b7924d8338a93000154ad21","jCr86v8Josb6J4FPz63278F1pby1","","","","","","","","","","","","","","","","","","750","","",""
"html-keyboard-response","104","214200","0.0-44.0-3.0","","null","<div style='margin:auto;width: auto; font-size: 150%'><span style='font-weight: bold; font-size: 100px; color: green;'>+10 points!</span><br><br></div>","null","delaylearn","learning","feedback_image_window","5b7924d8338a93000154ad21","jCr86v8Josb6J4FPz63278F1pby1","","","","","","","","","","","","","","","","","","","","",""
"html-keyboard-response","105","216670","0.0-45.0","","null","<div style=""font-size:100px;"">+</div>","null","delaylearn","learning","ITI","5b7924d8338a93000154ad21","jCr86v8Josb6J4FPz63278F1pby1","","","","","","","","","","","","","","","","","","","2459","",""
"html-keyboard-response","106","218611","0.0-46.0-0.0","","1937.800000000745","<div style=""display: flex; flex-direction: column; align-items: center; margin-top: -40px;""><img src=""images/pattern_1.png"" style=""width: 234px; height: 230px; margin-top: -50px;""><div style=""display: flex; justify-content: space-between; margin-top: 33px;""><img src=""images/choice_trial_6.png"" style=""width: 408px; height: 417px; margin-right: 200px;""><img src=""images/choice_trial_15.png"" style=""width: 408px; height: 417px;""></div></div>","j","delaylearn","learning","trial","5b7924d8338a93000154ad21","jCr86v8Josb6J4FPz63278F1pby1","5","images/choice_trial_6.png","images/choice_trial_15.png","images/pattern_1.png","f","f","7000","6","15","1","0","20","0","0","15","130","","","","",""
"html-keyboard-response","107","219617","0.0-46.0-1.0","","null","<div style=""display: flex; flex-direction: column; align-items: center; margin-top: -40px;""><img src=""images/pattern_1.png"" style=""width: 234px; height: 230px; margin-top: -50px;""><div style=""display: flex; justify-content: space-between; margin-top: 33px;""><img src=""images/choice_trial_15.png"" style=""width: 408px; height: 417px; margin-left:608px;""></div></div>","null","delaylearn","learning","display_response","5b7924d8338a93000154ad21","jCr86v8Josb6J4FPz63278F1pby1","","","","","","","","","","","","","","","","","chosen stimuli: images/choice_trial_15.png","","","",""
"html-keyboard-response","108","226624","0.0-46.0-2.0","","null","","null","delaylearn","learning","feedback_duration_window","5b7924d8338a93000154ad21","jCr86v8Josb6J4FPz63278F1pby1","","","","","","","","","","","","","","","","","","7000","","",""
"html-keyboard-response","109","228131","0.0-46.0-3.0","","null","<div style='margin:auto;width: auto; font-size: 150%'><span style='font-weight: bold; font-size: 100px; color: red;'>0 points!</span><br><br></div>","null","delaylearn","learning","feedback_image_window","5b7924d8338a93000154ad21","jCr86v8Josb6J4FPz63278F1pby1","","","","","","","","","","","","","","","","","","","","",""
"html-keyboard-response","110","230460","0.0-47.0","","null","<div style=""font-size:100px;"">+</div>","null","delaylearn","learning","ITI","5b7924d8338a93000154ad21","jCr86v8Josb6J4FPz63278F1pby1","","","","","","","","","","","","","","","","","","","2310","",""
"html-keyboard-response","111","231894","0.0-48.0-0.0","","1430.699999999255","<div style=""display: flex; flex-direction: column; align-items: center; margin-top: -40px;""><img src=""images/pattern_6.png"" style=""width: 234px; height: 230px; margin-top: -50px;""><div style=""display: flex; justify-content: space-between; margin-top: 33px;""><img src=""images/choice_trial_9.png"" style=""width: 408px; height: 417px; margin-right: 200px;""><img src=""images/choice_trial_14.png"" style=""width: 408px; height: 417px;""></div></div>","f","delaylearn","learning","trial","5b7924d8338a93000154ad21","jCr86v8Josb6J4FPz63278F1pby1","5","images/choice_trial_9.png","images/choice_trial_14.png","images/pattern_6.png","j","j","750","9","14","5","1","21","0","0","9","130","","","","",""
"html-keyboard-response","112","232898","0.0-48.0-1.0","","null","<div style=""display: flex; flex-direction: column; align-items: center; margin-top: -40px;""><img src=""images/pattern_6.png"" style=""width: 234px; height: 230px; margin-top: -50px;""><div style=""display: flex; justify-content: space-between; margin-top: 33px;""><img src=""images/choice_trial_9.png"" style=""width: 408px; height: 417px; margin-right: 608px;""></div></div>","null","delaylearn","learning","display_response","5b7924d8338a93000154ad21","jCr86v8Josb6J4FPz63278F1pby1","","","","","","","","","","","","","","","","","chosen stimuli: images/choice_trial_9.png","","","",""
"html-keyboard-response","113","233669","0.0-48.0-2.0","","null","","null","delaylearn","learning","feedback_duration_window","5b7924d8338a93000154ad21","jCr86v8Josb6J4FPz63278F1pby1","","","","","","","","","","","","","","","","","","750","","",""
"html-keyboard-response","114","235174","0.0-48.0-3.0","","null","<div style='margin:auto;width: auto; font-size: 150%'><span style='font-weight: bold; font-size: 100px; color: red;'>0 points!</span><br><br></div>","null","delaylearn","learning","feedback_image_window","5b7924d8338a93000154ad21","jCr86v8Josb6J4FPz63278F1pby1","","","","","","","","","","","","","","","","","","","","",""
"html-keyboard-response","115","237290","0.0-49.0","","null","<div style=""font-size:100px;"">+</div>","null","delaylearn","learning","ITI","5b7924d8338a93000154ad21","jCr86v8Josb6J4FPz63278F1pby1","","","","","","","","","","","","","","","","","","","2102","",""
"html-keyboard-response","116","239133","0.0-50.0-0.0","","1840.199999999255","<div style=""display: flex; flex-direction: column; align-items: center; margin-top: -40px;""><img src=""images/pattern_4.png"" style=""width: 234px; height: 230px; margin-top: -50px;""><div style=""display: flex; justify-content: space-between; margin-top: 33px;""><img src=""images/choice_trial_11.png"" style=""width: 408px; height: 417px; margin-right: 200px;""><img src=""images/choice_trial_4.png"" style=""width: 408px; height: 417px;""></div></div>","f","delaylearn","learning","trial","5b7924d8338a93000154ad21","jCr86v8Josb6J4FPz63278F1pby1","5","images/choice_trial_11.png","images/choice_trial_4.png","images/pattern_4.png","f","f","7000","11","4","3","0","22","1","1","11","140","","","","",""
"html-keyboard-response","117","240151","0.0-50.0-1.0","","null","<div style=""display: flex; flex-direction: column; align-items: center; margin-top: -40px;""><img src=""images/pattern_4.png"" style=""width: 234px; height: 230px; margin-top: -50px;""><div style=""display: flex; justify-content: space-between; margin-top: 33px;""><img src=""images/choice_trial_11.png"" style=""width: 408px; height: 417px; margin-right: 608px;""></div></div>","null","delaylearn","learning","display_response","5b7924d8338a93000154ad21","jCr86v8Josb6J4FPz63278F1pby1","","","","","","","","","","","","","","","","","chosen stimuli: images/choice_trial_11.png","","","",""
"html-keyboard-response","118","247160","0.0-50.0-2.0","","null","","null","delaylearn","learning","feedback_duration_window","5b7924d8338a93000154ad21","jCr86v8Josb6J4FPz63278F1pby1","","","","","","","","","","","","","","","","","","7000","","",""
"html-keyboard-response","119","248669","0.0-50.0-3.0","","null","<div style='margin:auto;width: auto; font-size: 150%'><span style='font-weight: bold; font-size: 100px; color: green;'>+10 points!</span><br><br></div>","null","delaylearn","learning","feedback_image_window","5b7924d8338a93000154ad21","jCr86v8Josb6J4FPz63278F1pby1","","","","","","","","","","","","","","","","","","","","",""
"html-keyboard-response","120","249170","0.0-51.0-0.0","","null","","null","","","mood_trial_fixation","","","","","","","","","","","","","","","","","","","","","","",""
"lmdlab-html-vas-response","121","255076","0.0-51.0-1.0","","4898","How happy are you right now?","0.5324074074074074","delaylearn","learning","mood_trial","5b7924d8338a93000154ad21","jCr86v8Josb6J4FPz63278F1pby1","","","","","","","","","","","","","","","","","","","","[""Very unhappy"",""Very happy""]",""
"html-keyboard-response","122","257393","0.0-52.0","","null","<div style=""font-size:100px;"">+</div>","null","delaylearn","learning","ITI","5b7924d8338a93000154ad21","jCr86v8Josb6J4FPz63278F1pby1","","","","","","","","","","","","","","","","","","","2302","",""
"html-keyboard-response","123","259194","0.0-53.0-0.0","","1797.300000000745","<div style=""display: flex; flex-direction: column; align-items: center; margin-top: -40px;""><img src=""images/pattern_7.png"" style=""width: 234px; height: 230px; margin-top: -50px;""><div style=""display: flex; justify-content: space-between; margin-top: 33px;""><img src=""images/choice_trial_10.png"" style=""width: 408px; height: 417px; margin-right: 200px;""><img src=""images/choice_trial_8.png"" style=""width: 408px; height: 417px;""></div></div>","j","delaylearn","learning","trial","5b7924d8338a93000154ad21","jCr86v8Josb6J4FPz63278F1pby1","5","images/choice_trial_10.png","images/choice_trial_8.png","images/pattern_7.png","j","j","750","10","8","6","1","23","1","1","8","150","","","","",""
"html-keyboard-response","124","260206","0.0-53.0-1.0","","null","<div style=""display: flex; flex-direction: column; align-items: center; margin-top: -40px;""><img src=""images/pattern_7.png"" style=""width: 234px; height: 230px; margin-top: -50px;""><div style=""display: flex; justify-content: space-between; margin-top: 33px;""><img src=""images/choice_trial_8.png"" style=""width: 408px; height: 417px; margin-left:608px;""></div></div>","null","delaylearn","learning","display_response","5b7924d8338a93000154ad21","jCr86v8Josb6J4FPz63278F1pby1","","","","","","","","","","","","","","","","","chosen stimuli: images/choice_trial_8.png","","","",""
"html-keyboard-response","125","260975","0.0-53.0-2.0","","null","","null","delaylearn","learning","feedback_duration_window","5b7924d8338a93000154ad21","jCr86v8Josb6J4FPz63278F1pby1","","","","","","","","","","","","","","","","","","750","","",""
"html-keyboard-response","126","262479","0.0-53.0-3.0","","null","<div style='margin:auto;width: auto; font-size: 150%'><span style='font-weight: bold; font-size: 100px; color: green;'>+10 points!</span><br><br></div>","null","delaylearn","learning","feedback_image_window","5b7924d8338a93000154ad21","jCr86v8Josb6J4FPz63278F1pby1","","","","","","","","","","","","","","","","","","","","",""
"html-keyboard-response","127","264055","0.0-54.0","","null","<div style=""font-size:100px;"">+</div>","null","delaylearn","learning","ITI","5b7924d8338a93000154ad21","jCr86v8Josb6J4FPz63278F1pby1","","","","","","","","","","","","","","","","","","","1571","",""
"html-keyboard-response","128","265748","0.0-55.0-0.0","","1691.199999999255","<div style=""display: flex; flex-direction: column; align-items: center; margin-top: -40px;""><img src=""images/pattern_1.png"" style=""width: 234px; height: 230px; margin-top: -50px;""><div style=""display: flex; justify-content: space-between; margin-top: 33px;""><img src=""images/choice_trial_15.png"" style=""width: 408px; height: 417px; margin-right: 200px;""><img src=""images/choice_trial_6.png"" style=""width: 408px; height: 417px;""></div></div>","j","delaylearn","learning","trial","5b7924d8338a93000154ad21","jCr86v8Josb6J4FPz63278F1pby1","5","images/choice_trial_15.png","images/choice_trial_6.png","images/pattern_1.png","f","j","7000","15","6","1","1","24","1","0","6","150","","","","",""
"html-keyboard-response","129","266755","0.0-55.0-1.0","","null","<div style=""display: flex; flex-direction: column; align-items: center; margin-top: -40px;""><img src=""images/pattern_1.png"" style=""width: 234px; height: 230px; margin-top: -50px;""><div style=""display: flex; justify-content: space-between; margin-top: 33px;""><img src=""images/choice_trial_6.png"" style=""width: 408px; height: 417px; margin-left:608px;""></div></div>","null","delaylearn","learning","display_response","5b7924d8338a93000154ad21","jCr86v8Josb6J4FPz63278F1pby1","","","","","","","","","","","","","","","","","chosen stimuli: images/choice_trial_6.png","","","",""
"html-keyboard-response","130","273767","0.0-55.0-2.0","","null","","null","delaylearn","learning","feedback_duration_window","5b7924d8338a93000154ad21","jCr86v8Josb6J4FPz63278F1pby1","","","","","","","","","","","","","","","","","","7000","","",""
"html-keyboard-response","131","275274","0.0-55.0-3.0","","null","<div style='margin:auto;width: auto; font-size: 150%'><span style='font-weight: bold; font-size: 100px; color: red;'>0 points!</span><br><br></div>","null","delaylearn","learning","feedback_image_window","5b7924d8338a93000154ad21","jCr86v8Josb6J4FPz63278F1pby1","","","","","","","","","","","","","","","","","","","","",""
"html-keyboard-response","132","277629","0.0-56.0","","null","<div style=""font-size:100px;"">+</div>","null","delaylearn","learning","ITI","5b7924d8338a93000154ad21","jCr86v8Josb6J4FPz63278F1pby1","","","","","","","","","","","","","","","","","","","2343","",""
"html-keyboard-response","133","279232","0.0-57.0-0.0","","1599.0999999977648","<div style=""display: flex; flex-direction: column; align-items: center; margin-top: -40px;""><img src=""images/pattern_5.png"" style=""width: 234px; height: 230px; margin-top: -50px;""><div style=""display: flex; justify-content: space-between; margin-top: 33px;""><img src=""images/choice_trial_13.png"" style=""width: 408px; height: 417px; margin-right: 200px;""><img src=""images/choice_trial_7.png"" style=""width: 408px; height: 417px;""></div></div>","j","delaylearn","learning","trial","5b7924d8338a93000154ad21","jCr86v8Josb6J4FPz63278F1pby1","5","images/choice_trial_13.png","images/choice_trial_7.png","images/pattern_5.png","j","j","750","13","7","4","1","25","1","1","7","160","","","","",""
"html-keyboard-response","134","280242","0.0-57.0-1.0","","null","<div style=""display: flex; flex-direction: column; align-items: center; margin-top: -40px;""><img src=""images/pattern_5.png"" style=""width: 234px; height: 230px; margin-top: -50px;""><div style=""display: flex; justify-content: space-between; margin-top: 33px;""><img src=""images/choice_trial_7.png"" style=""width: 408px; height: 417px; margin-left:608px;""></div></div>","null","delaylearn","learning","display_response","5b7924d8338a93000154ad21","jCr86v8Josb6J4FPz63278F1pby1","","","","","","","","","","","","","","","","","chosen stimuli: images/choice_trial_7.png","","","",""
"html-keyboard-response","135","281011","0.0-57.0-2.0","","null","","null","delaylearn","learning","feedback_duration_window","5b7924d8338a93000154ad21","jCr86v8Josb6J4FPz63278F1pby1","","","","","","","","","","","","","","","","","","750","","",""
"html-keyboard-response","136","282514","0.0-57.0-3.0","","null","<div style='margin:auto;width: auto; font-size: 150%'><span style='font-weight: bold; font-size: 100px; color: green;'>+10 points!</span><br><br></div>","null","delaylearn","learning","feedback_image_window","5b7924d8338a93000154ad21","jCr86v8Josb6J4FPz63278F1pby1","","","","","","","","","","","","","","","","","","","","",""
"html-keyboard-response","137","284285","0.0-58.0","","null","<div style=""font-size:100px;"">+</div>","null","delaylearn","learning","ITI","5b7924d8338a93000154ad21","jCr86v8Josb6J4FPz63278F1pby1","","","","","","","","","","","","","","","","","","","1768","",""
"html-keyboard-response","138","286966","0.0-59.0-0.0","","2677.5","<div style=""display: flex; flex-direction: column; align-items: center; margin-top: -40px;""><img src=""images/pattern_3.png"" style=""width: 234px; height: 230px; margin-top: -50px;""><div style=""display: flex; justify-content: space-between; margin-top: 33px;""><img src=""images/choice_trial_2.png"" style=""width: 408px; height: 417px; margin-right: 200px;""><img src=""images/choice_trial_16.png"" style=""width: 408px; height: 417px;""></div></div>","f","delaylearn","learning","trial","5b7924d8338a93000154ad21","jCr86v8Josb6J4FPz63278F1pby1","5","images/choice_trial_2.png","images/choice_trial_16.png","images/pattern_3.png","j","j","7000","2","16","2","1","26","0","0","2","160","","","","",""
"html-keyboard-response","139","287973","0.0-59.0-1.0","","null","<div style=""display: flex; flex-direction: column; align-items: center; margin-top: -40px;""><img src=""images/pattern_3.png"" style=""width: 234px; height: 230px; margin-top: -50px;""><div style=""display: flex; justify-content: space-between; margin-top: 33px;""><img src=""images/choice_trial_2.png"" style=""width: 408px; height: 417px; margin-right: 608px;""></div></div>","null","delaylearn","learning","display_response","5b7924d8338a93000154ad21","jCr86v8Josb6J4FPz63278F1pby1","","","","","","","","","","","","","","","","","chosen stimuli: images/choice_trial_2.png","","","",""
"html-keyboard-response","140","294989","0.0-59.0-2.0","","null","","null","delaylearn","learning","feedback_duration_window","5b7924d8338a93000154ad21","jCr86v8Josb6J4FPz63278F1pby1","","","","","","","","","","","","","","","","","","7000","","",""
"html-keyboard-response","141","296510","0.0-59.0-3.0","","null","<div style='margin:auto;width: auto; font-size: 150%'><span style='font-weight: bold; font-size: 100px; color: red;'>0 points!</span><br><br></div>","null","delaylearn","learning","feedback_image_window","5b7924d8338a93000154ad21","jCr86v8Josb6J4FPz63278F1pby1","","","","","","","","","","","","","","","","","","","","",""
"lmdlab-html-vas-response","142","312885","0.0-60.0-0.0","","14859","*How <b><u>confident</u></b> are you feeling about your answers at this moment?*","0.45601851851851855","rewlearn","rate_confidence","","5b7924d8338a93000154ad21","jCr86v8Josb6J4FPz63278F1pby1","","","","","","","","","","","","","","","","","","","","[""No confidence"",""Complete confidence""]",""
"lmdlab-rest-trial-limit","143","321329","0.0-60.0-1.0","","6925.60000000149","<div style=""font-size:40px;""><b>Please take a break!</b><br><br><br><br><p>Great work: you earned 160 points.<br><br><br><p>You have completed part(s) 1 of 5.<br><br><br><br>When you are ready to continue<br><br><br>please click the button.</p><br><br>","0","delaylearn","learning","break","5b7924d8338a93000154ad21","jCr86v8Josb6J4FPz63278F1pby1","","","","","","","","","","","","","","","","","","","","","0"
"html-keyboard-response","144","324337","0.0-60.0-2.0","","null","<div style=""font-size:100px;"">+</div>","null","delaylearn","learning","pre_fixation","5b7924d8338a93000154ad21","","","","","","","","","","","","","","","","","","","","","",""
"lmdlab-html-vas-response","145","330893","0.0-60.0-3.0-0.0","","5548","How happy are you right now?","0.5532407407407407","delaylearn","learning","mood_baseline","5b7924d8338a93000154ad21","jCr86v8Josb6J4FPz63278F1pby1","","","","","","","","","","","","","","","","","","","","[""Very unhappy"",""Very happy""]",""
"html-keyboard-response","146","332397","0.0-60.0-3.0-1.0","","null","","null","","","mood_baseline_fixation","","","","","","","","","","","","","","","","","","","","","","",""
"html-keyboard-response","147","334258","0.0-61.0","","null","<div style=""font-size:100px;"">+</div>","null","delaylearn","learning","ITI","5b7924d8338a93000154ad21","jCr86v8Josb6J4FPz63278F1pby1","","","","","","","","","","","","","","","","","","","1853","",""
"html-keyboard-response","148","335774","0.0-62.0-0.0","","1511.5","<div style=""display: flex; flex-direction: column; align-items: center; margin-top: -40px;""><img src=""images/pattern_7.png"" style=""width: 234px; height: 230px; margin-top: -50px;""><div style=""display: flex; justify-content: space-between; margin-top: 33px;""><img src=""images/choice_trial_10.png"" style=""width: 408px; height: 417px; margin-right: 200px;""><img src=""images/choice_trial_8.png"" style=""width: 408px; height: 417px;""></div></div>","j","delaylearn","learning","trial","5b7924d8338a93000154ad21","jCr86v8Josb6J4FPz63278F1pby1","5","images/choice_trial_10.png","images/choice_trial_8.png","images/pattern_7.png","j","j","750","10","8","6","1","27","1","1","8","170","","","","",""
"html-keyboard-response","149","336789","0.0-62.0-1.0","","null","<div style=""display: flex; flex-direction: column; align-items: center; margin-top: -40px;""><img src=""images/pattern_7.png"" style=""width: 234px; height: 230px; margin-top: -50px;""><div style=""display: flex; justify-content: space-between; margin-top: 33px;""><img src=""images/choice_trial_8.png"" style=""width: 408px; height: 417px; margin-left:608px;""></div></div>","null","delaylearn","learning","display_response","5b7924d8338a93000154ad21","jCr86v8Josb6J4FPz63278F1pby1","","","","","","","","","","","","","","","","","chosen stimuli: images/choice_trial_8.png","","","",""
"html-keyboard-response","150","337550","0.0-62.0-2.0","","null","","null","delaylearn","learning","feedback_duration_window","5b7924d8338a93000154ad21","jCr86v8Josb6J4FPz63278F1pby1","","","","","","","","","","","","","","","","","","750","","",""
"html-keyboard-response","151","339054","0.0-62.0-3.0","","null","<div style='margin:auto;width: auto; font-size: 150%'><span style='font-weight: bold; font-size: 100px; color: green;'>+10 points!</span><br><br></div>","null","delaylearn","learning","feedback_image_window","5b7924d8338a93000154ad21","jCr86v8Josb6J4FPz63278F1pby1","","","","","","","","","","","","","","","","","","","","",""
"html-keyboard-response","152","339558","0.0-63.0-0.0","","null","","null","","","mood_trial_fixation","","","","","","","","","","","","","","","","","","","","","","",""
"lmdlab-html-vas-response","153","345404","0.0-63.0-1.0","","4827","How happy are you right now?","0.5717592592592593","delaylearn","learning","mood_trial","5b7924d8338a93000154ad21","jCr86v8Josb6J4FPz63278F1pby1","","","","","","","","","","","","","","","","","","","","[""Very unhappy"",""Very happy""]",""
"html-keyboard-response","154","346912","0.0-64.0","","null","<div style=""font-size:100px;"">+</div>","null","delaylearn","learning","ITI","5b7924d8338a93000154ad21","jCr86v8Josb6J4FPz63278F1pby1","","","","","","","","","","","","","","","","","","","1502","",""
"html-keyboard-response","155","348537","0.0-65.0-0.0","","1621.4000000022352","<div style=""display: flex; flex-direction: column; align-items: center; margin-top: -40px;""><img src=""images/pattern_1.png"" style=""width: 234px; height: 230px; margin-top: -50px;""><div style=""display: flex; justify-content: space-between; margin-top: 33px;""><img src=""images/choice_trial_6.png"" style=""width: 408px; height: 417px; margin-right: 200px;""><img src=""images/choice_trial_15.png"" style=""width: 408px; height: 417px;""></div></div>","f","delaylearn","learning","trial","5b7924d8338a93000154ad21","jCr86v8Josb6J4FPz63278F1pby1","5","images/choice_trial_6.png","images/choice_trial_15.png","images/pattern_1.png","f","f","7000","6","15","1","0","28","1","1","6","180","","","","",""
"html-keyboard-response","156","349544","0.0-65.0-1.0","","null","<div style=""display: flex; flex-direction: column; align-items: center; margin-top: -40px;""><img src=""images/pattern_1.png"" style=""width: 234px; height: 230px; margin-top: -50px;""><div style=""display: flex; justify-content: space-between; margin-top: 33px;""><img src=""images/choice_trial_6.png"" style=""width: 408px; height: 417px; margin-right: 608px;""></div></div>","null","delaylearn","learning","display_response","5b7924d8338a93000154ad21","jCr86v8Josb6J4FPz63278F1pby1","","","","","","","","","","","","","","","","","chosen stimuli: images/choice_trial_6.png","","","",""
"html-keyboard-response","157","356557","0.0-65.0-2.0","","null","","null","delaylearn","learning","feedback_duration_window","5b7924d8338a93000154ad21","jCr86v8Josb6J4FPz63278F1pby1","","","","","","","","","","","","","","","","","","7000","","",""
"html-keyboard-response","158","358059","0.0-65.0-3.0","","null","<div style='margin:auto;width: auto; font-size: 150%'><span style='font-weight: bold; font-size: 100px; color: green;'>+10 points!</span><br><br></div>","null","delaylearn","learning","feedback_image_window","5b7924d8338a93000154ad21","jCr86v8Josb6J4FPz63278F1pby1","","","","","","","","","","","","","","","","","","","","",""
"html-keyboard-response","159","360312","0.0-66.0","","null","<div style=""font-size:100px;"">+</div>","null","delaylearn","learning","ITI","5b7924d8338a93000154ad21","jCr86v8Josb6J4FPz63278F1pby1","","","","","","","","","","","","","","","","","","","2229","",""
"html-keyboard-response","160","361635","0.0-67.0-0.0","","1319.300000000745","<div style=""display: flex; flex-direction: column; align-items: center; margin-top: -40px;""><img src=""images/pattern_5.png"" style=""width: 234px; height: 230px; margin-top: -50px;""><div style=""display: flex; justify-content: space-between; margin-top: 33px;""><img src=""images/choice_trial_7.png"" style=""width: 408px; height: 417px; margin-right: 200px;""><img src=""images/choice_trial_13.png"" style=""width: 408px; height: 417px;""></div></div>","f","delaylearn","learning","trial","5b7924d8338a93000154ad21","jCr86v8Josb6J4FPz63278F1pby1","5","images/choice_trial_7.png","images/choice_trial_13.png","images/pattern_5.png","f","f","750","7","13","4","0","29","1","1","7","190","","","","",""
"html-keyboard-response","161","362639","0.0-67.0-1.0","","null","<div style=""display: flex; flex-direction: column; align-items: center; margin-top: -40px;""><img src=""images/pattern_5.png"" style=""width: 234px; height: 230px; margin-top: -50px;""><div style=""display: flex; justify-content: space-between; margin-top: 33px;""><img src=""images/choice_trial_7.png"" style=""width: 408px; height: 417px; margin-right: 608px;""></div></div>","null","delaylearn","learning","display_response","5b7924d8338a93000154ad21","jCr86v8Josb6J4FPz63278F1pby1","","","","","","","","","","","","","","","","","chosen stimuli: images/choice_trial_7.png","","","",""
"html-keyboard-response","162","363398","0.0-67.0-2.0","","null","","null","delaylearn","learning","feedback_duration_window","5b7924d8338a93000154ad21","jCr86v8Josb6J4FPz63278F1pby1","","","","","","","","","","","","","","","","","","750","","",""
"html-keyboard-response","163","364922","0.0-67.0-3.0","","null","<div style='margin:auto;width: auto; font-size: 150%'><span style='font-weight: bold; font-size: 100px; color: green;'>+10 points!</span><br><br></div>","null","delaylearn","learning","feedback_image_window","5b7924d8338a93000154ad21","jCr86v8Josb6J4FPz63278F1pby1","","","","","","","","","","","","","","","","","","","","",""
"html-keyboard-response","164","367388","0.0-68.0","","null","<div style=""font-size:100px;"">+</div>","null","delaylearn","learning","ITI","5b7924d8338a93000154ad21","jCr86v8Josb6J4FPz63278F1pby1","","","","","","","","","","","","","","","","","","","2452","",""
"html-keyboard-response","165","369738","0.0-69.0-0.0","","2345.89999999851","<div style=""display: flex; flex-direction: column; align-items: center; margin-top: -40px;""><img src=""images/pattern_6.png"" style=""width: 234px; height: 230px; margin-top: -50px;""><div style=""display: flex; justify-content: space-between; margin-top: 33px;""><img src=""images/choice_trial_9.png"" style=""width: 408px; height: 417px; margin-right: 200px;""><img src=""images/choice_trial_14.png"" style=""width: 408px; height: 417px;""></div></div>","j","delaylearn","learning","trial","5b7924d8338a93000154ad21","jCr86v8Josb6J4FPz63278F1pby1","5","images/choice_trial_9.png","images/choice_trial_14.png","images/pattern_6.png","j","j","750","9","14","5","1","30","1","1","14","200","","","","",""
"html-keyboard-response","166","370749","0.0-69.0-1.0","","null","<div style=""display: flex; flex-direction: column; align-items: center; margin-top: -40px;""><img src=""images/pattern_6.png"" style=""width: 234px; height: 230px; margin-top: -50px;""><div style=""display: flex; justify-content: space-between; margin-top: 33px;""><img src=""images/choice_trial_14.png"" style=""width: 408px; height: 417px; margin-left:608px;""></div></div>","null","delaylearn","learning","display_response","5b7924d8338a93000154ad21","jCr86v8Josb6J4FPz63278F1pby1","","","","","","","","","","","","","","","","","chosen stimuli: images/choice_trial_14.png","","","",""
"html-keyboard-response","167","371501","0.0-69.0-2.0","","null","","null","delaylearn","learning","feedback_duration_window","5b7924d8338a93000154ad21","jCr86v8Josb6J4FPz63278F1pby1","","","","","","","","","","","","","","","","","","750","","",""
"html-keyboard-response","168","373007","0.0-69.0-3.0","","null","<div style='margin:auto;width: auto; font-size: 150%'><span style='font-weight: bold; font-size: 100px; color: green;'>+10 points!</span><br><br></div>","null","delaylearn","learning","feedback_image_window","5b7924d8338a93000154ad21","jCr86v8Josb6J4FPz63278F1pby1","","","","","","","","","","","","","","","","","","","","",""
"html-keyboard-response","169","373509","0.0-70.0-0.0","","null","","null","","","mood_trial_fixation","","","","","","","","","","","","","","","","","","","","","","",""
"lmdlab-html-vas-response","170","384047","0.0-70.0-1.0","","9531","How happy are you right now?","0.6157407407407407","delaylearn","learning","mood_trial","5b7924d8338a93000154ad21","jCr86v8Josb6J4FPz63278F1pby1","","","","","","","","","","","","","","","","","","","","[""Very unhappy"",""Very happy""]",""
"html-keyboard-response","171","386455","0.0-71.0","","null","<div style=""font-size:100px;"">+</div>","null","delaylearn","learning","ITI","5b7924d8338a93000154ad21","jCr86v8Josb6J4FPz63278F1pby1","","","","","","","","","","","","","","","","","","","2404","",""
"html-keyboard-response","172","388104","0.0-72.0-0.0","","1646.3999999985099","<div style=""display: flex; flex-direction: column; align-items: center; margin-top: -40px;""><img src=""images/pattern_4.png"" style=""width: 234px; height: 230px; margin-top: -50px;""><div style=""display: flex; justify-content: space-between; margin-top: 33px;""><img src=""images/choice_trial_4.png"" style=""width: 408px; height: 417px; margin-right: 200px;""><img src=""images/choice_trial_11.png"" style=""width: 408px; height: 417px;""></div></div>","j","delaylearn","learning","trial","5b7924d8338a93000154ad21","jCr86v8Josb6J4FPz63278F1pby1","5","images/choice_trial_4.png","images/choice_trial_11.png","images/pattern_4.png","j","j","7000","4","11","3","1","31","1","1","11","210","","","","",""
"html-keyboard-response","173","389112","0.0-72.0-1.0","","null","<div style=""display: flex; flex-direction: column; align-items: center; margin-top: -40px;""><img src=""images/pattern_4.png"" style=""width: 234px; height: 230px; margin-top: -50px;""><div style=""display: flex; justify-content: space-between; margin-top: 33px;""><img src=""images/choice_trial_11.png"" style=""width: 408px; height: 417px; margin-left:608px;""></div></div>","null","delaylearn","learning","display_response","5b7924d8338a93000154ad21","jCr86v8Josb6J4FPz63278F1pby1","","","","","","","","","","","","","","","","","chosen stimuli: images/choice_trial_11.png","","","",""
"html-keyboard-response","174","396124","0.0-72.0-2.0","","null","","null","delaylearn","learning","feedback_duration_window","5b7924d8338a93000154ad21","jCr86v8Josb6J4FPz63278F1pby1","","","","","","","","","","","","","","","","","","7000","","",""
"html-keyboard-response","175","397648","0.0-72.0-3.0","","null","<div style='margin:auto;width: auto; font-size: 150%'><span style='font-weight: bold; font-size: 100px; color: green;'>+10 points!</span><br><br></div>","null","delaylearn","learning","feedback_image_window","5b7924d8338a93000154ad21","jCr86v8Josb6J4FPz63278F1pby1","","","","","","","","","","","","","","","","","","","","",""
"html-keyboard-response","176","399748","0.0-73.0","","null","<div style=""font-size:100px;"">+</div>","null","delaylearn","learning","ITI","5b7924d8338a93000154ad21","jCr86v8Josb6J4FPz63278F1pby1","","","","","","","","","","","","","","","","","","","2087","",""
"html-keyboard-response","177","402419","0.0-74.0-0.0","","2666.89999999851","<div style=""display: flex; flex-direction: column; align-items: center; margin-top: -40px;""><img src=""images/pattern_3.png"" style=""width: 234px; height: 230px; margin-top: -50px;""><div style=""display: flex; justify-content: space-between; margin-top: 33px;""><img src=""images/choice_trial_2.png"" style=""width: 408px; height: 417px; margin-right: 200px;""><img src=""images/choice_trial_16.png"" style=""width: 408px; height: 417px;""></div></div>","j","delaylearn","learning","trial","5b7924d8338a93000154ad21","jCr86v8Josb6J4FPz63278F1pby1","5","images/choice_trial_2.png","images/choice_trial_16.png","images/pattern_3.png","j","j","7000","2","16","2","1","32","1","1","16","220","","","","",""
"html-keyboard-response","178","403428","0.0-74.0-1.0","","null","<div style=""display: flex; flex-direction: column; align-items: center; margin-top: -40px;""><img src=""images/pattern_3.png"" style=""width: 234px; height: 230px; margin-top: -50px;""><div style=""display: flex; justify-content: space-between; margin-top: 33px;""><img src=""images/choice_trial_16.png"" style=""width: 408px; height: 417px; margin-left:608px;""></div></div>","null","delaylearn","learning","display_response","5b7924d8338a93000154ad21","jCr86v8Josb6J4FPz63278F1pby1","","","","","","","","","","","","","","","","","chosen stimuli: images/choice_trial_16.png","","","",""
"html-keyboard-response","179","410438","0.0-74.0-2.0","","null","","null","delaylearn","learning","feedback_duration_window","5b7924d8338a93000154ad21","jCr86v8Josb6J4FPz63278F1pby1","","","","","","","","","","","","","","","","","","7000","","",""
"html-keyboard-response","180","411944","0.0-74.0-3.0","","null","<div style='margin:auto;width: auto; font-size: 150%'><span style='font-weight: bold; font-size: 100px; color: green;'>+10 points!</span><br><br></div>","null","delaylearn","learning","feedback_image_window","5b7924d8338a93000154ad21","jCr86v8Josb6J4FPz63278F1pby1","","","","","","","","","","","","","","","","","","","","",""
"html-keyboard-response","181","413768","0.0-75.0","","null","<div style=""font-size:100px;"">+</div>","null","delaylearn","learning","ITI","5b7924d8338a93000154ad21","jCr86v8Josb6J4FPz63278F1pby1","","","","","","","","","","","","","","","","","","","1822","",""
"html-keyboard-response","182","415425","0.0-76.0-0.0","","1655.199999999255","<div style=""display: flex; flex-direction: column; align-items: center; margin-top: -40px;""><img src=""images/pattern_5.png"" style=""width: 234px; height: 230px; margin-top: -50px;""><div style=""display: flex; justify-content: space-between; margin-top: 33px;""><img src=""images/choice_trial_7.png"" style=""width: 408px; height: 417px; margin-right: 200px;""><img src=""images/choice_trial_13.png"" style=""width: 408px; height: 417px;""></div></div>","f","delaylearn","learning","trial","5b7924d8338a93000154ad21","jCr86v8Josb6J4FPz63278F1pby1","5","images/choice_trial_7.png","images/choice_trial_13.png","images/pattern_5.png","j","f","750","7","13","4","0","33","1","0","7","220","","","","",""
"html-keyboard-response","183","416429","0.0-76.0-1.0","","null","<div style=""display: flex; flex-direction: column; align-items: center; margin-top: -40px;""><img src=""images/pattern_5.png"" style=""width: 234px; height: 230px; margin-top: -50px;""><div style=""display: flex; justify-content: space-between; margin-top: 33px;""><img src=""images/choice_trial_7.png"" style=""width: 408px; height: 417px; margin-right: 608px;""></div></div>","null","delaylearn","learning","display_response","5b7924d8338a93000154ad21","jCr86v8Josb6J4FPz63278F1pby1","","","","","","","","","","","","","","","","","chosen stimuli: images/choice_trial_7.png","","","",""
"html-keyboard-response","184","417184","0.0-76.0-2.0","","null","","null","delaylearn","learning","feedback_duration_window","5b7924d8338a93000154ad21","jCr86v8Josb6J4FPz63278F1pby1","","","","","","","","","","","","","","","","","","750","","",""
"html-keyboard-response","185","418687","0.0-76.0-3.0","","null","<div style='margin:auto;width: auto; font-size: 150%'><span style='font-weight: bold; font-size: 100px; color: red;'>0 points!</span><br><br></div>","null","delaylearn","learning","feedback_image_window","5b7924d8338a93000154ad21","jCr86v8Josb6J4FPz63278F1pby1","","","","","","","","","","","","","","","","","","","","",""
"html-keyboard-response","186","420861","0.0-77.0","","null","<div style=""font-size:100px;"">+</div>","null","delaylearn","learning","ITI","5b7924d8338a93000154ad21","jCr86v8Josb6J4FPz63278F1pby1","","","","","","","","","","","","","","","","","","","2158","",""
"html-keyboard-response","187","422157","0.0-78.0-0.0","","1292.0999999977648","<div style=""display: flex; flex-direction: column; align-items: center; margin-top: -40px;""><img src=""images/pattern_1.png"" style=""width: 234px; height: 230px; margin-top: -50px;""><div style=""display: flex; justify-content: space-between; margin-top: 33px;""><img src=""images/choice_trial_6.png"" style=""width: 408px; height: 417px; margin-right: 200px;""><img src=""images/choice_trial_15.png"" style=""width: 408px; height: 417px;""></div></div>","f","delaylearn","learning","trial","5b7924d8338a93000154ad21","jCr86v8Josb6J4FPz63278F1pby1","5","images/choice_trial_6.png","images/choice_trial_15.png","images/pattern_1.png","f","f","7000","6","15","1","0","34","1","1","6","230","","","","",""
"html-keyboard-response","188","423171","0.0-78.0-1.0","","null","<div style=""display: flex; flex-direction: column; align-items: center; margin-top: -40px;""><img src=""images/pattern_1.png"" style=""width: 234px; height: 230px; margin-top: -50px;""><div style=""display: flex; justify-content: space-between; margin-top: 33px;""><img src=""images/choice_trial_6.png"" style=""width: 408px; height: 417px; margin-right: 608px;""></div></div>","null","delaylearn","learning","display_response","5b7924d8338a93000154ad21","jCr86v8Josb6J4FPz63278F1pby1","","","","","","","","","","","","","","","","","chosen stimuli: images/choice_trial_6.png","","","",""
"html-keyboard-response","189","430178","0.0-78.0-2.0","","null","","null","delaylearn","learning","feedback_duration_window","5b7924d8338a93000154ad21","jCr86v8Josb6J4FPz63278F1pby1","","","","","","","","","","","","","","","","","","7000","","",""
"html-keyboard-response","190","431686","0.0-78.0-3.0","","null","<div style='margin:auto;width: auto; font-size: 150%'><span style='font-weight: bold; font-size: 100px; color: green;'>+10 points!</span><br><br></div>","null","delaylearn","learning","feedback_image_window","5b7924d8338a93000154ad21","jCr86v8Josb6J4FPz63278F1pby1","","","","","","","","","","","","","","","","","","","","",""
"html-keyboard-response","191","432205","0.0-79.0-0.0","","null","","null","","","mood_trial_fixation","","","","","","","","","","","","","","","","","","","","","","",""
"lmdlab-html-vas-response","192","437964","0.0-79.0-1.0","","4751","How happy are you right now?","0.6226851851851852","delaylearn","learning","mood_trial","5b7924d8338a93000154ad21","jCr86v8Josb6J4FPz63278F1pby1","","","","","","","","","","","","","","","","","","","","[""Very unhappy"",""Very happy""]",""
"html-keyboard-response","193","440345","0.0-80.0","","null","<div style=""font-size:100px;"">+</div>","null","delaylearn","learning","ITI","5b7924d8338a93000154ad21","jCr86v8Josb6J4FPz63278F1pby1","","","","","","","","","","","","","","","","","","","2369","",""
"html-keyboard-response","194","442345","0.0-81.0-0.0","","1996.300000000745","<div style=""display: flex; flex-direction: column; align-items: center; margin-top: -40px;""><img src=""images/pattern_6.png"" style=""width: 234px; height: 230px; margin-top: -50px;""><div style=""display: flex; justify-content: space-between; margin-top: 33px;""><img src=""images/choice_trial_14.png"" style=""width: 408px; height: 417px; margin-right: 200px;""><img src=""images/choice_trial_9.png"" style=""width: 408px; height: 417px;""></div></div>","f","delaylearn","learning","trial","5b7924d8338a93000154ad21","jCr86v8Josb6J4FPz63278F1pby1","5","images/choice_trial_14.png","images/choice_trial_9.png","images/pattern_6.png","j","f","750","14","9","5","0","35","1","0","14","230","","","","",""
"html-keyboard-response","195","443359","0.0-81.0-1.0","","null","<div style=""display: flex; flex-direction: column; align-items: center; margin-top: -40px;""><img src=""images/pattern_6.png"" style=""width: 234px; height: 230px; margin-top: -50px;""><div style=""display: flex; justify-content: space-between; margin-top: 33px;""><img src=""images/choice_trial_14.png"" style=""width: 408px; height: 417px; margin-right: 608px;""></div></div>","null","delaylearn","learning","display_response","5b7924d8338a93000154ad21","jCr86v8Josb6J4FPz63278F1pby1","","","","","","","","","","","","","","","","","chosen stimuli: images/choice_trial_14.png","","","",""
"html-keyboard-response","196","444113","0.0-81.0-2.0","","null","","null","delaylearn","learning","feedback_duration_window","5b7924d8338a93000154ad21","jCr86v8Josb6J4FPz63278F1pby1","","","","","","","","","","","","","","","","","","750","","",""
"html-keyboard-response","197","445618","0.0-81.0-3.0","","null","<div style='margin:auto;width: auto; font-size: 150%'><span style='font-weight: bold; font-size: 100px; color: red;'>0 points!</span><br><br></div>","null","delaylearn","learning","feedback_image_window","5b7924d8338a93000154ad21","jCr86v8Josb6J4FPz63278F1pby1","","","","","","","","","","","","","","","","","","","","",""
"html-keyboard-response","198","447258","0.0-82.0","","null","<div style=""font-size:100px;"">+</div>","null","delaylearn","learning","ITI","5b7924d8338a93000154ad21","jCr86v8Josb6J4FPz63278F1pby1","","","","","","","","","","","","","","","","","","","1637","",""
"html-keyboard-response","199","449041","0.0-83.0-0.0","","1781","<div style=""display: flex; flex-direction: column; align-items: center; margin-top: -40px;""><img src=""images/pattern_3.png"" style=""width: 234px; height: 230px; margin-top: -50px;""><div style=""display: flex; justify-content: space-between; margin-top: 33px;""><img src=""images/choice_trial_2.png"" style=""width: 408px; height: 417px; margin-right: 200px;""><img src=""images/choice_trial_16.png"" style=""width: 408px; height: 417px;""></div></div>","j","delaylearn","learning","trial","5b7924d8338a93000154ad21","jCr86v8Josb6J4FPz63278F1pby1","5","images/choice_trial_2.png","images/choice_trial_16.png","images/pattern_3.png","j","j","7000","2","16","2","1","36","1","1","16","240","","","","",""
"html-keyboard-response","200","450046","0.0-83.0-1.0","","null","<div style=""display: flex; flex-direction: column; align-items: center; margin-top: -40px;""><img src=""images/pattern_3.png"" style=""width: 234px; height: 230px; margin-top: -50px;""><div style=""display: flex; justify-content: space-between; margin-top: 33px;""><img src=""images/choice_trial_16.png"" style=""width: 408px; height: 417px; margin-left:608px;""></div></div>","null","delaylearn","learning","display_response","5b7924d8338a93000154ad21","jCr86v8Josb6J4FPz63278F1pby1","","","","","","","","","","","","","","","","","chosen stimuli: images/choice_trial_16.png","","","",""
"html-keyboard-response","201","457052","0.0-83.0-2.0","","null","","null","delaylearn","learning","feedback_duration_window","5b7924d8338a93000154ad21","jCr86v8Josb6J4FPz63278F1pby1","","","","","","","","","","","","","","","","","","7000","","",""
"html-keyboard-response","202","458559","0.0-83.0-3.0","","null","<div style='margin:auto;width: auto; font-size: 150%'><span style='font-weight: bold; font-size: 100px; color: green;'>+10 points!</span><br><br></div>","null","delaylearn","learning","feedback_image_window","5b7924d8338a93000154ad21","jCr86v8Josb6J4FPz63278F1pby1","","","","","","","","","","","","","","","","","","","","",""
"html-keyboard-response","203","461018","0.0-84.0","","null","<div style=""font-size:100px;"">+</div>","null","delaylearn","learning","ITI","5b7924d8338a93000154ad21","jCr86v8Josb6J4FPz63278F1pby1","","","","","","","","","","","","","","","","","","","2446","",""
"html-keyboard-response","204","463218","0.0-85.0-0.0","","2195.5","<div style=""display: flex; flex-direction: column; align-items: center; margin-top: -40px;""><img src=""images/pattern_4.png"" style=""width: 234px; height: 230px; margin-top: -50px;""><div style=""display: flex; justify-content: space-between; margin-top: 33px;""><img src=""images/choice_trial_4.png"" style=""width: 408px; height: 417px; margin-right: 200px;""><img src=""images/choice_trial_11.png"" style=""width: 408px; height: 417px;""></div></div>","j","delaylearn","learning","trial","5b7924d8338a93000154ad21","jCr86v8Josb6J4FPz63278F1pby1","5","images/choice_trial_4.png","images/choice_trial_11.png","images/pattern_4.png","f","j","7000","4","11","3","1","37","1","0","11","240","","","","",""
"html-keyboard-response","205","464230","0.0-85.0-1.0","","null","<div style=""display: flex; flex-direction: column; align-items: center; margin-top: -40px;""><img src=""images/pattern_4.png"" style=""width: 234px; height: 230px; margin-top: -50px;""><div style=""display: flex; justify-content: space-between; margin-top: 33px;""><img src=""images/choice_trial_11.png"" style=""width: 408px; height: 417px; margin-left:608px;""></div></div>","null","delaylearn","learning","display_response","5b7924d8338a93000154ad21","jCr86v8Josb6J4FPz63278F1pby1","","","","","","","","","","","","","","","","","chosen stimuli: images/choice_trial_11.png","","","",""
"html-keyboard-response","206","471249","0.0-85.0-2.0","","null","","null","delaylearn","learning","feedback_duration_window","5b7924d8338a93000154ad21","jCr86v8Josb6J4FPz63278F1pby1","","","","","","","","","","","","","","","","","","7000","","",""
"html-keyboard-response","207","472760","0.0-85.0-3.0","","null","<div style='margin:auto;width: auto; font-size: 150%'><span style='font-weight: bold; font-size: 100px; color: red;'>0 points!</span><br><br></div>","null","delaylearn","learning","feedback_image_window","5b7924d8338a93000154ad21","jCr86v8Josb6J4FPz63278F1pby1","","","","","","","","","","","","","","","","","","","","",""
"html-keyboard-response","208","474354","0.0-86.0","","null","<div style=""font-size:100px;"">+</div>","null","delaylearn","learning","ITI","5b7924d8338a93000154ad21","jCr86v8Josb6J4FPz63278F1pby1","","","","","","","","","","","","","","","","","","","1585","",""
"html-keyboard-response","209","476679","0.0-87.0-0.0","","2321.5","<div style=""display: flex; flex-direction: column; align-items: center; margin-top: -40px;""><img src=""images/pattern_7.png"" style=""width: 234px; height: 230px; margin-top: -50px;""><div style=""display: flex; justify-content: space-between; margin-top: 33px;""><img src=""images/choice_trial_8.png"" style=""width: 408px; height: 417px; margin-right: 200px;""><img src=""images/choice_trial_10.png"" style=""width: 408px; height: 417px;""></div></div>","f","delaylearn","learning","trial","5b7924d8338a93000154ad21","jCr86v8Josb6J4FPz63278F1pby1","5","images/choice_trial_8.png","images/choice_trial_10.png","images/pattern_7.png","f","f","750","8","10","6","0","38","1","1","8","250","","","","",""
"html-keyboard-response","210","477681","0.0-87.0-1.0","","null","<div style=""display: flex; flex-direction: column; align-items: center; margin-top: -40px;""><img src=""images/pattern_7.png"" style=""width: 234px; height: 230px; margin-top: -50px;""><div style=""display: flex; justify-content: space-between; margin-top: 33px;""><img src=""images/choice_trial_8.png"" style=""width: 408px; height: 417px; margin-right: 608px;""></div></div>","null","delaylearn","learning","display_response","5b7924d8338a93000154ad21","jCr86v8Josb6J4FPz63278F1pby1","","","","","","","","","","","","","","","","","chosen stimuli: images/choice_trial_8.png","","","",""
"html-keyboard-response","211","478436","0.0-87.0-2.0","","null","","null","delaylearn","learning","feedback_duration_window","5b7924d8338a93000154ad21","jCr86v8Josb6J4FPz63278F1pby1","","","","","","","","","","","","","","","","","","750","","",""
"html-keyboard-response","212","479952","0.0-87.0-3.0","","null","<div style='margin:auto;width: auto; font-size: 150%'><span style='font-weight: bold; font-size: 100px; color: green;'>+10 points!</span><br><br></div>","null","delaylearn","learning","feedback_image_window","5b7924d8338a93000154ad21","jCr86v8Josb6J4FPz63278F1pby1","","","","","","","","","","","","","","","","","","","","",""
"html-keyboard-response","213","481494","0.0-88.0","","null","<div style=""font-size:100px;"">+</div>","null","delaylearn","learning","ITI","5b7924d8338a93000154ad21","jCr86v8Josb6J4FPz63278F1pby1","","","","","","","","","","","","","","","","","","","1535","",""
"html-keyboard-response","214","483933","0.0-89.0-0.0","","2435.199999999255","<div style=""display: flex; flex-direction: column; align-items: center; margin-top: -40px;""><img src=""images/pattern_1.png"" style=""width: 234px; height: 230px; margin-top: -50px;""><div style=""display: flex; justify-content: space-between; margin-top: 33px;""><img src=""images/choice_trial_6.png"" style=""width: 408px; height: 417px; margin-right: 200px;""><img src=""images/choice_trial_15.png"" style=""width: 408px; height: 417px;""></div></div>","f","delaylearn","learning","trial","5b7924d8338a93000154ad21","jCr86v8Josb6J4FPz63278F1pby1","5","images/choice_trial_6.png","images/choice_trial_15.png","images/pattern_1.png","f","f","7000","6","15","1","0","39","1","1","6","260","","","","",""
"html-keyboard-response","215","484946","0.0-89.0-1.0","","null","<div style=""display: flex; flex-direction: column; align-items: center; margin-top: -40px;""><img src=""images/pattern_1.png"" style=""width: 234px; height: 230px; margin-top: -50px;""><div style=""display: flex; justify-content: space-between; margin-top: 33px;""><img src=""images/choice_trial_6.png"" style=""width: 408px; height: 417px; margin-right: 608px;""></div></div>","null","delaylearn","learning","display_response","5b7924d8338a93000154ad21","jCr86v8Josb6J4FPz63278F1pby1","","","","","","","","","","","","","","","","","chosen stimuli: images/choice_trial_6.png","","","",""
"html-keyboard-response","216","491964","0.0-89.0-2.0","","null","","null","delaylearn","learning","feedback_duration_window","5b7924d8338a93000154ad21","jCr86v8Josb6J4FPz63278F1pby1","","","","","","","","","","","","","","","","","","7000","","",""
"html-keyboard-response","217","493475","0.0-89.0-3.0","","null","<div style='margin:auto;width: auto; font-size: 150%'><span style='font-weight: bold; font-size: 100px; color: green;'>+10 points!</span><br><br></div>","null","delaylearn","learning","feedback_image_window","5b7924d8338a93000154ad21","jCr86v8Josb6J4FPz63278F1pby1","","","","","","","","","","","","","","","","","","","","",""
"html-keyboard-response","218","493985","0.0-90.0-0.0","","null","","null","","","mood_trial_fixation","","","","","","","","","","","","","","","","","","","","","","",""
"lmdlab-html-vas-response","219","499540","0.0-90.0-1.0","","4547","How happy are you right now?","0.6203703703703703","delaylearn","learning","mood_trial","5b7924d8338a93000154ad21","jCr86v8Josb6J4FPz63278F1pby1","","","","","","","","","","","","","","","","","","","","[""Very unhappy"",""Very happy""]",""
"html-keyboard-response","220","501655","0.0-91.0","","null","<div style=""font-size:100px;"">+</div>","null","delaylearn","learning","ITI","5b7924d8338a93000154ad21","jCr86v8Josb6J4FPz63278F1pby1","","","","","","","","","","","","","","","","","","","2106","",""
