"trial_type","trial_index","time_elapsed","internal_node_id","participant","rt","stimulus","response","exp_name","exp_stage","test_part","subjectID","databaseID","counterbal","choice_stimuli_1","choice_stimuli_2","pattern_stimuli","rewarded_answer","correct_answer","feedback_duration_times","stim_left","stim_right","pair","leftright_counter","trial","response_correct","response_rewarded","chosen_stim","counter","displayed_choice","feedback_durations","ITI_duration","labels","rest_warning"
"pavlovia","0","517","0.0-0.0","","","","","","","","","","","","","","","","","","","","","","","","","","","","","",""
"html-keyboard-response","1","3532","0.0-1.0","","null","<div style=""font-size:100px;"">+</div>","null","delaylearn","learning","pre_fixation","5a8a8de6000dab00018cc170","","","","","","","","","","","","","","","","","","","","","",""
"html-keyboard-response","2","4337","0.0-2.0-0.0","","804.5999999046326","<div style=""display: flex; flex-direction: column; align-items: center; margin-top: -40px;""><img src=""images/demo_images/pattern_1.png"" style=""width: 234px; height: 230px; margin-top: -50px;""><div style=""display: flex; justify-content: space-between; margin-top: 33px;""><img src=""images/demo_images/choice_trial_2.png"" style=""width: 408px; height: 417px; margin-right: 200px;""><img src=""images/demo_images/choice_trial_1.png"" style=""width: 408px; height: 417px;""></div></div>","f","delaylearn","learning","trial","5a8a8de6000dab00018cc170","OShMZSBECRYy9VNGpRij6UFmQi12","4","images/demo_images/choice_trial_2.png","images/demo_images/choice_trial_1.png","images/demo_images/pattern_1.png","j","j","3000","2","1","20","1","1","0","0","2","0","","","","",""
"html-keyboard-response","3","5340","0.0-2.0-1.0","","null","<div style=""display: flex; flex-direction: column; align-items: center; margin-top: -40px;""><img src=""images/demo_images/pattern_1.png"" style=""width: 234px; height: 230px; margin-top: -50px;""><div style=""display: flex; justify-content: space-between; margin-top: 33px;""><img src=""images/demo_images/choice_trial_2.png"" style=""width: 408px; height: 417px; margin-right: 608px;""></div></div>","null","delaylearn","learning","display_response","5a8a8de6000dab00018cc170","OShMZSBECRYy9VNGpRij6UFmQi12","","","","","","","","","","","","","","","","","chosen stimuli: images/demo_images/choice_trial_2.png","","","",""
"html-keyboard-response","4","8348","0.0-2.0-2.0","","null","","null","delaylearn","learning","feedback_duration_window","5a8a8de6000dab00018cc170","OShMZSBECRYy9VNGpRij6UFmQi12","","","","","","","","","","","","","","","","","","3000","","",""
"html-keyboard-response","5","9852","0.0-2.0-3.0","","null","<div style='margin:auto;width: auto; font-size: 150%'><span style='font-weight: bold; font-size: 100px; color: red;'>0 points!</span><br><br></div>","null","delaylearn","learning","feedback_image_window","5a8a8de6000dab00018cc170","OShMZSBECRYy9VNGpRij6UFmQi12","","","","","","","","","","","","","","","","","","","","",""
"html-keyboard-response","6","12348","0.0-3.0","","null","<div style=""font-size:100px;"">+</div>","null","delaylearn","learning","ITI","5a8a8de6000dab00018cc170","OShMZSBECRYy9VNGpRij6UFmQi12","","","","","","","","","","","","","","","","","","","2487","",""
"html-keyboard-response","7","13041","0.0-4.0-0.0","","692.6000003814697","<div style=""display: flex; flex-direction: column; align-items: center; margin-top: -40px;""><img src=""images/demo_images/pattern_1.png"" style=""width: 234px; height: 230px; margin-top: -50px;""><div style=""display: flex; justify-content: space-between; margin-top: 33px;""><img src=""images/demo_images/choice_trial_2.png"" style=""width: 408px; height: 417px; margin-right: 200px;""><img src=""images/demo_images/choice_trial_1.png"" style=""width: 408px; height: 417px;""></div></div>","j","delaylearn","learning","trial","5a8a8de6000dab00018cc170","OShMZSBECRYy9VNGpRij6UFmQi12","4","images/demo_images/choice_trial_2.png","images/demo_images/choice_trial_1.png","images/demo_images/pattern_1.png","j","j","3000","2","1","20","1","2","1","1","1","10","","","","",""
"html-keyboard-response","8","14045","0.0-4.0-1.0","","null","<div style=""display: flex; flex-direction: column; align-items: center; margin-top: -40px;""><img src=""images/demo_images/pattern_1.png"" style=""width: 234px; height: 230px; margin-top: -50px;""><div style=""display: flex; justify-content: space-between; margin-top: 33px;""><img src=""images/demo_images/choice_trial_1.png"" style=""width: 408px; height: 417px; margin-left:608px;""></div></div>","null","delaylearn","learning","display_response","5a8a8de6000dab00018cc170","OShMZSBECRYy9VNGpRij6UFmQi12","","","","","","","","","","","","","","","","","chosen stimuli: images/demo_images/choice_trial_1.png","","","",""
"html-keyboard-response","9","17052","0.0-4.0-2.0","","null","","null","delaylearn","learning","feedback_duration_window","5a8a8de6000dab00018cc170","OShMZSBECRYy9VNGpRij6UFmQi12","","","","","","","","","","","","","","","","","","3000","","",""
"html-keyboard-response","10","18556","0.0-4.0-3.0","","null","<div style='margin:auto;width: auto; font-size: 150%'><span style='font-weight: bold; font-size: 100px; color: green;'>+10 points!</span><br><br></div>","null","delaylearn","learning","feedback_image_window","5a8a8de6000dab00018cc170","OShMZSBECRYy9VNGpRij6UFmQi12","","","","","","","","","","","","","","","","","","","","",""
"html-keyboard-response","11","21052","0.0-5.0","","null","<div style=""font-size:100px;"">+</div>","null","delaylearn","learning","ITI","5a8a8de6000dab00018cc170","OShMZSBECRYy9VNGpRij6UFmQi12","","","","","","","","","","","","","","","","","","","2486","",""
"html-keyboard-response","12","21697","0.0-6.0-0.0","","645.1000003814697","<div style=""display: flex; flex-direction: column; align-items: center; margin-top: -40px;""><img src=""images/demo_images/pattern_1.png"" style=""width: 234px; height: 230px; margin-top: -50px;""><div style=""display: flex; justify-content: space-between; margin-top: 33px;""><img src=""images/demo_images/choice_trial_1.png"" style=""width: 408px; height: 417px; margin-right: 200px;""><img src=""images/demo_images/choice_trial_2.png"" style=""width: 408px; height: 417px;""></div></div>","f","delaylearn","learning","trial","5a8a8de6000dab00018cc170","OShMZSBECRYy9VNGpRij6UFmQi12","4","images/demo_images/choice_trial_1.png","images/demo_images/choice_trial_2.png","images/demo_images/pattern_1.png","j","f","3000","1","2","20","0","3","1","0","1","10","","","","",""
"html-keyboard-response","13","22700","0.0-6.0-1.0","","null","<div style=""display: flex; flex-direction: column; align-items: center; margin-top: -40px;""><img src=""images/demo_images/pattern_1.png"" style=""width: 234px; height: 230px; margin-top: -50px;""><div style=""display: flex; justify-content: space-between; margin-top: 33px;""><img src=""images/demo_images/choice_trial_1.png"" style=""width: 408px; height: 417px; margin-right: 608px;""></div></div>","null","delaylearn","learning","display_response","5a8a8de6000dab00018cc170","OShMZSBECRYy9VNGpRij6UFmQi12","","","","","","","","","","","","","","","","","chosen stimuli: images/demo_images/choice_trial_1.png","","","",""
"html-keyboard-response","14","25708","0.0-6.0-2.0","","null","","null","delaylearn","learning","feedback_duration_window","5a8a8de6000dab00018cc170","OShMZSBECRYy9VNGpRij6UFmQi12","","","","","","","","","","","","","","","","","","3000","","",""
"html-keyboard-response","15","27212","0.0-6.0-3.0","","null","<div style='margin:auto;width: auto; font-size: 150%'><span style='font-weight: bold; font-size: 100px; color: red;'>0 points!</span><br><br></div>","null","delaylearn","learning","feedback_image_window","5a8a8de6000dab00018cc170","OShMZSBECRYy9VNGpRij6UFmQi12","","","","","","","","","","","","","","","","","","","","",""
"html-keyboard-response","16","28795","0.0-7.0","","null","<div style=""font-size:100px;"">+</div>","null","delaylearn","learning","ITI","5a8a8de6000dab00018cc170","OShMZSBECRYy9VNGpRij6UFmQi12","","","","","","","","","","","","","","","","","","","1577","",""
"html-keyboard-response","17","29569","0.0-8.0-0.0","","773","<div style=""display: flex; flex-direction: column; align-items: center; margin-top: -40px;""><img src=""images/demo_images/pattern_1.png"" style=""width: 234px; height: 230px; margin-top: -50px;""><div style=""display: flex; justify-content: space-between; margin-top: 33px;""><img src=""images/demo_images/choice_trial_1.png"" style=""width: 408px; height: 417px; margin-right: 200px;""><img src=""images/demo_images/choice_trial_2.png"" style=""width: 408px; height: 417px;""></div></div>","f","delaylearn","learning","trial","5a8a8de6000dab00018cc170","OShMZSBECRYy9VNGpRij6UFmQi12","4","images/demo_images/choice_trial_1.png","images/demo_images/choice_trial_2.png","images/demo_images/pattern_1.png","f","f","3000","1","2","20","0","4","1","1","1","20","","","","",""
"html-keyboard-response","18","30572","0.0-8.0-1.0","","null","<div style=""display: flex; flex-direction: column; align-items: center; margin-top: -40px;""><img src=""images/demo_images/pattern_1.png"" style=""width: 234px; height: 230px; margin-top: -50px;""><div style=""display: flex; justify-content: space-between; margin-top: 33px;""><img src=""images/demo_images/choice_trial_1.png"" style=""width: 408px; height: 417px; margin-right: 608px;""></div></div>","null","delaylearn","learning","display_response","5a8a8de6000dab00018cc170","OShMZSBECRYy9VNGpRij6UFmQi12","","","","","","","","","","","","","","","","","chosen stimuli: images/demo_images/choice_trial_1.png","","","",""
"html-keyboard-response","19","33580","0.0-8.0-2.0","","null","","null","delaylearn","learning","feedback_duration_window","5a8a8de6000dab00018cc170","OShMZSBECRYy9VNGpRij6UFmQi12","","","","","","","","","","","","","","","","","","3000","","",""
"html-keyboard-response","20","35084","0.0-8.0-3.0","","null","<div style='margin:auto;width: auto; font-size: 150%'><span style='font-weight: bold; font-size: 100px; color: green;'>+10 points!</span><br><br></div>","null","delaylearn","learning","feedback_image_window","5a8a8de6000dab00018cc170","OShMZSBECRYy9VNGpRij6UFmQi12","","","","","","","","","","","","","","","","","","","","",""
"html-keyboard-response","21","35596","0.0-9.0-0.0","","null","","null","","","mood_trial_fixation","","","","","","","","","","","","","","","","","","","","","","",""
"lmdlab-html-vas-response","22","39931","0.0-9.0-1.0","","3323","How happy are you right now?","0.2808641975308642","delaylearn","learning","mood_trial","5a8a8de6000dab00018cc170","OShMZSBECRYy9VNGpRij6UFmQi12","","","","","","","","","","","","","","","","","","","","[""Very unhappy"",""Very happy""]",""
"html-keyboard-response","23","42252","0.0-10.0","","null","<div style=""font-size:100px;"">+</div>","null","delaylearn","learning","ITI","5a8a8de6000dab00018cc170","OShMZSBECRYy9VNGpRij6UFmQi12","","","","","","","","","","","","","","","","","","","2309","",""
"html-keyboard-response","24","42985","0.0-11.0-0.0","","732.6999998092651","<div style=""display: flex; flex-direction: column; align-items: center; margin-top: -40px;""><img src=""images/demo_images/pattern_1.png"" style=""width: 234px; height: 230px; margin-top: -50px;""><div style=""display: flex; justify-content: space-between; margin-top: 33px;""><img src=""images/demo_images/choice_trial_2.png"" style=""width: 408px; height: 417px; margin-right: 200px;""><img src=""images/demo_images/choice_trial_1.png"" style=""width: 408px; height: 417px;""></div></div>","j","delaylearn","learning","trial","5a8a8de6000dab00018cc170","OShMZSBECRYy9VNGpRij6UFmQi12","4","images/demo_images/choice_trial_2.png","images/demo_images/choice_trial_1.png","images/demo_images/pattern_1.png","j","j","3000","2","1","20","1","5","1","1","1","30","","","","",""
"html-keyboard-response","25","43996","0.0-11.0-1.0","","null","<div style=""display: flex; flex-direction: column; align-items: center; margin-top: -40px;""><img src=""images/demo_images/pattern_1.png"" style=""width: 234px; height: 230px; margin-top: -50px;""><div style=""display: flex; justify-content: space-between; margin-top: 33px;""><img src=""images/demo_images/choice_trial_1.png"" style=""width: 408px; height: 417px; margin-left:608px;""></div></div>","null","delaylearn","learning","display_response","5a8a8de6000dab00018cc170","OShMZSBECRYy9VNGpRij6UFmQi12","","","","","","","","","","","","","","","","","chosen stimuli: images/demo_images/choice_trial_1.png","","","",""
"html-keyboard-response","26","47004","0.0-11.0-2.0","","null","","null","delaylearn","learning","feedback_duration_window","5a8a8de6000dab00018cc170","OShMZSBECRYy9VNGpRij6UFmQi12","","","","","","","","","","","","","","","","","","3000","","",""
"html-keyboard-response","27","48508","0.0-11.0-3.0","","null","<div style='margin:auto;width: auto; font-size: 150%'><span style='font-weight: bold; font-size: 100px; color: green;'>+10 points!</span><br><br></div>","null","delaylearn","learning","feedback_image_window","5a8a8de6000dab00018cc170","OShMZSBECRYy9VNGpRij6UFmQi12","","","","","","","","","","","","","","","","","","","","",""
"html-keyboard-response","28","50444","0.0-12.0","","null","<div style=""font-size:100px;"">+</div>","null","delaylearn","learning","ITI","5a8a8de6000dab00018cc170","OShMZSBECRYy9VNGpRij6UFmQi12","","","","","","","","","","","","","","","","","","","1926","",""
"html-keyboard-response","29","50921","0.0-13.0-0.0","","476.80000019073486","<div style=""display: flex; flex-direction: column; align-items: center; margin-top: -40px;""><img src=""images/demo_images/pattern_1.png"" style=""width: 234px; height: 230px; margin-top: -50px;""><div style=""display: flex; justify-content: space-between; margin-top: 33px;""><img src=""images/demo_images/choice_trial_1.png"" style=""width: 408px; height: 417px; margin-right: 200px;""><img src=""images/demo_images/choice_trial_2.png"" style=""width: 408px; height: 417px;""></div></div>","f","delaylearn","learning","trial","5a8a8de6000dab00018cc170","OShMZSBECRYy9VNGpRij6UFmQi12","4","images/demo_images/choice_trial_1.png","images/demo_images/choice_trial_2.png","images/demo_images/pattern_1.png","f","f","3000","1","2","20","0","6","1","1","1","40","","","","",""
"html-keyboard-response","30","51932","0.0-13.0-1.0","","null","<div style=""display: flex; flex-direction: column; align-items: center; margin-top: -40px;""><img src=""images/demo_images/pattern_1.png"" style=""width: 234px; height: 230px; margin-top: -50px;""><div style=""display: flex; justify-content: space-between; margin-top: 33px;""><img src=""images/demo_images/choice_trial_1.png"" style=""width: 408px; height: 417px; margin-right: 608px;""></div></div>","null","delaylearn","learning","display_response","5a8a8de6000dab00018cc170","OShMZSBECRYy9VNGpRij6UFmQi12","","","","","","","","","","","","","","","","","chosen stimuli: images/demo_images/choice_trial_1.png","","","",""
"html-keyboard-response","31","54940","0.0-13.0-2.0","","null","","null","delaylearn","learning","feedback_duration_window","5a8a8de6000dab00018cc170","OShMZSBECRYy9VNGpRij6UFmQi12","","","","","","","","","","","","","","","","","","3000","","",""
"html-keyboard-response","32","56444","0.0-13.0-3.0","","null","<div style='margin:auto;width: auto; font-size: 150%'><span style='font-weight: bold; font-size: 100px; color: green;'>+10 points!</span><br><br></div>","null","delaylearn","learning","feedback_image_window","5a8a8de6000dab00018cc170","OShMZSBECRYy9VNGpRij6UFmQi12","","","","","","","","","","","","","","","","","","","","",""
"html-keyboard-response","33","58124","0.0-14.0","","null","<div style=""font-size:100px;"">+</div>","null","delaylearn","learning","ITI","5a8a8de6000dab00018cc170","OShMZSBECRYy9VNGpRij6UFmQi12","","","","","","","","","","","","","","","","","","","1676","",""
"html-keyboard-response","34","58641","0.0-15.0-0.0","","516.0999999046326","<div style=""display: flex; flex-direction: column; align-items: center; margin-top: -40px;""><img src=""images/demo_images/pattern_1.png"" style=""width: 234px; height: 230px; margin-top: -50px;""><div style=""display: flex; justify-content: space-between; margin-top: 33px;""><img src=""images/demo_images/choice_trial_2.png"" style=""width: 408px; height: 417px; margin-right: 200px;""><img src=""images/demo_images/choice_trial_1.png"" style=""width: 408px; height: 417px;""></div></div>","j","delaylearn","learning","trial","5a8a8de6000dab00018cc170","OShMZSBECRYy9VNGpRij6UFmQi12","4","images/demo_images/choice_trial_2.png","images/demo_images/choice_trial_1.png","images/demo_images/pattern_1.png","j","j","3000","2","1","20","1","7","1","1","1","50","","","","",""
"html-keyboard-response","35","59644","0.0-15.0-1.0","","null","<div style=""display: flex; flex-direction: column; align-items: center; margin-top: -40px;""><img src=""images/demo_images/pattern_1.png"" style=""width: 234px; height: 230px; margin-top: -50px;""><div style=""display: flex; justify-content: space-between; margin-top: 33px;""><img src=""images/demo_images/choice_trial_1.png"" style=""width: 408px; height: 417px; margin-left:608px;""></div></div>","null","delaylearn","learning","display_response","5a8a8de6000dab00018cc170","OShMZSBECRYy9VNGpRij6UFmQi12","","","","","","","","","","","","","","","","","chosen stimuli: images/demo_images/choice_trial_1.png","","","",""
"html-keyboard-response","36","62652","0.0-15.0-2.0","","null","","null","delaylearn","learning","feedback_duration_window","5a8a8de6000dab00018cc170","OShMZSBECRYy9VNGpRij6UFmQi12","","","","","","","","","","","","","","","","","","3000","","",""
"html-keyboard-response","37","64157","0.0-15.0-3.0","","null","<div style='margin:auto;width: auto; font-size: 150%'><span style='font-weight: bold; font-size: 100px; color: green;'>+10 points!</span><br><br></div>","null","delaylearn","learning","feedback_image_window","5a8a8de6000dab00018cc170","OShMZSBECRYy9VNGpRij6UFmQi12","","","","","","","","","","","","","","","","","","","","",""
"html-keyboard-response","38","66077","0.0-16.0","","null","<div style=""font-size:100px;"">+</div>","null","delaylearn","learning","ITI","5a8a8de6000dab00018cc170","OShMZSBECRYy9VNGpRij6UFmQi12","","","","","","","","","","","","","","","","","","","1912","",""
"html-keyboard-response","39","66593","0.0-17.0-0.0","","516","<div style=""display: flex; flex-direction: column; align-items: center; margin-top: -40px;""><img src=""images/demo_images/pattern_1.png"" style=""width: 234px; height: 230px; margin-top: -50px;""><div style=""display: flex; justify-content: space-between; margin-top: 33px;""><img src=""images/demo_images/choice_trial_1.png"" style=""width: 408px; height: 417px; margin-right: 200px;""><img src=""images/demo_images/choice_trial_2.png"" style=""width: 408px; height: 417px;""></div></div>","f","delaylearn","learning","trial","5a8a8de6000dab00018cc170","OShMZSBECRYy9VNGpRij6UFmQi12","4","images/demo_images/choice_trial_1.png","images/demo_images/choice_trial_2.png","images/demo_images/pattern_1.png","f","f","3000","1","2","20","0","8","1","1","1","60","","","","",""
"html-keyboard-response","40","67597","0.0-17.0-1.0","","null","<div style=""display: flex; flex-direction: column; align-items: center; margin-top: -40px;""><img src=""images/demo_images/pattern_1.png"" style=""width: 234px; height: 230px; margin-top: -50px;""><div style=""display: flex; justify-content: space-between; margin-top: 33px;""><img src=""images/demo_images/choice_trial_1.png"" style=""width: 408px; height: 417px; margin-right: 608px;""></div></div>","null","delaylearn","learning","display_response","5a8a8de6000dab00018cc170","OShMZSBECRYy9VNGpRij6UFmQi12","","","","","","","","","","","","","","","","","chosen stimuli: images/demo_images/choice_trial_1.png","","","",""
"html-keyboard-response","41","70604","0.0-17.0-2.0","","null","","null","delaylearn","learning","feedback_duration_window","5a8a8de6000dab00018cc170","OShMZSBECRYy9VNGpRij6UFmQi12","","","","","","","","","","","","","","","","","","3000","","",""
"html-keyboard-response","42","72108","0.0-17.0-3.0","","null","<div style='margin:auto;width: auto; font-size: 150%'><span style='font-weight: bold; font-size: 100px; color: green;'>+10 points!</span><br><br></div>","null","delaylearn","learning","feedback_image_window","5a8a8de6000dab00018cc170","OShMZSBECRYy9VNGpRij6UFmQi12","","","","","","","","","","","","","","","","","","","","",""
"html-button-response","43","74650","0.0-18.0","","2541.5","
  <div style=""display: flex; align-items: center; justify-content: center; height: 80vh;"">
  <div>
          <img src=""images/inst_demo_finish.png"" style=""width: 80vw; height:auto;"">
          <br><br>
      </div>
      <br><br>
  </div>","0","","","","","","","","","","","","","","","","","","","","","","","","","",""
"html-keyboard-response","44","77657","0.0-19.0","","3006.6000003814697","
  <div style=""display: flex; align-items: center; justify-content: center; height: 80vh;"">
  <div>
          <img src=""images/inst_6.png"" style=""width: 80vw; height:auto;"">
          <br><br>
      </div>
      <br><br>
  </div>","f","","","","","","","","","","","","","","","","","","","","","","","","","",""
"html-keyboard-response","45","80668","0.0-20.0","","null","<div style=""font-size:100px;"">+</div>","null","delaylearn","learning","pre_fixation","5a8a8de6000dab00018cc170","","","","","","","","","","","","","","","","","","","","","",""
"html-keyboard-response","46","82924","0.0-21.0","","null","<div style=""font-size:100px;"">+</div>","null","delaylearn","learning","ITI","5a8a8de6000dab00018cc170","OShMZSBECRYy9VNGpRij6UFmQi12","","","","","","","","","","","","","","","","","","","2241","",""
"html-keyboard-response","47","83841","0.0-22.0-0.0","","916.1999998092651","<div style=""display: flex; flex-direction: column; align-items: center; margin-top: -40px;""><img src=""images/pattern_3.png"" style=""width: 234px; height: 230px; margin-top: -50px;""><div style=""display: flex; justify-content: space-between; margin-top: 33px;""><img src=""images/choice_trial_16.png"" style=""width: 408px; height: 417px; margin-right: 200px;""><img src=""images/choice_trial_6.png"" style=""width: 408px; height: 417px;""></div></div>","f","delaylearn","learning","trial","5a8a8de6000dab00018cc170","OShMZSBECRYy9VNGpRij6UFmQi12","4","images/choice_trial_16.png","images/choice_trial_6.png","images/pattern_3.png","f","f","7000","16","6","2","0","9","1","1","16","70","","","","",""
"html-keyboard-response","48","84845","0.0-22.0-1.0","","null","<div style=""display: flex; flex-direction: column; align-items: center; margin-top: -40px;""><img src=""images/pattern_3.png"" style=""width: 234px; height: 230px; margin-top: -50px;""><div style=""display: flex; justify-content: space-between; margin-top: 33px;""><img src=""images/choice_trial_16.png"" style=""width: 408px; height: 417px; margin-right: 608px;""></div></div>","null","delaylearn","learning","display_response","5a8a8de6000dab00018cc170","OShMZSBECRYy9VNGpRij6UFmQi12","","","","","","","","","","","","","","","","","chosen stimuli: images/choice_trial_16.png","","","",""
"html-keyboard-response","49","91853","0.0-22.0-2.0","","null","","null","delaylearn","learning","feedback_duration_window","5a8a8de6000dab00018cc170","OShMZSBECRYy9VNGpRij6UFmQi12","","","","","","","","","","","","","","","","","","7000","","",""
"html-keyboard-response","50","93356","0.0-22.0-3.0","","null","<div style='margin:auto;width: auto; font-size: 150%'><span style='font-weight: bold; font-size: 100px; color: green;'>+10 points!</span><br><br></div>","null","delaylearn","learning","feedback_image_window","5a8a8de6000dab00018cc170","OShMZSBECRYy9VNGpRij6UFmQi12","","","","","","","","","","","","","","","","","","","","",""
"html-keyboard-response","51","95132","0.0-23.0","","null","<div style=""font-size:100px;"">+</div>","null","delaylearn","learning","ITI","5a8a8de6000dab00018cc170","OShMZSBECRYy9VNGpRij6UFmQi12","","","","","","","","","","","","","","","","","","","1774","",""
"html-keyboard-response","52","96641","0.0-24.0-0.0","","1508.3999996185303","<div style=""display: flex; flex-direction: column; align-items: center; margin-top: -40px;""><img src=""images/pattern_7.png"" style=""width: 234px; height: 230px; margin-top: -50px;""><div style=""display: flex; justify-content: space-between; margin-top: 33px;""><img src=""images/choice_trial_4.png"" style=""width: 408px; height: 417px; margin-right: 200px;""><img src=""images/choice_trial_13.png"" style=""width: 408px; height: 417px;""></div></div>","j","delaylearn","learning","trial","5a8a8de6000dab00018cc170","OShMZSBECRYy9VNGpRij6UFmQi12","4","images/choice_trial_4.png","images/choice_trial_13.png","images/pattern_7.png","j","j","750","4","13","6","1","10","1","1","13","80","","","","",""
"html-keyboard-response","53","97644","0.0-24.0-1.0","","null","<div style=""display: flex; flex-direction: column; align-items: center; margin-top: -40px;""><img src=""images/pattern_7.png"" style=""width: 234px; height: 230px; margin-top: -50px;""><div style=""display: flex; justify-content: space-between; margin-top: 33px;""><img src=""images/choice_trial_13.png"" style=""width: 408px; height: 417px; margin-left:608px;""></div></div>","null","delaylearn","learning","display_response","5a8a8de6000dab00018cc170","OShMZSBECRYy9VNGpRij6UFmQi12","","","","","","","","","","","","","","","","","chosen stimuli: images/choice_trial_13.png","","","",""
"html-keyboard-response","54","98396","0.0-24.0-2.0","","null","","null","delaylearn","learning","feedback_duration_window","5a8a8de6000dab00018cc170","OShMZSBECRYy9VNGpRij6UFmQi12","","","","","","","","","","","","","","","","","","750","","",""
"html-keyboard-response","55","99901","0.0-24.0-3.0","","null","<div style='margin:auto;width: auto; font-size: 150%'><span style='font-weight: bold; font-size: 100px; color: green;'>+10 points!</span><br><br></div>","null","delaylearn","learning","feedback_image_window","5a8a8de6000dab00018cc170","OShMZSBECRYy9VNGpRij6UFmQi12","","","","","","","","","","","","","","","","","","","","",""
"html-keyboard-response","56","101740","0.0-25.0","","null","<div style=""font-size:100px;"">+</div>","null","delaylearn","learning","ITI","5a8a8de6000dab00018cc170","OShMZSBECRYy9VNGpRij6UFmQi12","","","","","","","","","","","","","","","","","","","1838","",""
"html-keyboard-response","57","102969","0.0-26.0-0.0","","1228.3000001907349","<div style=""display: flex; flex-direction: column; align-items: center; margin-top: -40px;""><img src=""images/pattern_4.png"" style=""width: 234px; height: 230px; margin-top: -50px;""><div style=""display: flex; justify-content: space-between; margin-top: 33px;""><img src=""images/choice_trial_8.png"" style=""width: 408px; height: 417px; margin-right: 200px;""><img src=""images/choice_trial_7.png"" style=""width: 408px; height: 417px;""></div></div>","j","delaylearn","learning","trial","5a8a8de6000dab00018cc170","OShMZSBECRYy9VNGpRij6UFmQi12","4","images/choice_trial_8.png","images/choice_trial_7.png","images/pattern_4.png","f","f","7000","8","7","3","0","11","0","0","7","80","","","","",""
"html-keyboard-response","58","103981","0.0-26.0-1.0","","null","<div style=""display: flex; flex-direction: column; align-items: center; margin-top: -40px;""><img src=""images/pattern_4.png"" style=""width: 234px; height: 230px; margin-top: -50px;""><div style=""display: flex; justify-content: space-between; margin-top: 33px;""><img src=""images/choice_trial_7.png"" style=""width: 408px; height: 417px; margin-left:608px;""></div></div>","null","delaylearn","learning","display_response","5a8a8de6000dab00018cc170","OShMZSBECRYy9VNGpRij6UFmQi12","","","","","","","","","","","","","","","","","chosen stimuli: images/choice_trial_7.png","","","",""
"html-keyboard-response","59","110988","0.0-26.0-2.0","","null","","null","delaylearn","learning","feedback_duration_window","5a8a8de6000dab00018cc170","OShMZSBECRYy9VNGpRij6UFmQi12","","","","","","","","","","","","","","","","","","7000","","",""
"html-keyboard-response","60","112493","0.0-26.0-3.0","","null","<div style='margin:auto;width: auto; font-size: 150%'><span style='font-weight: bold; font-size: 100px; color: red;'>0 points!</span><br><br></div>","null","delaylearn","learning","feedback_image_window","5a8a8de6000dab00018cc170","OShMZSBECRYy9VNGpRij6UFmQi12","","","","","","","","","","","","","","","","","","","","",""
"html-keyboard-response","61","114908","0.0-27.0","","null","<div style=""font-size:100px;"">+</div>","null","delaylearn","learning","ITI","5a8a8de6000dab00018cc170","OShMZSBECRYy9VNGpRij6UFmQi12","","","","","","","","","","","","","","","","","","","2409","",""
"html-keyboard-response","62","116153","0.0-28.0-0.0","","1244","<div style=""display: flex; flex-direction: column; align-items: center; margin-top: -40px;""><img src=""images/pattern_5.png"" style=""width: 234px; height: 230px; margin-top: -50px;""><div style=""display: flex; justify-content: space-between; margin-top: 33px;""><img src=""images/choice_trial_15.png"" style=""width: 408px; height: 417px; margin-right: 200px;""><img src=""images/choice_trial_5.png"" style=""width: 408px; height: 417px;""></div></div>","j","delaylearn","learning","trial","5a8a8de6000dab00018cc170","OShMZSBECRYy9VNGpRij6UFmQi12","4","images/choice_trial_15.png","images/choice_trial_5.png","images/pattern_5.png","j","j","750","15","5","4","1","12","1","1","5","90","","","","",""
"html-keyboard-response","63","117164","0.0-28.0-1.0","","null","<div style=""display: flex; flex-direction: column; align-items: center; margin-top: -40px;""><img src=""images/pattern_5.png"" style=""width: 234px; height: 230px; margin-top: -50px;""><div style=""display: flex; justify-content: space-between; margin-top: 33px;""><img src=""images/choice_trial_5.png"" style=""width: 408px; height: 417px; margin-left:608px;""></div></div>","null","delaylearn","learning","display_response","5a8a8de6000dab00018cc170","OShMZSBECRYy9VNGpRij6UFmQi12","","","","","","","","","","","","","","","","","chosen stimuli: images/choice_trial_5.png","","","",""
"html-keyboard-response","64","117916","0.0-28.0-2.0","","null","","null","delaylearn","learning","feedback_duration_window","5a8a8de6000dab00018cc170","OShMZSBECRYy9VNGpRij6UFmQi12","","","","","","","","","","","","","","","","","","750","","",""
"html-keyboard-response","65","119420","0.0-28.0-3.0","","null","<div style='margin:auto;width: auto; font-size: 150%'><span style='font-weight: bold; font-size: 100px; color: green;'>+10 points!</span><br><br></div>","null","delaylearn","learning","feedback_image_window","5a8a8de6000dab00018cc170","OShMZSBECRYy9VNGpRij6UFmQi12","","","","","","","","","","","","","","","","","","","","",""
"html-keyboard-response","66","121773","0.0-29.0","","null","<div style=""font-size:100px;"">+</div>","null","delaylearn","learning","ITI","5a8a8de6000dab00018cc170","OShMZSBECRYy9VNGpRij6UFmQi12","","","","","","","","","","","","","","","","","","","2350","",""
"html-keyboard-response","67","123169","0.0-30.0-0.0","","1396","<div style=""display: flex; flex-direction: column; align-items: center; margin-top: -40px;""><img src=""images/pattern_6.png"" style=""width: 234px; height: 230px; margin-top: -50px;""><div style=""display: flex; justify-content: space-between; margin-top: 33px;""><img src=""images/choice_trial_10.png"" style=""width: 408px; height: 417px; margin-right: 200px;""><img src=""images/choice_trial_3.png"" style=""width: 408px; height: 417px;""></div></div>","j","delaylearn","learning","trial","5a8a8de6000dab00018cc170","OShMZSBECRYy9VNGpRij6UFmQi12","4","images/choice_trial_10.png","images/choice_trial_3.png","images/pattern_6.png","j","f","750","10","3","5","0","13","0","1","3","100","","","","",""
"html-keyboard-response","68","124172","0.0-30.0-1.0","","null","<div style=""display: flex; flex-direction: column; align-items: center; margin-top: -40px;""><img src=""images/pattern_6.png"" style=""width: 234px; height: 230px; margin-top: -50px;""><div style=""display: flex; justify-content: space-between; margin-top: 33px;""><img src=""images/choice_trial_3.png"" style=""width: 408px; height: 417px; margin-left:608px;""></div></div>","null","delaylearn","learning","display_response","5a8a8de6000dab00018cc170","OShMZSBECRYy9VNGpRij6UFmQi12","","","","","","","","","","","","","","","","","chosen stimuli: images/choice_trial_3.png","","","",""
"html-keyboard-response","69","124924","0.0-30.0-2.0","","null","","null","delaylearn","learning","feedback_duration_window","5a8a8de6000dab00018cc170","OShMZSBECRYy9VNGpRij6UFmQi12","","","","","","","","","","","","","","","","","","750","","",""
"html-keyboard-response","70","126429","0.0-30.0-3.0","","null","<div style='margin:auto;width: auto; font-size: 150%'><span style='font-weight: bold; font-size: 100px; color: green;'>+10 points!</span><br><br></div>","null","delaylearn","learning","feedback_image_window","5a8a8de6000dab00018cc170","OShMZSBECRYy9VNGpRij6UFmQi12","","","","","","","","","","","","","","","","","","","","",""
"html-keyboard-response","71","126940","0.0-31.0-0.0","","null","","null","","","mood_trial_fixation","","","","","","","","","","","","","","","","","","","","","","",""
"lmdlab-html-vas-response","72","130795","0.0-31.0-1.0","","2846","How happy are you right now?","0.3410493827160494","delaylearn","learning","mood_trial","5a8a8de6000dab00018cc170","OShMZSBECRYy9VNGpRij6UFmQi12","","","","","","","","","","","","","","","","","","","","[""Very unhappy"",""Very happy""]",""
"html-keyboard-response","73","133213","0.0-32.0","","null","<div style=""font-size:100px;"">+</div>","null","delaylearn","learning","ITI","5a8a8de6000dab00018cc170","OShMZSBECRYy9VNGpRij6UFmQi12","","","","","","","","","","","","","","","","","","","2408","",""
"html-keyboard-response","74","134449","0.0-33.0-0.0","","1235.6999998092651","<div style=""display: flex; flex-direction: column; align-items: center; margin-top: -40px;""><img src=""images/pattern_1.png"" style=""width: 234px; height: 230px; margin-top: -50px;""><div style=""display: flex; justify-content: space-between; margin-top: 33px;""><img src=""images/choice_trial_9.png"" style=""width: 408px; height: 417px; margin-right: 200px;""><img src=""images/choice_trial_1.png"" style=""width: 408px; height: 417px;""></div></div>","f","delaylearn","learning","trial","5a8a8de6000dab00018cc170","OShMZSBECRYy9VNGpRij6UFmQi12","4","images/choice_trial_9.png","images/choice_trial_1.png","images/pattern_1.png","j","j","7000","9","1","1","1","14","0","0","9","100","","","","",""
"html-keyboard-response","75","135452","0.0-33.0-1.0","","null","<div style=""display: flex; flex-direction: column; align-items: center; margin-top: -40px;""><img src=""images/pattern_1.png"" style=""width: 234px; height: 230px; margin-top: -50px;""><div style=""display: flex; justify-content: space-between; margin-top: 33px;""><img src=""images/choice_trial_9.png"" style=""width: 408px; height: 417px; margin-right: 608px;""></div></div>","null","delaylearn","learning","display_response","5a8a8de6000dab00018cc170","OShMZSBECRYy9VNGpRij6UFmQi12","","","","","","","","","","","","","","","","","chosen stimuli: images/choice_trial_9.png","","","",""
"html-keyboard-response","76","142461","0.0-33.0-2.0","","null","","null","delaylearn","learning","feedback_duration_window","5a8a8de6000dab00018cc170","OShMZSBECRYy9VNGpRij6UFmQi12","","","","","","","","","","","","","","","","","","7000","","",""
"html-keyboard-response","77","143965","0.0-33.0-3.0","","null","<div style='margin:auto;width: auto; font-size: 150%'><span style='font-weight: bold; font-size: 100px; color: red;'>0 points!</span><br><br></div>","null","delaylearn","learning","feedback_image_window","5a8a8de6000dab00018cc170","OShMZSBECRYy9VNGpRij6UFmQi12","","","","","","","","","","","","","","","","","","","","",""
"html-keyboard-response","78","145692","0.0-34.0","","null","<div style=""font-size:100px;"">+</div>","null","delaylearn","learning","ITI","5a8a8de6000dab00018cc170","OShMZSBECRYy9VNGpRij6UFmQi12","","","","","","","","","","","","","","","","","","","1713","",""
"html-keyboard-response","79","147329","0.0-35.0-0.0","","1636.1999998092651","<div style=""display: flex; flex-direction: column; align-items: center; margin-top: -40px;""><img src=""images/pattern_3.png"" style=""width: 234px; height: 230px; margin-top: -50px;""><div style=""display: flex; justify-content: space-between; margin-top: 33px;""><img src=""images/choice_trial_6.png"" style=""width: 408px; height: 417px; margin-right: 200px;""><img src=""images/choice_trial_16.png"" style=""width: 408px; height: 417px;""></div></div>","j","delaylearn","learning","trial","5a8a8de6000dab00018cc170","OShMZSBECRYy9VNGpRij6UFmQi12","4","images/choice_trial_6.png","images/choice_trial_16.png","images/pattern_3.png","f","j","7000","6","16","2","1","15","1","0","16","100","","","","",""
"html-keyboard-response","80","148333","0.0-35.0-1.0","","null","<div style=""display: flex; flex-direction: column; align-items: center; margin-top: -40px;""><img src=""images/pattern_3.png"" style=""width: 234px; height: 230px; margin-top: -50px;""><div style=""display: flex; justify-content: space-between; margin-top: 33px;""><img src=""images/choice_trial_16.png"" style=""width: 408px; height: 417px; margin-left:608px;""></div></div>","null","delaylearn","learning","display_response","5a8a8de6000dab00018cc170","OShMZSBECRYy9VNGpRij6UFmQi12","","","","","","","","","","","","","","","","","chosen stimuli: images/choice_trial_16.png","","","",""
"html-keyboard-response","81","155340","0.0-35.0-2.0","","null","","null","delaylearn","learning","feedback_duration_window","5a8a8de6000dab00018cc170","OShMZSBECRYy9VNGpRij6UFmQi12","","","","","","","","","","","","","","","","","","7000","","",""
"html-keyboard-response","82","156845","0.0-35.0-3.0","","null","<div style='margin:auto;width: auto; font-size: 150%'><span style='font-weight: bold; font-size: 100px; color: red;'>0 points!</span><br><br></div>","null","delaylearn","learning","feedback_image_window","5a8a8de6000dab00018cc170","OShMZSBECRYy9VNGpRij6UFmQi12","","","","","","","","","","","","","","","","","","","","",""
"html-keyboard-response","83","158861","0.0-36.0","","null","<div style=""font-size:100px;"">+</div>","null","delaylearn","learning","ITI","5a8a8de6000dab00018cc170","OShMZSBECRYy9VNGpRij6UFmQi12","","","","","","","","","","","","","","","","","","","2002","",""
"html-keyboard-response","84","160705","0.0-37.0-0.0","","1843.9000000953674","<div style=""display: flex; flex-direction: column; align-items: center; margin-top: -40px;""><img src=""images/pattern_5.png"" style=""width: 234px; height: 230px; margin-top: -50px;""><div style=""display: flex; justify-content: space-between; margin-top: 33px;""><img src=""images/choice_trial_5.png"" style=""width: 408px; height: 417px; margin-right: 200px;""><img src=""images/choice_trial_15.png"" style=""width: 408px; height: 417px;""></div></div>","f","delaylearn","learning","trial","5a8a8de6000dab00018cc170","OShMZSBECRYy9VNGpRij6UFmQi12","4","images/choice_trial_5.png","images/choice_trial_15.png","images/pattern_5.png","f","f","750","5","15","4","0","16","1","1","5","110","","","","",""
"html-keyboard-response","85","161708","0.0-37.0-1.0","","null","<div style=""display: flex; flex-direction: column; align-items: center; margin-top: -40px;""><img src=""images/pattern_5.png"" style=""width: 234px; height: 230px; margin-top: -50px;""><div style=""display: flex; justify-content: space-between; margin-top: 33px;""><img src=""images/choice_trial_5.png"" style=""width: 408px; height: 417px; margin-right: 608px;""></div></div>","null","delaylearn","learning","display_response","5a8a8de6000dab00018cc170","OShMZSBECRYy9VNGpRij6UFmQi12","","","","","","","","","","","","","","","","","chosen stimuli: images/choice_trial_5.png","","","",""
"html-keyboard-response","86","162460","0.0-37.0-2.0","","null","","null","delaylearn","learning","feedback_duration_window","5a8a8de6000dab00018cc170","OShMZSBECRYy9VNGpRij6UFmQi12","","","","","","","","","","","","","","","","","","750","","",""
"html-keyboard-response","87","163964","0.0-37.0-3.0","","null","<div style='margin:auto;width: auto; font-size: 150%'><span style='font-weight: bold; font-size: 100px; color: green;'>+10 points!</span><br><br></div>","null","delaylearn","learning","feedback_image_window","5a8a8de6000dab00018cc170","OShMZSBECRYy9VNGpRij6UFmQi12","","","","","","","","","","","","","","","","","","","","",""
"html-keyboard-response","88","164476","0.0-38.0-0.0","","null","","null","","","mood_trial_fixation","","","","","","","","","","","","","","","","","","","","","","",""
"lmdlab-html-vas-response","89","168243","0.0-38.0-1.0","","2758","How happy are you right now?","0.35030864197530864","delaylearn","learning","mood_trial","5a8a8de6000dab00018cc170","OShMZSBECRYy9VNGpRij6UFmQi12","","","","","","","","","","","","","","","","","","","","[""Very unhappy"",""Very happy""]",""
"html-keyboard-response","90","170221","0.0-39.0","","null","<div style=""font-size:100px;"">+</div>","null","delaylearn","learning","ITI","5a8a8de6000dab00018cc170","OShMZSBECRYy9VNGpRij6UFmQi12","","","","","","","","","","","","","","","","","","","1974","",""
"html-keyboard-response","91","171897","0.0-40.0-0.0","","1675.5999999046326","<div style=""display: flex; flex-direction: column; align-items: center; margin-top: -40px;""><img src=""images/pattern_6.png"" style=""width: 234px; height: 230px; margin-top: -50px;""><div style=""display: flex; justify-content: space-between; margin-top: 33px;""><img src=""images/choice_trial_10.png"" style=""width: 408px; height: 417px; margin-right: 200px;""><img src=""images/choice_trial_3.png"" style=""width: 408px; height: 417px;""></div></div>","f","delaylearn","learning","trial","5a8a8de6000dab00018cc170","OShMZSBECRYy9VNGpRij6UFmQi12","4","images/choice_trial_10.png","images/choice_trial_3.png","images/pattern_6.png","f","f","750","10","3","5","0","17","1","1","10","120","","","","",""
"html-keyboard-response","92","172909","0.0-40.0-1.0","","null","<div style=""display: flex; flex-direction: column; align-items: center; margin-top: -40px;""><img src=""images/pattern_6.png"" style=""width: 234px; height: 230px; margin-top: -50px;""><div style=""display: flex; justify-content: space-between; margin-top: 33px;""><img src=""images/choice_trial_10.png"" style=""width: 408px; height: 417px; margin-right: 608px;""></div></div>","null","delaylearn","learning","display_response","5a8a8de6000dab00018cc170","OShMZSBECRYy9VNGpRij6UFmQi12","","","","","","","","","","","","","","","","","chosen stimuli: images/choice_trial_10.png","","","",""
"html-keyboard-response","93","173660","0.0-40.0-2.0","","null","","null","delaylearn","learning","feedback_duration_window","5a8a8de6000dab00018cc170","OShMZSBECRYy9VNGpRij6UFmQi12","","","","","","","","","","","","","","","","","","750","","",""
"html-keyboard-response","94","175164","0.0-40.0-3.0","","null","<div style='margin:auto;width: auto; font-size: 150%'><span style='font-weight: bold; font-size: 100px; color: green;'>+10 points!</span><br><br></div>","null","delaylearn","learning","feedback_image_window","5a8a8de6000dab00018cc170","OShMZSBECRYy9VNGpRij6UFmQi12","","","","","","","","","","","","","","","","","","","","",""
"html-keyboard-response","95","177325","0.0-41.0","","null","<div style=""font-size:100px;"">+</div>","null","delaylearn","learning","ITI","5a8a8de6000dab00018cc170","OShMZSBECRYy9VNGpRij6UFmQi12","","","","","","","","","","","","","","","","","","","2144","",""
"html-keyboard-response","96","178970","0.0-42.0-0.0","","1644.0999999046326","<div style=""display: flex; flex-direction: column; align-items: center; margin-top: -40px;""><img src=""images/pattern_4.png"" style=""width: 234px; height: 230px; margin-top: -50px;""><div style=""display: flex; justify-content: space-between; margin-top: 33px;""><img src=""images/choice_trial_7.png"" style=""width: 408px; height: 417px; margin-right: 200px;""><img src=""images/choice_trial_8.png"" style=""width: 408px; height: 417px;""></div></div>","f","delaylearn","learning","trial","5a8a8de6000dab00018cc170","OShMZSBECRYy9VNGpRij6UFmQi12","4","images/choice_trial_7.png","images/choice_trial_8.png","images/pattern_4.png","j","j","7000","7","8","3","1","18","0","0","7","120","","","","",""
"html-keyboard-response","97","179981","0.0-42.0-1.0","","null","<div style=""display: flex; flex-direction: column; align-items: center; margin-top: -40px;""><img src=""images/pattern_4.png"" style=""width: 234px; height: 230px; margin-top: -50px;""><div style=""display: flex; justify-content: space-between; margin-top: 33px;""><img src=""images/choice_trial_7.png"" style=""width: 408px; height: 417px; margin-right: 608px;""></div></div>","null","delaylearn","learning","display_response","5a8a8de6000dab00018cc170","OShMZSBECRYy9VNGpRij6UFmQi12","","","","","","","","","","","","","","","","","chosen stimuli: images/choice_trial_7.png","","","",""
"html-keyboard-response","98","186989","0.0-42.0-2.0","","null","","null","delaylearn","learning","feedback_duration_window","5a8a8de6000dab00018cc170","OShMZSBECRYy9VNGpRij6UFmQi12","","","","","","","","","","","","","","","","","","7000","","",""
"html-keyboard-response","99","188492","0.0-42.0-3.0","","null","<div style='margin:auto;width: auto; font-size: 150%'><span style='font-weight: bold; font-size: 100px; color: red;'>0 points!</span><br><br></div>","null","delaylearn","learning","feedback_image_window","5a8a8de6000dab00018cc170","OShMZSBECRYy9VNGpRij6UFmQi12","","","","","","","","","","","","","","","","","","","","",""
"html-keyboard-response","100","190908","0.0-43.0","","null","<div style=""font-size:100px;"">+</div>","null","delaylearn","learning","ITI","5a8a8de6000dab00018cc170","OShMZSBECRYy9VNGpRij6UFmQi12","","","","","","","","","","","","","","","","","","","2412","",""
"html-keyboard-response","101","192370","0.0-44.0-0.0","","1460.5999999046326","<div style=""display: flex; flex-direction: column; align-items: center; margin-top: -40px;""><img src=""images/pattern_7.png"" style=""width: 234px; height: 230px; margin-top: -50px;""><div style=""display: flex; justify-content: space-between; margin-top: 33px;""><img src=""images/choice_trial_13.png"" style=""width: 408px; height: 417px; margin-right: 200px;""><img src=""images/choice_trial_4.png"" style=""width: 408px; height: 417px;""></div></div>","f","delaylearn","learning","trial","5a8a8de6000dab00018cc170","OShMZSBECRYy9VNGpRij6UFmQi12","4","images/choice_trial_13.png","images/choice_trial_4.png","images/pattern_7.png","j","f","750","13","4","6","0","19","1","0","13","120","","","","",""
"html-keyboard-response","102","193372","0.0-44.0-1.0","","null","<div style=""display: flex; flex-direction: column; align-items: center; margin-top: -40px;""><img src=""images/pattern_7.png"" style=""width: 234px; height: 230px; margin-top: -50px;""><div style=""display: flex; justify-content: space-between; margin-top: 33px;""><img src=""images/choice_trial_13.png"" style=""width: 408px; height: 417px; margin-right: 608px;""></div></div>","null","delaylearn","learning","display_response","5a8a8de6000dab00018cc170","OShMZSBECRYy9VNGpRij6UFmQi12","","","","","","","","","","","","","","","","","chosen stimuli: images/choice_trial_13.png","","","",""
"html-keyboard-response","103","194125","0.0-44.0-2.0","","null","","null","delaylearn","learning","feedback_duration_window","5a8a8de6000dab00018cc170","OShMZSBECRYy9VNGpRij6UFmQi12","","","","","","","","","","","","","","","","","","750","","",""
"html-keyboard-response","104","195628","0.0-44.0-3.0","","null","<div style='margin:auto;width: auto; font-size: 150%'><span style='font-weight: bold; font-size: 100px; color: red;'>0 points!</span><br><br></div>","null","delaylearn","learning","feedback_image_window","5a8a8de6000dab00018cc170","OShMZSBECRYy9VNGpRij6UFmQi12","","","","","","","","","","","","","","","","","","","","",""
"html-keyboard-response","105","197229","0.0-45.0","","null","<div style=""font-size:100px;"">+</div>","null","delaylearn","learning","ITI","5a8a8de6000dab00018cc170","OShMZSBECRYy9VNGpRij6UFmQi12","","","","","","","","","","","","","","","","","","","1590","",""
"html-keyboard-response","106","198897","0.0-46.0-0.0","","1667.6999998092651","<div style=""display: flex; flex-direction: column; align-items: center; margin-top: -40px;""><img src=""images/pattern_1.png"" style=""width: 234px; height: 230px; margin-top: -50px;""><div style=""display: flex; justify-content: space-between; margin-top: 33px;""><img src=""images/choice_trial_1.png"" style=""width: 408px; height: 417px; margin-right: 200px;""><img src=""images/choice_trial_9.png"" style=""width: 408px; height: 417px;""></div></div>","j","delaylearn","learning","trial","5a8a8de6000dab00018cc170","OShMZSBECRYy9VNGpRij6UFmQi12","4","images/choice_trial_1.png","images/choice_trial_9.png","images/pattern_1.png","f","f","7000","1","9","1","0","20","0","0","9","120","","","","",""
"html-keyboard-response","107","199901","0.0-46.0-1.0","","null","<div style=""display: flex; flex-direction: column; align-items: center; margin-top: -40px;""><img src=""images/pattern_1.png"" style=""width: 234px; height: 230px; margin-top: -50px;""><div style=""display: flex; justify-content: space-between; margin-top: 33px;""><img src=""images/choice_trial_9.png"" style=""width: 408px; height: 417px; margin-left:608px;""></div></div>","null","delaylearn","learning","display_response","5a8a8de6000dab00018cc170","OShMZSBECRYy9VNGpRij6UFmQi12","","","","","","","","","","","","","","","","","chosen stimuli: images/choice_trial_9.png","","","",""
"html-keyboard-response","108","206908","0.0-46.0-2.0","","null","","null","delaylearn","learning","feedback_duration_window","5a8a8de6000dab00018cc170","OShMZSBECRYy9VNGpRij6UFmQi12","","","","","","","","","","","","","","","","","","7000","","",""
"html-keyboard-response","109","208413","0.0-46.0-3.0","","null","<div style='margin:auto;width: auto; font-size: 150%'><span style='font-weight: bold; font-size: 100px; color: red;'>0 points!</span><br><br></div>","null","delaylearn","learning","feedback_image_window","5a8a8de6000dab00018cc170","OShMZSBECRYy9VNGpRij6UFmQi12","","","","","","","","","","","","","","","","","","","","",""
"html-keyboard-response","110","210476","0.0-47.0","","null","<div style=""font-size:100px;"">+</div>","null","delaylearn","learning","ITI","5a8a8de6000dab00018cc170","OShMZSBECRYy9VNGpRij6UFmQi12","","","","","","","","","","","","","","","","","","","2049","",""
"html-keyboard-response","111","211609","0.0-48.0-0.0","","1132.5999999046326","<div style=""display: flex; flex-direction: column; align-items: center; margin-top: -40px;""><img src=""images/pattern_6.png"" style=""width: 234px; height: 230px; margin-top: -50px;""><div style=""display: flex; justify-content: space-between; margin-top: 33px;""><img src=""images/choice_trial_3.png"" style=""width: 408px; height: 417px; margin-right: 200px;""><img src=""images/choice_trial_10.png"" style=""width: 408px; height: 417px;""></div></div>","j","delaylearn","learning","trial","5a8a8de6000dab00018cc170","OShMZSBECRYy9VNGpRij6UFmQi12","4","images/choice_trial_3.png","images/choice_trial_10.png","images/pattern_6.png","j","j","750","3","10","5","1","21","1","1","10","130","","","","",""
"html-keyboard-response","112","212620","0.0-48.0-1.0","","null","<div style=""display: flex; flex-direction: column; align-items: center; margin-top: -40px;""><img src=""images/pattern_6.png"" style=""width: 234px; height: 230px; margin-top: -50px;""><div style=""display: flex; justify-content: space-between; margin-top: 33px;""><img src=""images/choice_trial_10.png"" style=""width: 408px; height: 417px; margin-left:608px;""></div></div>","null","delaylearn","learning","display_response","5a8a8de6000dab00018cc170","OShMZSBECRYy9VNGpRij6UFmQi12","","","","","","","","","","","","","","","","","chosen stimuli: images/choice_trial_10.png","","","",""
"html-keyboard-response","113","213373","0.0-48.0-2.0","","null","","null","delaylearn","learning","feedback_duration_window","5a8a8de6000dab00018cc170","OShMZSBECRYy9VNGpRij6UFmQi12","","","","","","","","","","","","","","","","","","750","","",""
"html-keyboard-response","114","214876","0.0-48.0-3.0","","null","<div style='margin:auto;width: auto; font-size: 150%'><span style='font-weight: bold; font-size: 100px; color: green;'>+10 points!</span><br><br></div>","null","delaylearn","learning","feedback_image_window","5a8a8de6000dab00018cc170","OShMZSBECRYy9VNGpRij6UFmQi12","","","","","","","","","","","","","","","","","","","","",""
"html-keyboard-response","115","217068","0.0-49.0","","null","<div style=""font-size:100px;"">+</div>","null","delaylearn","learning","ITI","5a8a8de6000dab00018cc170","OShMZSBECRYy9VNGpRij6UFmQi12","","","","","","","","","","","","","","","","","","","2186","",""
"html-keyboard-response","116","218545","0.0-50.0-0.0","","1476.2000002861023","<div style=""display: flex; flex-direction: column; align-items: center; margin-top: -40px;""><img src=""images/pattern_4.png"" style=""width: 234px; height: 230px; margin-top: -50px;""><div style=""display: flex; justify-content: space-between; margin-top: 33px;""><img src=""images/choice_trial_8.png"" style=""width: 408px; height: 417px; margin-right: 200px;""><img src=""images/choice_trial_7.png"" style=""width: 408px; height: 417px;""></div></div>","f","delaylearn","learning","trial","5a8a8de6000dab00018cc170","OShMZSBECRYy9VNGpRij6UFmQi12","4","images/choice_trial_8.png","images/choice_trial_7.png","images/pattern_4.png","f","f","7000","8","7","3","0","22","1","1","8","140","","","","",""
"html-keyboard-response","117","219549","0.0-50.0-1.0","","null","<div style=""display: flex; flex-direction: column; align-items: center; margin-top: -40px;""><img src=""images/pattern_4.png"" style=""width: 234px; height: 230px; margin-top: -50px;""><div style=""display: flex; justify-content: space-between; margin-top: 33px;""><img src=""images/choice_trial_8.png"" style=""width: 408px; height: 417px; margin-right: 608px;""></div></div>","null","delaylearn","learning","display_response","5a8a8de6000dab00018cc170","OShMZSBECRYy9VNGpRij6UFmQi12","","","","","","","","","","","","","","","","","chosen stimuli: images/choice_trial_8.png","","","",""
"html-keyboard-response","118","226556","0.0-50.0-2.0","","null","","null","delaylearn","learning","feedback_duration_window","5a8a8de6000dab00018cc170","OShMZSBECRYy9VNGpRij6UFmQi12","","","","","","","","","","","","","","","","","","7000","","",""
"html-keyboard-response","119","228060","0.0-50.0-3.0","","null","<div style='margin:auto;width: auto; font-size: 150%'><span style='font-weight: bold; font-size: 100px; color: green;'>+10 points!</span><br><br></div>","null","delaylearn","learning","feedback_image_window","5a8a8de6000dab00018cc170","OShMZSBECRYy9VNGpRij6UFmQi12","","","","","","","","","","","","","","","","","","","","",""
"html-keyboard-response","120","228572","0.0-51.0-0.0","","null","","null","","","mood_trial_fixation","","","","","","","","","","","","","","","","","","","","","","",""
"lmdlab-html-vas-response","121","232507","0.0-51.0-1.0","","2926","How happy are you right now?","0.3904320987654321","delaylearn","learning","mood_trial","5a8a8de6000dab00018cc170","OShMZSBECRYy9VNGpRij6UFmQi12","","","","","","","","","","","","","","","","","","","","[""Very unhappy"",""Very happy""]",""
"html-keyboard-response","122","234637","0.0-52.0","","null","<div style=""font-size:100px;"">+</div>","null","delaylearn","learning","ITI","5a8a8de6000dab00018cc170","OShMZSBECRYy9VNGpRij6UFmQi12","","","","","","","","","","","","","","","","","","","2115","",""
"html-keyboard-response","123","235777","0.0-53.0-0.0","","1139.5","<div style=""display: flex; flex-direction: column; align-items: center; margin-top: -40px;""><img src=""images/pattern_7.png"" style=""width: 234px; height: 230px; margin-top: -50px;""><div style=""display: flex; justify-content: space-between; margin-top: 33px;""><img src=""images/choice_trial_4.png"" style=""width: 408px; height: 417px; margin-right: 200px;""><img src=""images/choice_trial_13.png"" style=""width: 408px; height: 417px;""></div></div>","f","delaylearn","learning","trial","5a8a8de6000dab00018cc170","OShMZSBECRYy9VNGpRij6UFmQi12","4","images/choice_trial_4.png","images/choice_trial_13.png","images/pattern_7.png","j","j","750","4","13","6","1","23","0","0","4","140","","","","",""
"html-keyboard-response","124","236780","0.0-53.0-1.0","","null","<div style=""display: flex; flex-direction: column; align-items: center; margin-top: -40px;""><img src=""images/pattern_7.png"" style=""width: 234px; height: 230px; margin-top: -50px;""><div style=""display: flex; justify-content: space-between; margin-top: 33px;""><img src=""images/choice_trial_4.png"" style=""width: 408px; height: 417px; margin-right: 608px;""></div></div>","null","delaylearn","learning","display_response","5a8a8de6000dab00018cc170","OShMZSBECRYy9VNGpRij6UFmQi12","","","","","","","","","","","","","","","","","chosen stimuli: images/choice_trial_4.png","","","",""
"html-keyboard-response","125","237532","0.0-53.0-2.0","","null","","null","delaylearn","learning","feedback_duration_window","5a8a8de6000dab00018cc170","OShMZSBECRYy9VNGpRij6UFmQi12","","","","","","","","","","","","","","","","","","750","","",""
"html-keyboard-response","126","239037","0.0-53.0-3.0","","null","<div style='margin:auto;width: auto; font-size: 150%'><span style='font-weight: bold; font-size: 100px; color: red;'>0 points!</span><br><br></div>","null","delaylearn","learning","feedback_image_window","5a8a8de6000dab00018cc170","OShMZSBECRYy9VNGpRij6UFmQi12","","","","","","","","","","","","","","","","","","","","",""
"html-keyboard-response","127","240877","0.0-54.0","","null","<div style=""font-size:100px;"">+</div>","null","delaylearn","learning","ITI","5a8a8de6000dab00018cc170","OShMZSBECRYy9VNGpRij6UFmQi12","","","","","","","","","","","","","","","","","","","1837","",""
"html-keyboard-response","128","242538","0.0-55.0-0.0","","1660.1999998092651","<div style=""display: flex; flex-direction: column; align-items: center; margin-top: -40px;""><img src=""images/pattern_1.png"" style=""width: 234px; height: 230px; margin-top: -50px;""><div style=""display: flex; justify-content: space-between; margin-top: 33px;""><img src=""images/choice_trial_9.png"" style=""width: 408px; height: 417px; margin-right: 200px;""><img src=""images/choice_trial_1.png"" style=""width: 408px; height: 417px;""></div></div>","j","delaylearn","learning","trial","5a8a8de6000dab00018cc170","OShMZSBECRYy9VNGpRij6UFmQi12","4","images/choice_trial_9.png","images/choice_trial_1.png","images/pattern_1.png","f","j","7000","9","1","1","1","24","1","0","1","140","","","","",""
"html-keyboard-response","129","243549","0.0-55.0-1.0","","null","<div style=""display: flex; flex-direction: column; align-items: center; margin-top: -40px;""><img src=""images/pattern_1.png"" style=""width: 234px; height: 230px; margin-top: -50px;""><div style=""display: flex; justify-content: space-between; margin-top: 33px;""><img src=""images/choice_trial_1.png"" style=""width: 408px; height: 417px; margin-left:608px;""></div></div>","null","delaylearn","learning","display_response","5a8a8de6000dab00018cc170","OShMZSBECRYy9VNGpRij6UFmQi12","","","","","","","","","","","","","","","","","chosen stimuli: images/choice_trial_1.png","","","",""
"html-keyboard-response","130","250557","0.0-55.0-2.0","","null","","null","delaylearn","learning","feedback_duration_window","5a8a8de6000dab00018cc170","OShMZSBECRYy9VNGpRij6UFmQi12","","","","","","","","","","","","","","","","","","7000","","",""
"html-keyboard-response","131","252061","0.0-55.0-3.0","","null","<div style='margin:auto;width: auto; font-size: 150%'><span style='font-weight: bold; font-size: 100px; color: red;'>0 points!</span><br><br></div>","null","delaylearn","learning","feedback_image_window","5a8a8de6000dab00018cc170","OShMZSBECRYy9VNGpRij6UFmQi12","","","","","","","","","","","","","","","","","","","","",""
"html-keyboard-response","132","254237","0.0-56.0","","null","<div style=""font-size:100px;"">+</div>","null","delaylearn","learning","ITI","5a8a8de6000dab00018cc170","OShMZSBECRYy9VNGpRij6UFmQi12","","","","","","","","","","","","","","","","","","","2161","",""
"html-keyboard-response","133","256314","0.0-57.0-0.0","","2075.9000000953674","<div style=""display: flex; flex-direction: column; align-items: center; margin-top: -40px;""><img src=""images/pattern_5.png"" style=""width: 234px; height: 230px; margin-top: -50px;""><div style=""display: flex; justify-content: space-between; margin-top: 33px;""><img src=""images/choice_trial_15.png"" style=""width: 408px; height: 417px; margin-right: 200px;""><img src=""images/choice_trial_5.png"" style=""width: 408px; height: 417px;""></div></div>","f","delaylearn","learning","trial","5a8a8de6000dab00018cc170","OShMZSBECRYy9VNGpRij6UFmQi12","4","images/choice_trial_15.png","images/choice_trial_5.png","images/pattern_5.png","j","j","750","15","5","4","1","25","0","0","15","140","","","","",""
"html-keyboard-response","134","257325","0.0-57.0-1.0","","null","<div style=""display: flex; flex-direction: column; align-items: center; margin-top: -40px;""><img src=""images/pattern_5.png"" style=""width: 234px; height: 230px; margin-top: -50px;""><div style=""display: flex; justify-content: space-between; margin-top: 33px;""><img src=""images/choice_trial_15.png"" style=""width: 408px; height: 417px; margin-right: 608px;""></div></div>","null","delaylearn","learning","display_response","5a8a8de6000dab00018cc170","OShMZSBECRYy9VNGpRij6UFmQi12","","","","","","","","","","","","","","","","","chosen stimuli: images/choice_trial_15.png","","","",""
"html-keyboard-response","135","258077","0.0-57.0-2.0","","null","","null","delaylearn","learning","feedback_duration_window","5a8a8de6000dab00018cc170","OShMZSBECRYy9VNGpRij6UFmQi12","","","","","","","","","","","","","","","","","","750","","",""
"html-keyboard-response","136","259581","0.0-57.0-3.0","","null","<div style='margin:auto;width: auto; font-size: 150%'><span style='font-weight: bold; font-size: 100px; color: red;'>0 points!</span><br><br></div>","null","delaylearn","learning","feedback_image_window","5a8a8de6000dab00018cc170","OShMZSBECRYy9VNGpRij6UFmQi12","","","","","","","","","","","","","","","","","","","","",""
"html-keyboard-response","137","261420","0.0-58.0","","null","<div style=""font-size:100px;"">+</div>","null","delaylearn","learning","ITI","5a8a8de6000dab00018cc170","OShMZSBECRYy9VNGpRij6UFmQi12","","","","","","","","","","","","","","","","","","","1839","",""
"html-keyboard-response","138","262937","0.0-59.0-0.0","","1516.0999999046326","<div style=""display: flex; flex-direction: column; align-items: center; margin-top: -40px;""><img src=""images/pattern_3.png"" style=""width: 234px; height: 230px; margin-top: -50px;""><div style=""display: flex; justify-content: space-between; margin-top: 33px;""><img src=""images/choice_trial_6.png"" style=""width: 408px; height: 417px; margin-right: 200px;""><img src=""images/choice_trial_16.png"" style=""width: 408px; height: 417px;""></div></div>","f","delaylearn","learning","trial","5a8a8de6000dab00018cc170","OShMZSBECRYy9VNGpRij6UFmQi12","4","images/choice_trial_6.png","images/choice_trial_16.png","images/pattern_3.png","j","j","7000","6","16","2","1","26","0","0","6","140","","","","",""
"html-keyboard-response","139","263948","0.0-59.0-1.0","","null","<div style=""display: flex; flex-direction: column; align-items: center; margin-top: -40px;""><img src=""images/pattern_3.png"" style=""width: 234px; height: 230px; margin-top: -50px;""><div style=""display: flex; justify-content: space-between; margin-top: 33px;""><img src=""images/choice_trial_6.png"" style=""width: 408px; height: 417px; margin-right: 608px;""></div></div>","null","delaylearn","learning","display_response","5a8a8de6000dab00018cc170","OShMZSBECRYy9VNGpRij6UFmQi12","","","","","","","","","","","","","","","","","chosen stimuli: images/choice_trial_6.png","","","",""
"html-keyboard-response","140","270957","0.0-59.0-2.0","","null","","null","delaylearn","learning","feedback_duration_window","5a8a8de6000dab00018cc170","OShMZSBECRYy9VNGpRij6UFmQi12","","","","","","","","","","","","","","","","","","7000","","",""
"html-keyboard-response","141","272461","0.0-59.0-3.0","","null","<div style='margin:auto;width: auto; font-size: 150%'><span style='font-weight: bold; font-size: 100px; color: red;'>0 points!</span><br><br></div>","null","delaylearn","learning","feedback_image_window","5a8a8de6000dab00018cc170","OShMZSBECRYy9VNGpRij6UFmQi12","","","","","","","","","","","","","","","","","","","","",""
"lmdlab-html-vas-response","142","277261","0.0-60.0-0.0","","3283","*How <b><u>confident</u></b> are you feeling about your answers at this moment?*","0.15123456790123457","rewlearn","rate_confidence","","5a8a8de6000dab00018cc170","OShMZSBECRYy9VNGpRij6UFmQi12","","","","","","","","","","","","","","","","","","","","[""No confidence"",""Complete confidence""]",""
"lmdlab-rest-trial-limit","143","284717","0.0-60.0-1.0","","5941.400000095367","<div style=""font-size:40px;""><b>Please take a break!</b><br><br><br><br><p>Great work: you earned 140 points.<br><br><br><p>You have completed part(s) 1 of 5.<br><br><br><br>When you are ready to continue<br><br><br>please click the button.</p><br><br>","0","delaylearn","learning","break","5a8a8de6000dab00018cc170","OShMZSBECRYy9VNGpRij6UFmQi12","","","","","","","","","","","","","","","","","","","","","0"
"html-keyboard-response","144","287725","0.0-60.0-2.0","","null","<div style=""font-size:100px;"">+</div>","null","delaylearn","learning","pre_fixation","5a8a8de6000dab00018cc170","","","","","","","","","","","","","","","","","","","","","",""
"lmdlab-html-vas-response","145","291683","0.0-60.0-3.0-0.0","","2950","How happy are you right now?","0.3472222222222222","delaylearn","learning","mood_baseline","5a8a8de6000dab00018cc170","OShMZSBECRYy9VNGpRij6UFmQi12","","","","","","","","","","","","","","","","","","","","[""Very unhappy"",""Very happy""]",""
"html-keyboard-response","146","293197","0.0-60.0-3.0-1.0","","null","","null","","","mood_baseline_fixation","","","","","","","","","","","","","","","","","","","","","","",""
"html-keyboard-response","147","295245","0.0-61.0","","null","<div style=""font-size:100px;"">+</div>","null","delaylearn","learning","ITI","5a8a8de6000dab00018cc170","OShMZSBECRYy9VNGpRij6UFmQi12","","","","","","","","","","","","","","","","","","","2044","",""
"html-keyboard-response","148","296114","0.0-62.0-0.0","","868.1999998092651","<div style=""display: flex; flex-direction: column; align-items: center; margin-top: -40px;""><img src=""images/pattern_7.png"" style=""width: 234px; height: 230px; margin-top: -50px;""><div style=""display: flex; justify-content: space-between; margin-top: 33px;""><img src=""images/choice_trial_4.png"" style=""width: 408px; height: 417px; margin-right: 200px;""><img src=""images/choice_trial_13.png"" style=""width: 408px; height: 417px;""></div></div>","f","delaylearn","learning","trial","5a8a8de6000dab00018cc170","OShMZSBECRYy9VNGpRij6UFmQi12","4","images/choice_trial_4.png","images/choice_trial_13.png","images/pattern_7.png","j","j","750","4","13","6","1","27","0","0","4","140","","","","",""
"html-keyboard-response","149","297117","0.0-62.0-1.0","","null","<div style=""display: flex; flex-direction: column; align-items: center; margin-top: -40px;""><img src=""images/pattern_7.png"" style=""width: 234px; height: 230px; margin-top: -50px;""><div style=""display: flex; justify-content: space-between; margin-top: 33px;""><img src=""images/choice_trial_4.png"" style=""width: 408px; height: 417px; margin-right: 608px;""></div></div>","null","delaylearn","learning","display_response","5a8a8de6000dab00018cc170","OShMZSBECRYy9VNGpRij6UFmQi12","","","","","","","","","","","","","","","","","chosen stimuli: images/choice_trial_4.png","","","",""
"html-keyboard-response","150","297869","0.0-62.0-2.0","","null","","null","delaylearn","learning","feedback_duration_window","5a8a8de6000dab00018cc170","OShMZSBECRYy9VNGpRij6UFmQi12","","","","","","","","","","","","","","","","","","750","","",""
"html-keyboard-response","151","299373","0.0-62.0-3.0","","null","<div style='margin:auto;width: auto; font-size: 150%'><span style='font-weight: bold; font-size: 100px; color: red;'>0 points!</span><br><br></div>","null","delaylearn","learning","feedback_image_window","5a8a8de6000dab00018cc170","OShMZSBECRYy9VNGpRij6UFmQi12","","","","","","","","","","","","","","","","","","","","",""
"html-keyboard-response","152","299885","0.0-63.0-0.0","","null","","null","","","mood_trial_fixation","","","","","","","","","","","","","","","","","","","","","","",""
"lmdlab-html-vas-response","153","303379","0.0-63.0-1.0","","2486","How happy are you right now?","0.25","delaylearn","learning","mood_trial","5a8a8de6000dab00018cc170","OShMZSBECRYy9VNGpRij6UFmQi12","","","","","","","","","","","","","","","","","","","","[""Very unhappy"",""Very happy""]",""
"html-keyboard-response","154","305853","0.0-64.0","","null","<div style=""font-size:100px;"">+</div>","null","delaylearn","learning","ITI","5a8a8de6000dab00018cc170","OShMZSBECRYy9VNGpRij6UFmQi12","","","","","","","","","","","","","","","","","","","2473","",""
"html-keyboard-response","155","308410","0.0-65.0-0.0","","2555.800000190735","<div style=""display: flex; flex-direction: column; align-items: center; margin-top: -40px;""><img src=""images/pattern_1.png"" style=""width: 234px; height: 230px; margin-top: -50px;""><div style=""display: flex; justify-content: space-between; margin-top: 33px;""><img src=""images/choice_trial_1.png"" style=""width: 408px; height: 417px; margin-right: 200px;""><img src=""images/choice_trial_9.png"" style=""width: 408px; height: 417px;""></div></div>","f","delaylearn","learning","trial","5a8a8de6000dab00018cc170","OShMZSBECRYy9VNGpRij6UFmQi12","4","images/choice_trial_1.png","images/choice_trial_9.png","images/pattern_1.png","f","f","7000","1","9","1","0","28","1","1","1","150","","","","",""
"html-keyboard-response","156","309421","0.0-65.0-1.0","","null","<div style=""display: flex; flex-direction: column; align-items: center; margin-top: -40px;""><img src=""images/pattern_1.png"" style=""width: 234px; height: 230px; margin-top: -50px;""><div style=""display: flex; justify-content: space-between; margin-top: 33px;""><img src=""images/choice_trial_1.png"" style=""width: 408px; height: 417px; margin-right: 608px;""></div></div>","null","delaylearn","learning","display_response","5a8a8de6000dab00018cc170","OShMZSBECRYy9VNGpRij6UFmQi12","","","","","","","","","","","","","","","","","chosen stimuli: images/choice_trial_1.png","","","",""
"html-keyboard-response","157","316428","0.0-65.0-2.0","","null","","null","delaylearn","learning","feedback_duration_window","5a8a8de6000dab00018cc170","OShMZSBECRYy9VNGpRij6UFmQi12","","","","","","","","","","","","","","","","","","7000","","",""
"html-keyboard-response","158","317933","0.0-65.0-3.0","","null","<div style='margin:auto;width: auto; font-size: 150%'><span style='font-weight: bold; font-size: 100px; color: green;'>+10 points!</span><br><br></div>","null","delaylearn","learning","feedback_image_window","5a8a8de6000dab00018cc170","OShMZSBECRYy9VNGpRij6UFmQi12","","","","","","","","","","","","","","","","","","","","",""
"html-keyboard-response","159","320333","0.0-66.0","","null","<div style=""font-size:100px;"">+</div>","null","delaylearn","learning","ITI","5a8a8de6000dab00018cc170","OShMZSBECRYy9VNGpRij6UFmQi12","","","","","","","","","","","","","","","","","","","2393","",""
"html-keyboard-response","160","321450","0.0-67.0-0.0","","1116","<div style=""display: flex; flex-direction: column; align-items: center; margin-top: -40px;""><img src=""images/pattern_5.png"" style=""width: 234px; height: 230px; margin-top: -50px;""><div style=""display: flex; justify-content: space-between; margin-top: 33px;""><img src=""images/choice_trial_5.png"" style=""width: 408px; height: 417px; margin-right: 200px;""><img src=""images/choice_trial_15.png"" style=""width: 408px; height: 417px;""></div></div>","j","delaylearn","learning","trial","5a8a8de6000dab00018cc170","OShMZSBECRYy9VNGpRij6UFmQi12","4","images/choice_trial_5.png","images/choice_trial_15.png","images/pattern_5.png","f","f","750","5","15","4","0","29","0","0","15","150","","","","",""
"html-keyboard-response","161","322461","0.0-67.0-1.0","","null","<div style=""display: flex; flex-direction: column; align-items: center; margin-top: -40px;""><img src=""images/pattern_5.png"" style=""width: 234px; height: 230px; margin-top: -50px;""><div style=""display: flex; justify-content: space-between; margin-top: 33px;""><img src=""images/choice_trial_15.png"" style=""width: 408px; height: 417px; margin-left:608px;""></div></div>","null","delaylearn","learning","display_response","5a8a8de6000dab00018cc170","OShMZSBECRYy9VNGpRij6UFmQi12","","","","","","","","","","","","","","","","","chosen stimuli: images/choice_trial_15.png","","","",""
"html-keyboard-response","162","323213","0.0-67.0-2.0","","null","","null","delaylearn","learning","feedback_duration_window","5a8a8de6000dab00018cc170","OShMZSBECRYy9VNGpRij6UFmQi12","","","","","","","","","","","","","","","","","","750","","",""
"html-keyboard-response","163","324717","0.0-67.0-3.0","","null","<div style='margin:auto;width: auto; font-size: 150%'><span style='font-weight: bold; font-size: 100px; color: red;'>0 points!</span><br><br></div>","null","delaylearn","learning","feedback_image_window","5a8a8de6000dab00018cc170","OShMZSBECRYy9VNGpRij6UFmQi12","","","","","","","","","","","","","","","","","","","","",""
"html-keyboard-response","164","326541","0.0-68.0","","null","<div style=""font-size:100px;"">+</div>","null","delaylearn","learning","ITI","5a8a8de6000dab00018cc170","OShMZSBECRYy9VNGpRij6UFmQi12","","","","","","","","","","","","","","","","","","","1814","",""
"html-keyboard-response","165","327450","0.0-69.0-0.0","","907.9000000953674","<div style=""display: flex; flex-direction: column; align-items: center; margin-top: -40px;""><img src=""images/pattern_6.png"" style=""width: 234px; height: 230px; margin-top: -50px;""><div style=""display: flex; justify-content: space-between; margin-top: 33px;""><img src=""images/choice_trial_3.png"" style=""width: 408px; height: 417px; margin-right: 200px;""><img src=""images/choice_trial_10.png"" style=""width: 408px; height: 417px;""></div></div>","j","delaylearn","learning","trial","5a8a8de6000dab00018cc170","OShMZSBECRYy9VNGpRij6UFmQi12","4","images/choice_trial_3.png","images/choice_trial_10.png","images/pattern_6.png","j","j","750","3","10","5","1","30","1","1","10","160","","","","",""
"html-keyboard-response","166","328461","0.0-69.0-1.0","","null","<div style=""display: flex; flex-direction: column; align-items: center; margin-top: -40px;""><img src=""images/pattern_6.png"" style=""width: 234px; height: 230px; margin-top: -50px;""><div style=""display: flex; justify-content: space-between; margin-top: 33px;""><img src=""images/choice_trial_10.png"" style=""width: 408px; height: 417px; margin-left:608px;""></div></div>","null","delaylearn","learning","display_response","5a8a8de6000dab00018cc170","OShMZSBECRYy9VNGpRij6UFmQi12","","","","","","","","","","","","","","","","","chosen stimuli: images/choice_trial_10.png","","","",""
"html-keyboard-response","167","329213","0.0-69.0-2.0","","null","","null","delaylearn","learning","feedback_duration_window","5a8a8de6000dab00018cc170","OShMZSBECRYy9VNGpRij6UFmQi12","","","","","","","","","","","","","","","","","","750","","",""
"html-keyboard-response","168","330717","0.0-69.0-3.0","","null","<div style='margin:auto;width: auto; font-size: 150%'><span style='font-weight: bold; font-size: 100px; color: green;'>+10 points!</span><br><br></div>","null","delaylearn","learning","feedback_image_window","5a8a8de6000dab00018cc170","OShMZSBECRYy9VNGpRij6UFmQi12","","","","","","","","","","","","","","","","","","","","",""
"html-keyboard-response","169","331229","0.0-70.0-0.0","","null","","null","","","mood_trial_fixation","","","","","","","","","","","","","","","","","","","","","","",""
"lmdlab-html-vas-response","170","335107","0.0-70.0-1.0","","2870","How happy are you right now?","0.37808641975308643","delaylearn","learning","mood_trial","5a8a8de6000dab00018cc170","OShMZSBECRYy9VNGpRij6UFmQi12","","","","","","","","","","","","","","","","","","","","[""Very unhappy"",""Very happy""]",""
"html-keyboard-response","171","337229","0.0-71.0","","null","<div style=""font-size:100px;"">+</div>","null","delaylearn","learning","ITI","5a8a8de6000dab00018cc170","OShMZSBECRYy9VNGpRij6UFmQi12","","","","","","","","","","","","","","","","","","","2108","",""
"html-keyboard-response","172","338305","0.0-72.0-0.0","","1075.8000001907349","<div style=""display: flex; flex-direction: column; align-items: center; margin-top: -40px;""><img src=""images/pattern_4.png"" style=""width: 234px; height: 230px; margin-top: -50px;""><div style=""display: flex; justify-content: space-between; margin-top: 33px;""><img src=""images/choice_trial_7.png"" style=""width: 408px; height: 417px; margin-right: 200px;""><img src=""images/choice_trial_8.png"" style=""width: 408px; height: 417px;""></div></div>","j","delaylearn","learning","trial","5a8a8de6000dab00018cc170","OShMZSBECRYy9VNGpRij6UFmQi12","4","images/choice_trial_7.png","images/choice_trial_8.png","images/pattern_4.png","j","j","7000","7","8","3","1","31","1","1","8","170","","","","",""
"html-keyboard-response","173","339309","0.0-72.0-1.0","","null","<div style=""display: flex; flex-direction: column; align-items: center; margin-top: -40px;""><img src=""images/pattern_4.png"" style=""width: 234px; height: 230px; margin-top: -50px;""><div style=""display: flex; justify-content: space-between; margin-top: 33px;""><img src=""images/choice_trial_8.png"" style=""width: 408px; height: 417px; margin-left:608px;""></div></div>","null","delaylearn","learning","display_response","5a8a8de6000dab00018cc170","OShMZSBECRYy9VNGpRij6UFmQi12","","","","","","","","","","","","","","","","","chosen stimuli: images/choice_trial_8.png","","","",""
"html-keyboard-response","174","346317","0.0-72.0-2.0","","null","","null","delaylearn","learning","feedback_duration_window","5a8a8de6000dab00018cc170","OShMZSBECRYy9VNGpRij6UFmQi12","","","","","","","","","","","","","","","","","","7000","","",""
"html-keyboard-response","175","347821","0.0-72.0-3.0","","null","<div style='margin:auto;width: auto; font-size: 150%'><span style='font-weight: bold; font-size: 100px; color: green;'>+10 points!</span><br><br></div>","null","delaylearn","learning","feedback_image_window","5a8a8de6000dab00018cc170","OShMZSBECRYy9VNGpRij6UFmQi12","","","","","","","","","","","","","","","","","","","","",""
"html-keyboard-response","176","349501","0.0-73.0","","null","<div style=""font-size:100px;"">+</div>","null","delaylearn","learning","ITI","5a8a8de6000dab00018cc170","OShMZSBECRYy9VNGpRij6UFmQi12","","","","","","","","","","","","","","","","","","","1664","",""
"html-keyboard-response","177","350762","0.0-74.0-0.0","","1259.9000000953674","<div style=""display: flex; flex-direction: column; align-items: center; margin-top: -40px;""><img src=""images/pattern_3.png"" style=""width: 234px; height: 230px; margin-top: -50px;""><div style=""display: flex; justify-content: space-between; margin-top: 33px;""><img src=""images/choice_trial_6.png"" style=""width: 408px; height: 417px; margin-right: 200px;""><img src=""images/choice_trial_16.png"" style=""width: 408px; height: 417px;""></div></div>","j","delaylearn","learning","trial","5a8a8de6000dab00018cc170","OShMZSBECRYy9VNGpRij6UFmQi12","4","images/choice_trial_6.png","images/choice_trial_16.png","images/pattern_3.png","j","j","7000","6","16","2","1","32","1","1","16","180","","","","",""
"html-keyboard-response","178","351773","0.0-74.0-1.0","","null","<div style=""display: flex; flex-direction: column; align-items: center; margin-top: -40px;""><img src=""images/pattern_3.png"" style=""width: 234px; height: 230px; margin-top: -50px;""><div style=""display: flex; justify-content: space-between; margin-top: 33px;""><img src=""images/choice_trial_16.png"" style=""width: 408px; height: 417px; margin-left:608px;""></div></div>","null","delaylearn","learning","display_response","5a8a8de6000dab00018cc170","OShMZSBECRYy9VNGpRij6UFmQi12","","","","","","","","","","","","","","","","","chosen stimuli: images/choice_trial_16.png","","","",""
"html-keyboard-response","179","358781","0.0-74.0-2.0","","null","","null","delaylearn","learning","feedback_duration_window","5a8a8de6000dab00018cc170","OShMZSBECRYy9VNGpRij6UFmQi12","","","","","","","","","","","","","","","","","","7000","","",""
"html-keyboard-response","180","360285","0.0-74.0-3.0","","null","<div style='margin:auto;width: auto; font-size: 150%'><span style='font-weight: bold; font-size: 100px; color: green;'>+10 points!</span><br><br></div>","null","delaylearn","learning","feedback_image_window","5a8a8de6000dab00018cc170","OShMZSBECRYy9VNGpRij6UFmQi12","","","","","","","","","","","","","","","","","","","","",""
"html-keyboard-response","181","361821","0.0-75.0","","null","<div style=""font-size:100px;"">+</div>","null","delaylearn","learning","ITI","5a8a8de6000dab00018cc170","OShMZSBECRYy9VNGpRij6UFmQi12","","","","","","","","","","","","","","","","","","","1525","",""
"html-keyboard-response","182","364050","0.0-76.0-0.0","","2228","<div style=""display: flex; flex-direction: column; align-items: center; margin-top: -40px;""><img src=""images/pattern_5.png"" style=""width: 234px; height: 230px; margin-top: -50px;""><div style=""display: flex; justify-content: space-between; margin-top: 33px;""><img src=""images/choice_trial_5.png"" style=""width: 408px; height: 417px; margin-right: 200px;""><img src=""images/choice_trial_15.png"" style=""width: 408px; height: 417px;""></div></div>","f","delaylearn","learning","trial","5a8a8de6000dab00018cc170","OShMZSBECRYy9VNGpRij6UFmQi12","4","images/choice_trial_5.png","images/choice_trial_15.png","images/pattern_5.png","j","f","750","5","15","4","0","33","1","0","5","180","","","","",""
"html-keyboard-response","183","365053","0.0-76.0-1.0","","null","<div style=""display: flex; flex-direction: column; align-items: center; margin-top: -40px;""><img src=""images/pattern_5.png"" style=""width: 234px; height: 230px; margin-top: -50px;""><div style=""display: flex; justify-content: space-between; margin-top: 33px;""><img src=""images/choice_trial_5.png"" style=""width: 408px; height: 417px; margin-right: 608px;""></div></div>","null","delaylearn","learning","display_response","5a8a8de6000dab00018cc170","OShMZSBECRYy9VNGpRij6UFmQi12","","","","","","","","","","","","","","","","","chosen stimuli: images/choice_trial_5.png","","","",""
"html-keyboard-response","184","365805","0.0-76.0-2.0","","null","","null","delaylearn","learning","feedback_duration_window","5a8a8de6000dab00018cc170","OShMZSBECRYy9VNGpRij6UFmQi12","","","","","","","","","","","","","","","","","","750","","",""
"html-keyboard-response","185","367309","0.0-76.0-3.0","","null","<div style='margin:auto;width: auto; font-size: 150%'><span style='font-weight: bold; font-size: 100px; color: red;'>0 points!</span><br><br></div>","null","delaylearn","learning","feedback_image_window","5a8a8de6000dab00018cc170","OShMZSBECRYy9VNGpRij6UFmQi12","","","","","","","","","","","","","","","","","","","","",""
"html-keyboard-response","186","369165","0.0-77.0","","null","<div style=""font-size:100px;"">+</div>","null","delaylearn","learning","ITI","5a8a8de6000dab00018cc170","OShMZSBECRYy9VNGpRij6UFmQi12","","","","","","","","","","","","","","","","","","","1845","",""
"html-keyboard-response","187","370241","0.0-78.0-0.0","","1075.7999997138977","<div style=""display: flex; flex-direction: column; align-items: center; margin-top: -40px;""><img src=""images/pattern_1.png"" style=""width: 234px; height: 230px; margin-top: -50px;""><div style=""display: flex; justify-content: space-between; margin-top: 33px;""><img src=""images/choice_trial_1.png"" style=""width: 408px; height: 417px; margin-right: 200px;""><img src=""images/choice_trial_9.png"" style=""width: 408px; height: 417px;""></div></div>","f","delaylearn","learning","trial","5a8a8de6000dab00018cc170","OShMZSBECRYy9VNGpRij6UFmQi12","4","images/choice_trial_1.png","images/choice_trial_9.png","images/pattern_1.png","f","f","7000","1","9","1","0","34","1","1","1","190","","","","",""
"html-keyboard-response","188","371245","0.0-78.0-1.0","","null","<div style=""display: flex; flex-direction: column; align-items: center; margin-top: -40px;""><img src=""images/pattern_1.png"" style=""width: 234px; height: 230px; margin-top: -50px;""><div style=""display: flex; justify-content: space-between; margin-top: 33px;""><img src=""images/choice_trial_1.png"" style=""width: 408px; height: 417px; margin-right: 608px;""></div></div>","null","delaylearn","learning","display_response","5a8a8de6000dab00018cc170","OShMZSBECRYy9VNGpRij6UFmQi12","","","","","","","","","","","","","","","","","chosen stimuli: images/choice_trial_1.png","","","",""
"html-keyboard-response","189","378252","0.0-78.0-2.0","","null","","null","delaylearn","learning","feedback_duration_window","5a8a8de6000dab00018cc170","OShMZSBECRYy9VNGpRij6UFmQi12","","","","","","","","","","","","","","","","","","7000","","",""
"html-keyboard-response","190","379756","0.0-78.0-3.0","","null","<div style='margin:auto;width: auto; font-size: 150%'><span style='font-weight: bold; font-size: 100px; color: green;'>+10 points!</span><br><br></div>","null","delaylearn","learning","feedback_image_window","5a8a8de6000dab00018cc170","OShMZSBECRYy9VNGpRij6UFmQi12","","","","","","","","","","","","","","","","","","","","",""
"html-keyboard-response","191","380269","0.0-79.0-0.0","","null","","null","","","mood_trial_fixation","","","","","","","","","","","","","","","","","","","","","","",""
"lmdlab-html-vas-response","192","384227","0.0-79.0-1.0","","2950","How happy are you right now?","0.3256172839506173","delaylearn","learning","mood_trial","5a8a8de6000dab00018cc170","OShMZSBECRYy9VNGpRij6UFmQi12","","","","","","","","","","","","","","","","","","","","[""Very unhappy"",""Very happy""]",""
"html-keyboard-response","193","385868","0.0-80.0","","null","<div style=""font-size:100px;"">+</div>","null","delaylearn","learning","ITI","5a8a8de6000dab00018cc170","OShMZSBECRYy9VNGpRij6UFmQi12","","","","","","","","","","","","","","","","","","","1628","",""
"html-keyboard-response","194","386970","0.0-81.0-0.0","","1100.4000000953674","<div style=""display: flex; flex-direction: column; align-items: center; margin-top: -40px;""><img src=""images/pattern_6.png"" style=""width: 234px; height: 230px; margin-top: -50px;""><div style=""display: flex; justify-content: space-between; margin-top: 33px;""><img src=""images/choice_trial_10.png"" style=""width: 408px; height: 417px; margin-right: 200px;""><img src=""images/choice_trial_3.png"" style=""width: 408px; height: 417px;""></div></div>","f","delaylearn","learning","trial","5a8a8de6000dab00018cc170","OShMZSBECRYy9VNGpRij6UFmQi12","4","images/choice_trial_10.png","images/choice_trial_3.png","images/pattern_6.png","j","f","750","10","3","5","0","35","1","0","10","190","","","","",""
"html-keyboard-response","195","387981","0.0-81.0-1.0","","null","<div style=""display: flex; flex-direction: column; align-items: center; margin-top: -40px;""><img src=""images/pattern_6.png"" style=""width: 234px; height: 230px; margin-top: -50px;""><div style=""display: flex; justify-content: space-between; margin-top: 33px;""><img src=""images/choice_trial_10.png"" style=""width: 408px; height: 417px; margin-right: 608px;""></div></div>","null","delaylearn","learning","display_response","5a8a8de6000dab00018cc170","OShMZSBECRYy9VNGpRij6UFmQi12","","","","","","","","","","","","","","","","","chosen stimuli: images/choice_trial_10.png","","","",""
"html-keyboard-response","196","388733","0.0-81.0-2.0","","null","","null","delaylearn","learning","feedback_duration_window","5a8a8de6000dab00018cc170","OShMZSBECRYy9VNGpRij6UFmQi12","","","","","","","","","","","","","","","","","","750","","",""
"html-keyboard-response","197","390237","0.0-81.0-3.0","","null","<div style='margin:auto;width: auto; font-size: 150%'><span style='font-weight: bold; font-size: 100px; color: red;'>0 points!</span><br><br></div>","null","delaylearn","learning","feedback_image_window","5a8a8de6000dab00018cc170","OShMZSBECRYy9VNGpRij6UFmQi12","","","","","","","","","","","","","","","","","","","","",""
"html-keyboard-response","198","392445","0.0-82.0","","null","<div style=""font-size:100px;"">+</div>","null","delaylearn","learning","ITI","5a8a8de6000dab00018cc170","OShMZSBECRYy9VNGpRij6UFmQi12","","","","","","","","","","","","","","","","","","","2204","",""
"html-keyboard-response","199","393170","0.0-83.0-0.0","","723.6999998092651","<div style=""display: flex; flex-direction: column; align-items: center; margin-top: -40px;""><img src=""images/pattern_3.png"" style=""width: 234px; height: 230px; margin-top: -50px;""><div style=""display: flex; justify-content: space-between; margin-top: 33px;""><img src=""images/choice_trial_6.png"" style=""width: 408px; height: 417px; margin-right: 200px;""><img src=""images/choice_trial_16.png"" style=""width: 408px; height: 417px;""></div></div>","j","delaylearn","learning","trial","5a8a8de6000dab00018cc170","OShMZSBECRYy9VNGpRij6UFmQi12","4","images/choice_trial_6.png","images/choice_trial_16.png","images/pattern_3.png","j","j","7000","6","16","2","1","36","1","1","16","200","","","","",""
"html-keyboard-response","200","394173","0.0-83.0-1.0","","null","<div style=""display: flex; flex-direction: column; align-items: center; margin-top: -40px;""><img src=""images/pattern_3.png"" style=""width: 234px; height: 230px; margin-top: -50px;""><div style=""display: flex; justify-content: space-between; margin-top: 33px;""><img src=""images/choice_trial_16.png"" style=""width: 408px; height: 417px; margin-left:608px;""></div></div>","null","delaylearn","learning","display_response","5a8a8de6000dab00018cc170","OShMZSBECRYy9VNGpRij6UFmQi12","","","","","","","","","","","","","","","","","chosen stimuli: images/choice_trial_16.png","","","",""
"html-keyboard-response","201","401181","0.0-83.0-2.0","","null","","null","delaylearn","learning","feedback_duration_window","5a8a8de6000dab00018cc170","OShMZSBECRYy9VNGpRij6UFmQi12","","","","","","","","","","","","","","","","","","7000","","",""
"html-keyboard-response","202","402685","0.0-83.0-3.0","","null","<div style='margin:auto;width: auto; font-size: 150%'><span style='font-weight: bold; font-size: 100px; color: green;'>+10 points!</span><br><br></div>","null","delaylearn","learning","feedback_image_window","5a8a8de6000dab00018cc170","OShMZSBECRYy9VNGpRij6UFmQi12","","","","","","","","","","","","","","","","","","","","",""
"html-keyboard-response","203","404205","0.0-84.0","","null","<div style=""font-size:100px;"">+</div>","null","delaylearn","learning","ITI","5a8a8de6000dab00018cc170","OShMZSBECRYy9VNGpRij6UFmQi12","","","","","","","","","","","","","","","","","","","1512","",""
"html-keyboard-response","204","405322","0.0-85.0-0.0","","1115.9000000953674","<div style=""display: flex; flex-direction: column; align-items: center; margin-top: -40px;""><img src=""images/pattern_4.png"" style=""width: 234px; height: 230px; margin-top: -50px;""><div style=""display: flex; justify-content: space-between; margin-top: 33px;""><img src=""images/choice_trial_7.png"" style=""width: 408px; height: 417px; margin-right: 200px;""><img src=""images/choice_trial_8.png"" style=""width: 408px; height: 417px;""></div></div>","j","delaylearn","learning","trial","5a8a8de6000dab00018cc170","OShMZSBECRYy9VNGpRij6UFmQi12","4","images/choice_trial_7.png","images/choice_trial_8.png","images/pattern_4.png","f","j","7000","7","8","3","1","37","1","0","8","200","","","","",""
"html-keyboard-response","205","406333","0.0-85.0-1.0","","null","<div style=""display: flex; flex-direction: column; align-items: center; margin-top: -40px;""><img src=""images/pattern_4.png"" style=""width: 234px; height: 230px; margin-top: -50px;""><div style=""display: flex; justify-content: space-between; margin-top: 33px;""><img src=""images/choice_trial_8.png"" style=""width: 408px; height: 417px; margin-left:608px;""></div></div>","null","delaylearn","learning","display_response","5a8a8de6000dab00018cc170","OShMZSBECRYy9VNGpRij6UFmQi12","","","","","","","","","","","","","","","","","chosen stimuli: images/choice_trial_8.png","","","",""
"html-keyboard-response","206","413341","0.0-85.0-2.0","","null","","null","delaylearn","learning","feedback_duration_window","5a8a8de6000dab00018cc170","OShMZSBECRYy9VNGpRij6UFmQi12","","","","","","","","","","","","","","","","","","7000","","",""
"html-keyboard-response","207","414845","0.0-85.0-3.0","","null","<div style='margin:auto;width: auto; font-size: 150%'><span style='font-weight: bold; font-size: 100px; color: red;'>0 points!</span><br><br></div>","null","delaylearn","learning","feedback_image_window","5a8a8de6000dab00018cc170","OShMZSBECRYy9VNGpRij6UFmQi12","","","","","","","","","","","","","","","","","","","","",""
"html-keyboard-response","208","416685","0.0-86.0","","null","<div style=""font-size:100px;"">+</div>","null","delaylearn","learning","ITI","5a8a8de6000dab00018cc170","OShMZSBECRYy9VNGpRij6UFmQi12","","","","","","","","","","","","","","","","","","","1827","",""
"html-keyboard-response","209","417810","0.0-87.0-0.0","","1124","<div style=""display: flex; flex-direction: column; align-items: center; margin-top: -40px;""><img src=""images/pattern_7.png"" style=""width: 234px; height: 230px; margin-top: -50px;""><div style=""display: flex; justify-content: space-between; margin-top: 33px;""><img src=""images/choice_trial_13.png"" style=""width: 408px; height: 417px; margin-right: 200px;""><img src=""images/choice_trial_4.png"" style=""width: 408px; height: 417px;""></div></div>","f","delaylearn","learning","trial","5a8a8de6000dab00018cc170","OShMZSBECRYy9VNGpRij6UFmQi12","4","images/choice_trial_13.png","images/choice_trial_4.png","images/pattern_7.png","f","f","750","13","4","6","0","38","1","1","13","210","","","","",""
"html-keyboard-response","210","418813","0.0-87.0-1.0","","null","<div style=""display: flex; flex-direction: column; align-items: center; margin-top: -40px;""><img src=""images/pattern_7.png"" style=""width: 234px; height: 230px; margin-top: -50px;""><div style=""display: flex; justify-content: space-between; margin-top: 33px;""><img src=""images/choice_trial_13.png"" style=""width: 408px; height: 417px; margin-right: 608px;""></div></div>","null","delaylearn","learning","display_response","5a8a8de6000dab00018cc170","OShMZSBECRYy9VNGpRij6UFmQi12","","","","","","","","","","","","","","","","","chosen stimuli: images/choice_trial_13.png","","","",""
"html-keyboard-response","211","419565","0.0-87.0-2.0","","null","","null","delaylearn","learning","feedback_duration_window","5a8a8de6000dab00018cc170","OShMZSBECRYy9VNGpRij6UFmQi12","","","","","","","","","","","","","","","","","","750","","",""
"html-keyboard-response","212","421069","0.0-87.0-3.0","","null","<div style='margin:auto;width: auto; font-size: 150%'><span style='font-weight: bold; font-size: 100px; color: green;'>+10 points!</span><br><br></div>","null","delaylearn","learning","feedback_image_window","5a8a8de6000dab00018cc170","OShMZSBECRYy9VNGpRij6UFmQi12","","","","","","","","","","","","","","","","","","","","",""
"html-keyboard-response","213","423245","0.0-88.0","","null","<div style=""font-size:100px;"">+</div>","null","delaylearn","learning","ITI","5a8a8de6000dab00018cc170","OShMZSBECRYy9VNGpRij6UFmQi12","","","","","","","","","","","","","","","","","","","2165","",""
"html-keyboard-response","214","424042","0.0-89.0-0.0","","795.3999996185303","<div style=""display: flex; flex-direction: column; align-items: center; margin-top: -40px;""><img src=""images/pattern_1.png"" style=""width: 234px; height: 230px; margin-top: -50px;""><div style=""display: flex; justify-content: space-between; margin-top: 33px;""><img src=""images/choice_trial_1.png"" style=""width: 408px; height: 417px; margin-right: 200px;""><img src=""images/choice_trial_9.png"" style=""width: 408px; height: 417px;""></div></div>","f","delaylearn","learning","trial","5a8a8de6000dab00018cc170","OShMZSBECRYy9VNGpRij6UFmQi12","4","images/choice_trial_1.png","images/choice_trial_9.png","images/pattern_1.png","f","f","7000","1","9","1","0","39","1","1","1","220","","","","",""
"html-keyboard-response","215","425053","0.0-89.0-1.0","","null","<div style=""display: flex; flex-direction: column; align-items: center; margin-top: -40px;""><img src=""images/pattern_1.png"" style=""width: 234px; height: 230px; margin-top: -50px;""><div style=""display: flex; justify-content: space-between; margin-top: 33px;""><img src=""images/choice_trial_1.png"" style=""width: 408px; height: 417px; margin-right: 608px;""></div></div>","null","delaylearn","learning","display_response","5a8a8de6000dab00018cc170","OShMZSBECRYy9VNGpRij6UFmQi12","","","","","","","","","","","","","","","","","chosen stimuli: images/choice_trial_1.png","","","",""
"html-keyboard-response","216","432061","0.0-89.0-2.0","","null","","null","delaylearn","learning","feedback_duration_window","5a8a8de6000dab00018cc170","OShMZSBECRYy9VNGpRij6UFmQi12","","","","","","","","","","","","","","","","","","7000","","",""
"html-keyboard-response","217","433565","0.0-89.0-3.0","","null","<div style='margin:auto;width: auto; font-size: 150%'><span style='font-weight: bold; font-size: 100px; color: green;'>+10 points!</span><br><br></div>","null","delaylearn","learning","feedback_image_window","5a8a8de6000dab00018cc170","OShMZSBECRYy9VNGpRij6UFmQi12","","","","","","","","","","","","","","","","","","","","",""
"html-keyboard-response","218","434077","0.0-90.0-0.0","","null","","null","","","mood_trial_fixation","","","","","","","","","","","","","","","","","","","","","","",""
"lmdlab-html-vas-response","219","437947","0.0-90.0-1.0","","2861","How happy are you right now?","0.4182098765432099","delaylearn","learning","mood_trial","5a8a8de6000dab00018cc170","OShMZSBECRYy9VNGpRij6UFmQi12","","","","","","","","","","","","","","","","","","","","[""Very unhappy"",""Very happy""]",""
"html-keyboard-response","220","439741","0.0-91.0","","null","<div style=""font-size:100px;"">+</div>","null","delaylearn","learning","ITI","5a8a8de6000dab00018cc170","OShMZSBECRYy9VNGpRij6UFmQi12","","","","","","","","","","","","","","","","","","","1790","",""
