"trial_type","trial_index","time_elapsed","internal_node_id","participant","rt","stimulus","response","exp_name","exp_stage","test_part","subjectID","databaseID","counterbal","choice_stimuli_1","choice_stimuli_2","pattern_stimuli","rewarded_answer","correct_answer","feedback_duration_times","stim_left","stim_right","pair","leftright_counter","trial","response_correct","response_rewarded","chosen_stim","counter","displayed_choice","feedback_durations","ITI_duration","labels","rest_warning"
"pavlovia","0","1019","0.0-0.0","","","","","","","","","","","","","","","","","","","","","","","","","","","","","",""
"html-keyboard-response","1","4029","0.0-1.0","","null","<div style=""font-size:100px;"">+</div>","null","delaylearn","learning","pre_fixation","5d21d969adb5ab00159cd083","","","","","","","","","","","","","","","","","","","","","",""
"html-keyboard-response","2","5517","0.0-2.0-0.0","","1485.6000001430511","<div style=""display: flex; flex-direction: column; align-items: center; margin-top: -40px;""><img src=""images/demo_images/pattern_1.png"" style=""width: 234px; height: 230px; margin-top: -50px;""><div style=""display: flex; justify-content: space-between; margin-top: 33px;""><img src=""images/demo_images/choice_trial_2.png"" style=""width: 408px; height: 417px; margin-right: 200px;""><img src=""images/demo_images/choice_trial_1.png"" style=""width: 408px; height: 417px;""></div></div>","f","delaylearn","learning","trial","5d21d969adb5ab00159cd083","ws7Esl3xVLhO7RJU7oA8HlHXWpp1","2","images/demo_images/choice_trial_2.png","images/demo_images/choice_trial_1.png","images/demo_images/pattern_1.png","j","j","3000","2","1","20","1","1","0","0","2","0","","","","",""
"html-keyboard-response","3","6522","0.0-2.0-1.0","","null","<div style=""display: flex; flex-direction: column; align-items: center; margin-top: -40px;""><img src=""images/demo_images/pattern_1.png"" style=""width: 234px; height: 230px; margin-top: -50px;""><div style=""display: flex; justify-content: space-between; margin-top: 33px;""><img src=""images/demo_images/choice_trial_2.png"" style=""width: 408px; height: 417px; margin-right: 608px;""></div></div>","null","delaylearn","learning","display_response","5d21d969adb5ab00159cd083","ws7Esl3xVLhO7RJU7oA8HlHXWpp1","","","","","","","","","","","","","","","","","chosen stimuli: images/demo_images/choice_trial_2.png","","","",""
"html-keyboard-response","4","9531","0.0-2.0-2.0","","null","","null","delaylearn","learning","feedback_duration_window","5d21d969adb5ab00159cd083","ws7Esl3xVLhO7RJU7oA8HlHXWpp1","","","","","","","","","","","","","","","","","","3000","","",""
"html-keyboard-response","5","11044","0.0-2.0-3.0","","null","<div style='margin:auto;width: auto; font-size: 150%'><span style='font-weight: bold; font-size: 100px; color: red;'>0 points!</span><br><br></div>","null","delaylearn","learning","feedback_image_window","5d21d969adb5ab00159cd083","ws7Esl3xVLhO7RJU7oA8HlHXWpp1","","","","","","","","","","","","","","","","","","","","",""
"html-keyboard-response","6","13239","0.0-3.0","","null","<div style=""font-size:100px;"">+</div>","null","delaylearn","learning","ITI","5d21d969adb5ab00159cd083","ws7Esl3xVLhO7RJU7oA8HlHXWpp1","","","","","","","","","","","","","","","","","","","2192","",""
"html-keyboard-response","7","14362","0.0-4.0-0.0","","1120.5","<div style=""display: flex; flex-direction: column; align-items: center; margin-top: -40px;""><img src=""images/demo_images/pattern_1.png"" style=""width: 234px; height: 230px; margin-top: -50px;""><div style=""display: flex; justify-content: space-between; margin-top: 33px;""><img src=""images/demo_images/choice_trial_2.png"" style=""width: 408px; height: 417px; margin-right: 200px;""><img src=""images/demo_images/choice_trial_1.png"" style=""width: 408px; height: 417px;""></div></div>","j","delaylearn","learning","trial","5d21d969adb5ab00159cd083","ws7Esl3xVLhO7RJU7oA8HlHXWpp1","2","images/demo_images/choice_trial_2.png","images/demo_images/choice_trial_1.png","images/demo_images/pattern_1.png","j","j","3000","2","1","20","1","2","1","1","1","10","","","","",""
"html-keyboard-response","8","15374","0.0-4.0-1.0","","null","<div style=""display: flex; flex-direction: column; align-items: center; margin-top: -40px;""><img src=""images/demo_images/pattern_1.png"" style=""width: 234px; height: 230px; margin-top: -50px;""><div style=""display: flex; justify-content: space-between; margin-top: 33px;""><img src=""images/demo_images/choice_trial_1.png"" style=""width: 408px; height: 417px; margin-left:608px;""></div></div>","null","delaylearn","learning","display_response","5d21d969adb5ab00159cd083","ws7Esl3xVLhO7RJU7oA8HlHXWpp1","","","","","","","","","","","","","","","","","chosen stimuli: images/demo_images/choice_trial_1.png","","","",""
"html-keyboard-response","9","18386","0.0-4.0-2.0","","null","","null","delaylearn","learning","feedback_duration_window","5d21d969adb5ab00159cd083","ws7Esl3xVLhO7RJU7oA8HlHXWpp1","","","","","","","","","","","","","","","","","","3000","","",""
"html-keyboard-response","10","19901","0.0-4.0-3.0","","null","<div style='margin:auto;width: auto; font-size: 150%'><span style='font-weight: bold; font-size: 100px; color: green;'>+10 points!</span><br><br></div>","null","delaylearn","learning","feedback_image_window","5d21d969adb5ab00159cd083","ws7Esl3xVLhO7RJU7oA8HlHXWpp1","","","","","","","","","","","","","","","","","","","","",""
"html-keyboard-response","11","22125","0.0-5.0","","null","<div style=""font-size:100px;"">+</div>","null","delaylearn","learning","ITI","5d21d969adb5ab00159cd083","ws7Esl3xVLhO7RJU7oA8HlHXWpp1","","","","","","","","","","","","","","","","","","","2217","",""
"html-keyboard-response","12","24331","0.0-6.0-0.0","","2203.7999999523163","<div style=""display: flex; flex-direction: column; align-items: center; margin-top: -40px;""><img src=""images/demo_images/pattern_1.png"" style=""width: 234px; height: 230px; margin-top: -50px;""><div style=""display: flex; justify-content: space-between; margin-top: 33px;""><img src=""images/demo_images/choice_trial_1.png"" style=""width: 408px; height: 417px; margin-right: 200px;""><img src=""images/demo_images/choice_trial_2.png"" style=""width: 408px; height: 417px;""></div></div>","f","delaylearn","learning","trial","5d21d969adb5ab00159cd083","ws7Esl3xVLhO7RJU7oA8HlHXWpp1","2","images/demo_images/choice_trial_1.png","images/demo_images/choice_trial_2.png","images/demo_images/pattern_1.png","j","f","3000","1","2","20","0","3","1","0","1","10","","","","",""
"html-keyboard-response","13","25338","0.0-6.0-1.0","","null","<div style=""display: flex; flex-direction: column; align-items: center; margin-top: -40px;""><img src=""images/demo_images/pattern_1.png"" style=""width: 234px; height: 230px; margin-top: -50px;""><div style=""display: flex; justify-content: space-between; margin-top: 33px;""><img src=""images/demo_images/choice_trial_1.png"" style=""width: 408px; height: 417px; margin-right: 608px;""></div></div>","null","delaylearn","learning","display_response","5d21d969adb5ab00159cd083","ws7Esl3xVLhO7RJU7oA8HlHXWpp1","","","","","","","","","","","","","","","","","chosen stimuli: images/demo_images/choice_trial_1.png","","","",""
"html-keyboard-response","14","28346","0.0-6.0-2.0","","null","","null","delaylearn","learning","feedback_duration_window","5d21d969adb5ab00159cd083","ws7Esl3xVLhO7RJU7oA8HlHXWpp1","","","","","","","","","","","","","","","","","","3000","","",""
"html-keyboard-response","15","29854","0.0-6.0-3.0","","null","<div style='margin:auto;width: auto; font-size: 150%'><span style='font-weight: bold; font-size: 100px; color: red;'>0 points!</span><br><br></div>","null","delaylearn","learning","feedback_image_window","5d21d969adb5ab00159cd083","ws7Esl3xVLhO7RJU7oA8HlHXWpp1","","","","","","","","","","","","","","","","","","","","",""
"html-keyboard-response","16","31717","0.0-7.0","","null","<div style=""font-size:100px;"">+</div>","null","delaylearn","learning","ITI","5d21d969adb5ab00159cd083","ws7Esl3xVLhO7RJU7oA8HlHXWpp1","","","","","","","","","","","","","","","","","","","1859","",""
"html-keyboard-response","17","33989","0.0-8.0-0.0","","2270.7000000476837","<div style=""display: flex; flex-direction: column; align-items: center; margin-top: -40px;""><img src=""images/demo_images/pattern_1.png"" style=""width: 234px; height: 230px; margin-top: -50px;""><div style=""display: flex; justify-content: space-between; margin-top: 33px;""><img src=""images/demo_images/choice_trial_1.png"" style=""width: 408px; height: 417px; margin-right: 200px;""><img src=""images/demo_images/choice_trial_2.png"" style=""width: 408px; height: 417px;""></div></div>","j","delaylearn","learning","trial","5d21d969adb5ab00159cd083","ws7Esl3xVLhO7RJU7oA8HlHXWpp1","2","images/demo_images/choice_trial_1.png","images/demo_images/choice_trial_2.png","images/demo_images/pattern_1.png","f","f","3000","1","2","20","0","4","0","0","2","10","","","","",""
"html-keyboard-response","18","35002","0.0-8.0-1.0","","null","<div style=""display: flex; flex-direction: column; align-items: center; margin-top: -40px;""><img src=""images/demo_images/pattern_1.png"" style=""width: 234px; height: 230px; margin-top: -50px;""><div style=""display: flex; justify-content: space-between; margin-top: 33px;""><img src=""images/demo_images/choice_trial_2.png"" style=""width: 408px; height: 417px; margin-left:608px;""></div></div>","null","delaylearn","learning","display_response","5d21d969adb5ab00159cd083","ws7Esl3xVLhO7RJU7oA8HlHXWpp1","","","","","","","","","","","","","","","","","chosen stimuli: images/demo_images/choice_trial_2.png","","","",""
"html-keyboard-response","19","38016","0.0-8.0-2.0","","null","","null","delaylearn","learning","feedback_duration_window","5d21d969adb5ab00159cd083","ws7Esl3xVLhO7RJU7oA8HlHXWpp1","","","","","","","","","","","","","","","","","","3000","","",""
"html-keyboard-response","20","39523","0.0-8.0-3.0","","null","<div style='margin:auto;width: auto; font-size: 150%'><span style='font-weight: bold; font-size: 100px; color: red;'>0 points!</span><br><br></div>","null","delaylearn","learning","feedback_image_window","5d21d969adb5ab00159cd083","ws7Esl3xVLhO7RJU7oA8HlHXWpp1","","","","","","","","","","","","","","","","","","","","",""
"html-keyboard-response","21","40028","0.0-9.0-0.0","","null","","null","","","mood_trial_fixation","","","","","","","","","","","","","","","","","","","","","","",""
"lmdlab-html-vas-response","22","44611","0.0-9.0-1.0","","3566","How happy are you right now?","0.3889105584886339","delaylearn","learning","mood_trial","5d21d969adb5ab00159cd083","ws7Esl3xVLhO7RJU7oA8HlHXWpp1","","","","","","","","","","","","","","","","","","","","[""Very unhappy"",""Very happy""]",""
"html-keyboard-response","23","46637","0.0-10.0","","null","<div style=""font-size:100px;"">+</div>","null","delaylearn","learning","ITI","5d21d969adb5ab00159cd083","ws7Esl3xVLhO7RJU7oA8HlHXWpp1","","","","","","","","","","","","","","","","","","","2017","",""
"html-keyboard-response","24","49641","0.0-11.0-0.0","","null","<div style=""display: flex; flex-direction: column; align-items: center; margin-top: -40px;""><img src=""images/demo_images/pattern_1.png"" style=""width: 234px; height: 230px; margin-top: -50px;""><div style=""display: flex; justify-content: space-between; margin-top: 33px;""><img src=""images/demo_images/choice_trial_2.png"" style=""width: 408px; height: 417px; margin-right: 200px;""><img src=""images/demo_images/choice_trial_1.png"" style=""width: 408px; height: 417px;""></div></div>","null","delaylearn","learning","trial","5d21d969adb5ab00159cd083","ws7Esl3xVLhO7RJU7oA8HlHXWpp1","2","images/demo_images/choice_trial_2.png","images/demo_images/choice_trial_1.png","images/demo_images/pattern_1.png","j","j","3000","2","1","20","1","5","0","0","0","10","","","","",""
"html-keyboard-response","25","50651","0.0-11.0-1.0","","null","<div style='font-weight: bold; font-size: 75px; color: red;'>Missed Trial <br><br><br><br> Please respond faster</div>","null","delaylearn","learning","display_response","5d21d969adb5ab00159cd083","ws7Esl3xVLhO7RJU7oA8HlHXWpp1","","","","","","","","","","","","","","","","","Missed trial","","","",""
"html-keyboard-response","26","50660","0.0-11.0-2.0","","null","","null","delaylearn","learning","feedback_duration_window","5d21d969adb5ab00159cd083","ws7Esl3xVLhO7RJU7oA8HlHXWpp1","","","","","","","","","","","","","","","","","","0","","",""
"html-keyboard-response","27","50669","0.0-11.0-3.0","","null","","null","delaylearn","learning","feedback_image_window","5d21d969adb5ab00159cd083","ws7Esl3xVLhO7RJU7oA8HlHXWpp1","","","","","","","","","","","","","","","","","","","","",""
"html-keyboard-response","28","52660","0.0-12.0","","null","<div style=""font-size:100px;"">+</div>","null","delaylearn","learning","ITI","5d21d969adb5ab00159cd083","ws7Esl3xVLhO7RJU7oA8HlHXWpp1","","","","","","","","","","","","","","","","","","","1978","",""
"html-keyboard-response","29","53430","0.0-13.0-0.0","","772.7999999523163","<div style=""display: flex; flex-direction: column; align-items: center; margin-top: -40px;""><img src=""images/demo_images/pattern_1.png"" style=""width: 234px; height: 230px; margin-top: -50px;""><div style=""display: flex; justify-content: space-between; margin-top: 33px;""><img src=""images/demo_images/choice_trial_1.png"" style=""width: 408px; height: 417px; margin-right: 200px;""><img src=""images/demo_images/choice_trial_2.png"" style=""width: 408px; height: 417px;""></div></div>","f","delaylearn","learning","trial","5d21d969adb5ab00159cd083","ws7Esl3xVLhO7RJU7oA8HlHXWpp1","2","images/demo_images/choice_trial_1.png","images/demo_images/choice_trial_2.png","images/demo_images/pattern_1.png","f","f","3000","1","2","20","0","6","1","1","1","20","","","","",""
"html-keyboard-response","30","54436","0.0-13.0-1.0","","null","<div style=""display: flex; flex-direction: column; align-items: center; margin-top: -40px;""><img src=""images/demo_images/pattern_1.png"" style=""width: 234px; height: 230px; margin-top: -50px;""><div style=""display: flex; justify-content: space-between; margin-top: 33px;""><img src=""images/demo_images/choice_trial_1.png"" style=""width: 408px; height: 417px; margin-right: 608px;""></div></div>","null","delaylearn","learning","display_response","5d21d969adb5ab00159cd083","ws7Esl3xVLhO7RJU7oA8HlHXWpp1","","","","","","","","","","","","","","","","","chosen stimuli: images/demo_images/choice_trial_1.png","","","",""
"html-keyboard-response","31","57442","0.0-13.0-2.0","","null","","null","delaylearn","learning","feedback_duration_window","5d21d969adb5ab00159cd083","ws7Esl3xVLhO7RJU7oA8HlHXWpp1","","","","","","","","","","","","","","","","","","3000","","",""
"html-keyboard-response","32","58955","0.0-13.0-3.0","","null","<div style='margin:auto;width: auto; font-size: 150%'><span style='font-weight: bold; font-size: 100px; color: green;'>+10 points!</span><br><br></div>","null","delaylearn","learning","feedback_image_window","5d21d969adb5ab00159cd083","ws7Esl3xVLhO7RJU7oA8HlHXWpp1","","","","","","","","","","","","","","","","","","","","",""
"html-keyboard-response","33","61372","0.0-14.0","","null","<div style=""font-size:100px;"">+</div>","null","delaylearn","learning","ITI","5d21d969adb5ab00159cd083","ws7Esl3xVLhO7RJU7oA8HlHXWpp1","","","","","","","","","","","","","","","","","","","2405","",""
"html-keyboard-response","34","63045","0.0-15.0-0.0","","1670.7999999523163","<div style=""display: flex; flex-direction: column; align-items: center; margin-top: -40px;""><img src=""images/demo_images/pattern_1.png"" style=""width: 234px; height: 230px; margin-top: -50px;""><div style=""display: flex; justify-content: space-between; margin-top: 33px;""><img src=""images/demo_images/choice_trial_2.png"" style=""width: 408px; height: 417px; margin-right: 200px;""><img src=""images/demo_images/choice_trial_1.png"" style=""width: 408px; height: 417px;""></div></div>","f","delaylearn","learning","trial","5d21d969adb5ab00159cd083","ws7Esl3xVLhO7RJU7oA8HlHXWpp1","2","images/demo_images/choice_trial_2.png","images/demo_images/choice_trial_1.png","images/demo_images/pattern_1.png","j","j","3000","2","1","20","1","7","0","0","2","20","","","","",""
"html-keyboard-response","35","64048","0.0-15.0-1.0","","null","<div style=""display: flex; flex-direction: column; align-items: center; margin-top: -40px;""><img src=""images/demo_images/pattern_1.png"" style=""width: 234px; height: 230px; margin-top: -50px;""><div style=""display: flex; justify-content: space-between; margin-top: 33px;""><img src=""images/demo_images/choice_trial_2.png"" style=""width: 408px; height: 417px; margin-right: 608px;""></div></div>","null","delaylearn","learning","display_response","5d21d969adb5ab00159cd083","ws7Esl3xVLhO7RJU7oA8HlHXWpp1","","","","","","","","","","","","","","","","","chosen stimuli: images/demo_images/choice_trial_2.png","","","",""
"html-keyboard-response","36","67060","0.0-15.0-2.0","","null","","null","delaylearn","learning","feedback_duration_window","5d21d969adb5ab00159cd083","ws7Esl3xVLhO7RJU7oA8HlHXWpp1","","","","","","","","","","","","","","","","","","3000","","",""
"html-keyboard-response","37","68581","0.0-15.0-3.0","","null","<div style='margin:auto;width: auto; font-size: 150%'><span style='font-weight: bold; font-size: 100px; color: red;'>0 points!</span><br><br></div>","null","delaylearn","learning","feedback_image_window","5d21d969adb5ab00159cd083","ws7Esl3xVLhO7RJU7oA8HlHXWpp1","","","","","","","","","","","","","","","","","","","","",""
"html-keyboard-response","38","70847","0.0-16.0","","null","<div style=""font-size:100px;"">+</div>","null","delaylearn","learning","ITI","5d21d969adb5ab00159cd083","ws7Esl3xVLhO7RJU7oA8HlHXWpp1","","","","","","","","","","","","","","","","","","","2250","",""
"html-keyboard-response","39","72351","0.0-17.0-0.0","","1502.7999999523163","<div style=""display: flex; flex-direction: column; align-items: center; margin-top: -40px;""><img src=""images/demo_images/pattern_1.png"" style=""width: 234px; height: 230px; margin-top: -50px;""><div style=""display: flex; justify-content: space-between; margin-top: 33px;""><img src=""images/demo_images/choice_trial_1.png"" style=""width: 408px; height: 417px; margin-right: 200px;""><img src=""images/demo_images/choice_trial_2.png"" style=""width: 408px; height: 417px;""></div></div>","f","delaylearn","learning","trial","5d21d969adb5ab00159cd083","ws7Esl3xVLhO7RJU7oA8HlHXWpp1","2","images/demo_images/choice_trial_1.png","images/demo_images/choice_trial_2.png","images/demo_images/pattern_1.png","f","f","3000","1","2","20","0","8","1","1","1","30","","","","",""
"html-keyboard-response","40","73355","0.0-17.0-1.0","","null","<div style=""display: flex; flex-direction: column; align-items: center; margin-top: -40px;""><img src=""images/demo_images/pattern_1.png"" style=""width: 234px; height: 230px; margin-top: -50px;""><div style=""display: flex; justify-content: space-between; margin-top: 33px;""><img src=""images/demo_images/choice_trial_1.png"" style=""width: 408px; height: 417px; margin-right: 608px;""></div></div>","null","delaylearn","learning","display_response","5d21d969adb5ab00159cd083","ws7Esl3xVLhO7RJU7oA8HlHXWpp1","","","","","","","","","","","","","","","","","chosen stimuli: images/demo_images/choice_trial_1.png","","","",""
"html-keyboard-response","41","76361","0.0-17.0-2.0","","null","","null","delaylearn","learning","feedback_duration_window","5d21d969adb5ab00159cd083","ws7Esl3xVLhO7RJU7oA8HlHXWpp1","","","","","","","","","","","","","","","","","","3000","","",""
"html-keyboard-response","42","77877","0.0-17.0-3.0","","null","<div style='margin:auto;width: auto; font-size: 150%'><span style='font-weight: bold; font-size: 100px; color: green;'>+10 points!</span><br><br></div>","null","delaylearn","learning","feedback_image_window","5d21d969adb5ab00159cd083","ws7Esl3xVLhO7RJU7oA8HlHXWpp1","","","","","","","","","","","","","","","","","","","","",""
"html-button-response","43","80025","0.0-18.0","","2146.2999999523163","
  <div style=""display: flex; align-items: center; justify-content: center; height: 80vh;"">
  <div>
          <img src=""images/inst_demo_finish.png"" style=""width: 80vw; height:auto;"">
          <br><br>
      </div>
      <br><br>
  </div>","0","","","","","","","","","","","","","","","","","","","","","","","","","",""
"html-keyboard-response","44","86429","0.0-19.0","","6403","
  <div style=""display: flex; align-items: center; justify-content: center; height: 80vh;"">
  <div>
          <img src=""images/inst_6.png"" style=""width: 80vw; height:auto;"">
          <br><br>
      </div>
      <br><br>
  </div>","f","","","","","","","","","","","","","","","","","","","","","","","","","",""
"html-keyboard-response","45","89438","0.0-20.0","","null","<div style=""font-size:100px;"">+</div>","null","delaylearn","learning","pre_fixation","5d21d969adb5ab00159cd083","","","","","","","","","","","","","","","","","","","","","",""
"html-keyboard-response","46","91418","0.0-21.0","","null","<div style=""font-size:100px;"">+</div>","null","delaylearn","learning","ITI","5d21d969adb5ab00159cd083","ws7Esl3xVLhO7RJU7oA8HlHXWpp1","","","","","","","","","","","","","","","","","","","1963","",""
"html-keyboard-response","47","92908","0.0-22.0-0.0","","1488.6000001430511","<div style=""display: flex; flex-direction: column; align-items: center; margin-top: -40px;""><img src=""images/pattern_3.png"" style=""width: 234px; height: 230px; margin-top: -50px;""><div style=""display: flex; justify-content: space-between; margin-top: 33px;""><img src=""images/choice_trial_12.png"" style=""width: 408px; height: 417px; margin-right: 200px;""><img src=""images/choice_trial_14.png"" style=""width: 408px; height: 417px;""></div></div>","f","delaylearn","learning","trial","5d21d969adb5ab00159cd083","ws7Esl3xVLhO7RJU7oA8HlHXWpp1","2","images/choice_trial_12.png","images/choice_trial_14.png","images/pattern_3.png","f","f","7000","12","14","2","0","9","1","1","12","40","","","","",""
"html-keyboard-response","48","93910","0.0-22.0-1.0","","null","<div style=""display: flex; flex-direction: column; align-items: center; margin-top: -40px;""><img src=""images/pattern_3.png"" style=""width: 234px; height: 230px; margin-top: -50px;""><div style=""display: flex; justify-content: space-between; margin-top: 33px;""><img src=""images/choice_trial_12.png"" style=""width: 408px; height: 417px; margin-right: 608px;""></div></div>","null","delaylearn","learning","display_response","5d21d969adb5ab00159cd083","ws7Esl3xVLhO7RJU7oA8HlHXWpp1","","","","","","","","","","","","","","","","","chosen stimuli: images/choice_trial_12.png","","","",""
"html-keyboard-response","49","100921","0.0-22.0-2.0","","null","","null","delaylearn","learning","feedback_duration_window","5d21d969adb5ab00159cd083","ws7Esl3xVLhO7RJU7oA8HlHXWpp1","","","","","","","","","","","","","","","","","","7000","","",""
"html-keyboard-response","50","102427","0.0-22.0-3.0","","null","<div style='margin:auto;width: auto; font-size: 150%'><span style='font-weight: bold; font-size: 100px; color: green;'>+10 points!</span><br><br></div>","null","delaylearn","learning","feedback_image_window","5d21d969adb5ab00159cd083","ws7Esl3xVLhO7RJU7oA8HlHXWpp1","","","","","","","","","","","","","","","","","","","","",""
"html-keyboard-response","51","104204","0.0-23.0","","null","<div style=""font-size:100px;"">+</div>","null","delaylearn","learning","ITI","5d21d969adb5ab00159cd083","ws7Esl3xVLhO7RJU7oA8HlHXWpp1","","","","","","","","","","","","","","","","","","","1765","",""
"html-keyboard-response","52","106253","0.0-24.0-0.0","","2047.7000000476837","<div style=""display: flex; flex-direction: column; align-items: center; margin-top: -40px;""><img src=""images/pattern_7.png"" style=""width: 234px; height: 230px; margin-top: -50px;""><div style=""display: flex; justify-content: space-between; margin-top: 33px;""><img src=""images/choice_trial_15.png"" style=""width: 408px; height: 417px; margin-right: 200px;""><img src=""images/choice_trial_8.png"" style=""width: 408px; height: 417px;""></div></div>","j","delaylearn","learning","trial","5d21d969adb5ab00159cd083","ws7Esl3xVLhO7RJU7oA8HlHXWpp1","2","images/choice_trial_15.png","images/choice_trial_8.png","images/pattern_7.png","j","j","750","15","8","6","1","10","1","1","8","50","","","","",""
"html-keyboard-response","53","107269","0.0-24.0-1.0","","null","<div style=""display: flex; flex-direction: column; align-items: center; margin-top: -40px;""><img src=""images/pattern_7.png"" style=""width: 234px; height: 230px; margin-top: -50px;""><div style=""display: flex; justify-content: space-between; margin-top: 33px;""><img src=""images/choice_trial_8.png"" style=""width: 408px; height: 417px; margin-left:608px;""></div></div>","null","delaylearn","learning","display_response","5d21d969adb5ab00159cd083","ws7Esl3xVLhO7RJU7oA8HlHXWpp1","","","","","","","","","","","","","","","","","chosen stimuli: images/choice_trial_8.png","","","",""
"html-keyboard-response","54","108029","0.0-24.0-2.0","","null","","null","delaylearn","learning","feedback_duration_window","5d21d969adb5ab00159cd083","ws7Esl3xVLhO7RJU7oA8HlHXWpp1","","","","","","","","","","","","","","","","","","750","","",""
"html-keyboard-response","55","109545","0.0-24.0-3.0","","null","<div style='margin:auto;width: auto; font-size: 150%'><span style='font-weight: bold; font-size: 100px; color: green;'>+10 points!</span><br><br></div>","null","delaylearn","learning","feedback_image_window","5d21d969adb5ab00159cd083","ws7Esl3xVLhO7RJU7oA8HlHXWpp1","","","","","","","","","","","","","","","","","","","","",""
"html-keyboard-response","56","111606","0.0-25.0","","null","<div style=""font-size:100px;"">+</div>","null","delaylearn","learning","ITI","5d21d969adb5ab00159cd083","ws7Esl3xVLhO7RJU7oA8HlHXWpp1","","","","","","","","","","","","","","","","","","","2055","",""
"html-keyboard-response","57","113181","0.0-26.0-0.0","","1572.7000000476837","<div style=""display: flex; flex-direction: column; align-items: center; margin-top: -40px;""><img src=""images/pattern_4.png"" style=""width: 234px; height: 230px; margin-top: -50px;""><div style=""display: flex; justify-content: space-between; margin-top: 33px;""><img src=""images/choice_trial_4.png"" style=""width: 408px; height: 417px; margin-right: 200px;""><img src=""images/choice_trial_16.png"" style=""width: 408px; height: 417px;""></div></div>","j","delaylearn","learning","trial","5d21d969adb5ab00159cd083","ws7Esl3xVLhO7RJU7oA8HlHXWpp1","2","images/choice_trial_4.png","images/choice_trial_16.png","images/pattern_4.png","f","f","7000","4","16","3","0","11","0","0","16","50","","","","",""
"html-keyboard-response","58","114184","0.0-26.0-1.0","","null","<div style=""display: flex; flex-direction: column; align-items: center; margin-top: -40px;""><img src=""images/pattern_4.png"" style=""width: 234px; height: 230px; margin-top: -50px;""><div style=""display: flex; justify-content: space-between; margin-top: 33px;""><img src=""images/choice_trial_16.png"" style=""width: 408px; height: 417px; margin-left:608px;""></div></div>","null","delaylearn","learning","display_response","5d21d969adb5ab00159cd083","ws7Esl3xVLhO7RJU7oA8HlHXWpp1","","","","","","","","","","","","","","","","","chosen stimuli: images/choice_trial_16.png","","","",""
"html-keyboard-response","59","121186","0.0-26.0-2.0","","null","","null","delaylearn","learning","feedback_duration_window","5d21d969adb5ab00159cd083","ws7Esl3xVLhO7RJU7oA8HlHXWpp1","","","","","","","","","","","","","","","","","","7000","","",""
"html-keyboard-response","60","122697","0.0-26.0-3.0","","null","<div style='margin:auto;width: auto; font-size: 150%'><span style='font-weight: bold; font-size: 100px; color: red;'>0 points!</span><br><br></div>","null","delaylearn","learning","feedback_image_window","5d21d969adb5ab00159cd083","ws7Esl3xVLhO7RJU7oA8HlHXWpp1","","","","","","","","","","","","","","","","","","","","",""
"html-keyboard-response","61","124365","0.0-27.0","","null","<div style=""font-size:100px;"">+</div>","null","delaylearn","learning","ITI","5d21d969adb5ab00159cd083","ws7Esl3xVLhO7RJU7oA8HlHXWpp1","","","","","","","","","","","","","","","","","","","1654","",""
"html-keyboard-response","62","125845","0.0-28.0-0.0","","1478.1999998092651","<div style=""display: flex; flex-direction: column; align-items: center; margin-top: -40px;""><img src=""images/pattern_5.png"" style=""width: 234px; height: 230px; margin-top: -50px;""><div style=""display: flex; justify-content: space-between; margin-top: 33px;""><img src=""images/choice_trial_9.png"" style=""width: 408px; height: 417px; margin-right: 200px;""><img src=""images/choice_trial_2.png"" style=""width: 408px; height: 417px;""></div></div>","f","delaylearn","learning","trial","5d21d969adb5ab00159cd083","ws7Esl3xVLhO7RJU7oA8HlHXWpp1","2","images/choice_trial_9.png","images/choice_trial_2.png","images/pattern_5.png","j","j","750","9","2","4","1","12","0","0","9","50","","","","",""
"html-keyboard-response","63","126861","0.0-28.0-1.0","","null","<div style=""display: flex; flex-direction: column; align-items: center; margin-top: -40px;""><img src=""images/pattern_5.png"" style=""width: 234px; height: 230px; margin-top: -50px;""><div style=""display: flex; justify-content: space-between; margin-top: 33px;""><img src=""images/choice_trial_9.png"" style=""width: 408px; height: 417px; margin-right: 608px;""></div></div>","null","delaylearn","learning","display_response","5d21d969adb5ab00159cd083","ws7Esl3xVLhO7RJU7oA8HlHXWpp1","","","","","","","","","","","","","","","","","chosen stimuli: images/choice_trial_9.png","","","",""
"html-keyboard-response","64","127623","0.0-28.0-2.0","","null","","null","delaylearn","learning","feedback_duration_window","5d21d969adb5ab00159cd083","ws7Esl3xVLhO7RJU7oA8HlHXWpp1","","","","","","","","","","","","","","","","","","750","","",""
"html-keyboard-response","65","129136","0.0-28.0-3.0","","null","<div style='margin:auto;width: auto; font-size: 150%'><span style='font-weight: bold; font-size: 100px; color: red;'>0 points!</span><br><br></div>","null","delaylearn","learning","feedback_image_window","5d21d969adb5ab00159cd083","ws7Esl3xVLhO7RJU7oA8HlHXWpp1","","","","","","","","","","","","","","","","","","","","",""
"html-keyboard-response","66","131408","0.0-29.0","","null","<div style=""font-size:100px;"">+</div>","null","delaylearn","learning","ITI","5d21d969adb5ab00159cd083","ws7Esl3xVLhO7RJU7oA8HlHXWpp1","","","","","","","","","","","","","","","","","","","2258","",""
"html-keyboard-response","67","132925","0.0-30.0-0.0","","1516","<div style=""display: flex; flex-direction: column; align-items: center; margin-top: -40px;""><img src=""images/pattern_6.png"" style=""width: 234px; height: 230px; margin-top: -50px;""><div style=""display: flex; justify-content: space-between; margin-top: 33px;""><img src=""images/choice_trial_11.png"" style=""width: 408px; height: 417px; margin-right: 200px;""><img src=""images/choice_trial_5.png"" style=""width: 408px; height: 417px;""></div></div>","j","delaylearn","learning","trial","5d21d969adb5ab00159cd083","ws7Esl3xVLhO7RJU7oA8HlHXWpp1","2","images/choice_trial_11.png","images/choice_trial_5.png","images/pattern_6.png","j","f","750","11","5","5","0","13","0","1","5","60","","","","",""
"html-keyboard-response","68","133941","0.0-30.0-1.0","","null","<div style=""display: flex; flex-direction: column; align-items: center; margin-top: -40px;""><img src=""images/pattern_6.png"" style=""width: 234px; height: 230px; margin-top: -50px;""><div style=""display: flex; justify-content: space-between; margin-top: 33px;""><img src=""images/choice_trial_5.png"" style=""width: 408px; height: 417px; margin-left:608px;""></div></div>","null","delaylearn","learning","display_response","5d21d969adb5ab00159cd083","ws7Esl3xVLhO7RJU7oA8HlHXWpp1","","","","","","","","","","","","","","","","","chosen stimuli: images/choice_trial_5.png","","","",""
"html-keyboard-response","69","134705","0.0-30.0-2.0","","null","","null","delaylearn","learning","feedback_duration_window","5d21d969adb5ab00159cd083","ws7Esl3xVLhO7RJU7oA8HlHXWpp1","","","","","","","","","","","","","","","","","","750","","",""
"html-keyboard-response","70","136215","0.0-30.0-3.0","","null","<div style='margin:auto;width: auto; font-size: 150%'><span style='font-weight: bold; font-size: 100px; color: green;'>+10 points!</span><br><br></div>","null","delaylearn","learning","feedback_image_window","5d21d969adb5ab00159cd083","ws7Esl3xVLhO7RJU7oA8HlHXWpp1","","","","","","","","","","","","","","","","","","","","",""
"html-keyboard-response","71","136735","0.0-31.0-0.0","","null","","null","","","mood_trial_fixation","","","","","","","","","","","","","","","","","","","","","","",""
"lmdlab-html-vas-response","72","140726","0.0-31.0-1.0","","2978","How happy are you right now?","0.48786889182196724","delaylearn","learning","mood_trial","5d21d969adb5ab00159cd083","ws7Esl3xVLhO7RJU7oA8HlHXWpp1","","","","","","","","","","","","","","","","","","","","[""Very unhappy"",""Very happy""]",""
"html-keyboard-response","73","142347","0.0-32.0","","null","<div style=""font-size:100px;"">+</div>","null","delaylearn","learning","ITI","5d21d969adb5ab00159cd083","ws7Esl3xVLhO7RJU7oA8HlHXWpp1","","","","","","","","","","","","","","","","","","","1617","",""
"html-keyboard-response","74","143589","0.0-33.0-0.0","","1240.7000000476837","<div style=""display: flex; flex-direction: column; align-items: center; margin-top: -40px;""><img src=""images/pattern_1.png"" style=""width: 234px; height: 230px; margin-top: -50px;""><div style=""display: flex; justify-content: space-between; margin-top: 33px;""><img src=""images/choice_trial_10.png"" style=""width: 408px; height: 417px; margin-right: 200px;""><img src=""images/choice_trial_3.png"" style=""width: 408px; height: 417px;""></div></div>","f","delaylearn","learning","trial","5d21d969adb5ab00159cd083","ws7Esl3xVLhO7RJU7oA8HlHXWpp1","2","images/choice_trial_10.png","images/choice_trial_3.png","images/pattern_1.png","j","j","7000","10","3","1","1","14","0","0","10","60","","","","",""
"html-keyboard-response","75","144599","0.0-33.0-1.0","","null","<div style=""display: flex; flex-direction: column; align-items: center; margin-top: -40px;""><img src=""images/pattern_1.png"" style=""width: 234px; height: 230px; margin-top: -50px;""><div style=""display: flex; justify-content: space-between; margin-top: 33px;""><img src=""images/choice_trial_10.png"" style=""width: 408px; height: 417px; margin-right: 608px;""></div></div>","null","delaylearn","learning","display_response","5d21d969adb5ab00159cd083","ws7Esl3xVLhO7RJU7oA8HlHXWpp1","","","","","","","","","","","","","","","","","chosen stimuli: images/choice_trial_10.png","","","",""
"html-keyboard-response","76","151614","0.0-33.0-2.0","","null","","null","delaylearn","learning","feedback_duration_window","5d21d969adb5ab00159cd083","ws7Esl3xVLhO7RJU7oA8HlHXWpp1","","","","","","","","","","","","","","","","","","7000","","",""
"html-keyboard-response","77","153120","0.0-33.0-3.0","","null","<div style='margin:auto;width: auto; font-size: 150%'><span style='font-weight: bold; font-size: 100px; color: red;'>0 points!</span><br><br></div>","null","delaylearn","learning","feedback_image_window","5d21d969adb5ab00159cd083","ws7Esl3xVLhO7RJU7oA8HlHXWpp1","","","","","","","","","","","","","","","","","","","","",""
"html-keyboard-response","78","155010","0.0-34.0","","null","<div style=""font-size:100px;"">+</div>","null","delaylearn","learning","ITI","5d21d969adb5ab00159cd083","ws7Esl3xVLhO7RJU7oA8HlHXWpp1","","","","","","","","","","","","","","","","","","","1877","",""
"html-keyboard-response","79","157302","0.0-35.0-0.0","","2290.2000000476837","<div style=""display: flex; flex-direction: column; align-items: center; margin-top: -40px;""><img src=""images/pattern_3.png"" style=""width: 234px; height: 230px; margin-top: -50px;""><div style=""display: flex; justify-content: space-between; margin-top: 33px;""><img src=""images/choice_trial_14.png"" style=""width: 408px; height: 417px; margin-right: 200px;""><img src=""images/choice_trial_12.png"" style=""width: 408px; height: 417px;""></div></div>","f","delaylearn","learning","trial","5d21d969adb5ab00159cd083","ws7Esl3xVLhO7RJU7oA8HlHXWpp1","2","images/choice_trial_14.png","images/choice_trial_12.png","images/pattern_3.png","f","j","7000","14","12","2","1","15","0","1","14","70","","","","",""
"html-keyboard-response","80","158310","0.0-35.0-1.0","","null","<div style=""display: flex; flex-direction: column; align-items: center; margin-top: -40px;""><img src=""images/pattern_3.png"" style=""width: 234px; height: 230px; margin-top: -50px;""><div style=""display: flex; justify-content: space-between; margin-top: 33px;""><img src=""images/choice_trial_14.png"" style=""width: 408px; height: 417px; margin-right: 608px;""></div></div>","null","delaylearn","learning","display_response","5d21d969adb5ab00159cd083","ws7Esl3xVLhO7RJU7oA8HlHXWpp1","","","","","","","","","","","","","","","","","chosen stimuli: images/choice_trial_14.png","","","",""
"html-keyboard-response","81","165313","0.0-35.0-2.0","","null","","null","delaylearn","learning","feedback_duration_window","5d21d969adb5ab00159cd083","ws7Esl3xVLhO7RJU7oA8HlHXWpp1","","","","","","","","","","","","","","","","","","7000","","",""
"html-keyboard-response","82","166820","0.0-35.0-3.0","","null","<div style='margin:auto;width: auto; font-size: 150%'><span style='font-weight: bold; font-size: 100px; color: green;'>+10 points!</span><br><br></div>","null","delaylearn","learning","feedback_image_window","5d21d969adb5ab00159cd083","ws7Esl3xVLhO7RJU7oA8HlHXWpp1","","","","","","","","","","","","","","","","","","","","",""
"html-keyboard-response","83","168595","0.0-36.0","","null","<div style=""font-size:100px;"">+</div>","null","delaylearn","learning","ITI","5d21d969adb5ab00159cd083","ws7Esl3xVLhO7RJU7oA8HlHXWpp1","","","","","","","","","","","","","","","","","","","1767","",""
"html-keyboard-response","84","170357","0.0-37.0-0.0","","1759.2999999523163","<div style=""display: flex; flex-direction: column; align-items: center; margin-top: -40px;""><img src=""images/pattern_5.png"" style=""width: 234px; height: 230px; margin-top: -50px;""><div style=""display: flex; justify-content: space-between; margin-top: 33px;""><img src=""images/choice_trial_2.png"" style=""width: 408px; height: 417px; margin-right: 200px;""><img src=""images/choice_trial_9.png"" style=""width: 408px; height: 417px;""></div></div>","f","delaylearn","learning","trial","5d21d969adb5ab00159cd083","ws7Esl3xVLhO7RJU7oA8HlHXWpp1","2","images/choice_trial_2.png","images/choice_trial_9.png","images/pattern_5.png","f","f","750","2","9","4","0","16","1","1","2","80","","","","",""
"html-keyboard-response","85","171364","0.0-37.0-1.0","","null","<div style=""display: flex; flex-direction: column; align-items: center; margin-top: -40px;""><img src=""images/pattern_5.png"" style=""width: 234px; height: 230px; margin-top: -50px;""><div style=""display: flex; justify-content: space-between; margin-top: 33px;""><img src=""images/choice_trial_2.png"" style=""width: 408px; height: 417px; margin-right: 608px;""></div></div>","null","delaylearn","learning","display_response","5d21d969adb5ab00159cd083","ws7Esl3xVLhO7RJU7oA8HlHXWpp1","","","","","","","","","","","","","","","","","chosen stimuli: images/choice_trial_2.png","","","",""
"html-keyboard-response","86","172135","0.0-37.0-2.0","","null","","null","delaylearn","learning","feedback_duration_window","5d21d969adb5ab00159cd083","ws7Esl3xVLhO7RJU7oA8HlHXWpp1","","","","","","","","","","","","","","","","","","750","","",""
"html-keyboard-response","87","173651","0.0-37.0-3.0","","null","<div style='margin:auto;width: auto; font-size: 150%'><span style='font-weight: bold; font-size: 100px; color: green;'>+10 points!</span><br><br></div>","null","delaylearn","learning","feedback_image_window","5d21d969adb5ab00159cd083","ws7Esl3xVLhO7RJU7oA8HlHXWpp1","","","","","","","","","","","","","","","","","","","","",""
"html-keyboard-response","88","174161","0.0-38.0-0.0","","null","","null","","","mood_trial_fixation","","","","","","","","","","","","","","","","","","","","","","",""
"lmdlab-html-vas-response","89","178419","0.0-38.0-1.0","","3246","How happy are you right now?","0.5694661140441895","delaylearn","learning","mood_trial","5d21d969adb5ab00159cd083","ws7Esl3xVLhO7RJU7oA8HlHXWpp1","","","","","","","","","","","","","","","","","","","","[""Very unhappy"",""Very happy""]",""
"html-keyboard-response","90","180931","0.0-39.0","","null","<div style=""font-size:100px;"">+</div>","null","delaylearn","learning","ITI","5d21d969adb5ab00159cd083","ws7Esl3xVLhO7RJU7oA8HlHXWpp1","","","","","","","","","","","","","","","","","","","2500","",""
"html-keyboard-response","91","182841","0.0-40.0-0.0","","1907.8999998569489","<div style=""display: flex; flex-direction: column; align-items: center; margin-top: -40px;""><img src=""images/pattern_6.png"" style=""width: 234px; height: 230px; margin-top: -50px;""><div style=""display: flex; justify-content: space-between; margin-top: 33px;""><img src=""images/choice_trial_11.png"" style=""width: 408px; height: 417px; margin-right: 200px;""><img src=""images/choice_trial_5.png"" style=""width: 408px; height: 417px;""></div></div>","j","delaylearn","learning","trial","5d21d969adb5ab00159cd083","ws7Esl3xVLhO7RJU7oA8HlHXWpp1","2","images/choice_trial_11.png","images/choice_trial_5.png","images/pattern_6.png","f","f","750","11","5","5","0","17","0","0","5","80","","","","",""
"html-keyboard-response","92","183852","0.0-40.0-1.0","","null","<div style=""display: flex; flex-direction: column; align-items: center; margin-top: -40px;""><img src=""images/pattern_6.png"" style=""width: 234px; height: 230px; margin-top: -50px;""><div style=""display: flex; justify-content: space-between; margin-top: 33px;""><img src=""images/choice_trial_5.png"" style=""width: 408px; height: 417px; margin-left:608px;""></div></div>","null","delaylearn","learning","display_response","5d21d969adb5ab00159cd083","ws7Esl3xVLhO7RJU7oA8HlHXWpp1","","","","","","","","","","","","","","","","","chosen stimuli: images/choice_trial_5.png","","","",""
"html-keyboard-response","93","184613","0.0-40.0-2.0","","null","","null","delaylearn","learning","feedback_duration_window","5d21d969adb5ab00159cd083","ws7Esl3xVLhO7RJU7oA8HlHXWpp1","","","","","","","","","","","","","","","","","","750","","",""
"html-keyboard-response","94","186116","0.0-40.0-3.0","","null","<div style='margin:auto;width: auto; font-size: 150%'><span style='font-weight: bold; font-size: 100px; color: red;'>0 points!</span><br><br></div>","null","delaylearn","learning","feedback_image_window","5d21d969adb5ab00159cd083","ws7Esl3xVLhO7RJU7oA8HlHXWpp1","","","","","","","","","","","","","","","","","","","","",""
"html-keyboard-response","95","188228","0.0-41.0","","null","<div style=""font-size:100px;"">+</div>","null","delaylearn","learning","ITI","5d21d969adb5ab00159cd083","ws7Esl3xVLhO7RJU7oA8HlHXWpp1","","","","","","","","","","","","","","","","","","","2097","",""
"html-keyboard-response","96","189610","0.0-42.0-0.0","","1380.1000001430511","<div style=""display: flex; flex-direction: column; align-items: center; margin-top: -40px;""><img src=""images/pattern_4.png"" style=""width: 234px; height: 230px; margin-top: -50px;""><div style=""display: flex; justify-content: space-between; margin-top: 33px;""><img src=""images/choice_trial_16.png"" style=""width: 408px; height: 417px; margin-right: 200px;""><img src=""images/choice_trial_4.png"" style=""width: 408px; height: 417px;""></div></div>","f","delaylearn","learning","trial","5d21d969adb5ab00159cd083","ws7Esl3xVLhO7RJU7oA8HlHXWpp1","2","images/choice_trial_16.png","images/choice_trial_4.png","images/pattern_4.png","j","j","7000","16","4","3","1","18","0","0","16","80","","","","",""
"html-keyboard-response","97","190616","0.0-42.0-1.0","","null","<div style=""display: flex; flex-direction: column; align-items: center; margin-top: -40px;""><img src=""images/pattern_4.png"" style=""width: 234px; height: 230px; margin-top: -50px;""><div style=""display: flex; justify-content: space-between; margin-top: 33px;""><img src=""images/choice_trial_16.png"" style=""width: 408px; height: 417px; margin-right: 608px;""></div></div>","null","delaylearn","learning","display_response","5d21d969adb5ab00159cd083","ws7Esl3xVLhO7RJU7oA8HlHXWpp1","","","","","","","","","","","","","","","","","chosen stimuli: images/choice_trial_16.png","","","",""
"html-keyboard-response","98","197630","0.0-42.0-2.0","","null","","null","delaylearn","learning","feedback_duration_window","5d21d969adb5ab00159cd083","ws7Esl3xVLhO7RJU7oA8HlHXWpp1","","","","","","","","","","","","","","","","","","7000","","",""
"html-keyboard-response","99","199144","0.0-42.0-3.0","","null","<div style='margin:auto;width: auto; font-size: 150%'><span style='font-weight: bold; font-size: 100px; color: red;'>0 points!</span><br><br></div>","null","delaylearn","learning","feedback_image_window","5d21d969adb5ab00159cd083","ws7Esl3xVLhO7RJU7oA8HlHXWpp1","","","","","","","","","","","","","","","","","","","","",""
"html-keyboard-response","100","201215","0.0-43.0","","null","<div style=""font-size:100px;"">+</div>","null","delaylearn","learning","ITI","5d21d969adb5ab00159cd083","ws7Esl3xVLhO7RJU7oA8HlHXWpp1","","","","","","","","","","","","","","","","","","","2065","",""
"html-keyboard-response","101","203104","0.0-44.0-0.0","","1887.8999998569489","<div style=""display: flex; flex-direction: column; align-items: center; margin-top: -40px;""><img src=""images/pattern_7.png"" style=""width: 234px; height: 230px; margin-top: -50px;""><div style=""display: flex; justify-content: space-between; margin-top: 33px;""><img src=""images/choice_trial_8.png"" style=""width: 408px; height: 417px; margin-right: 200px;""><img src=""images/choice_trial_15.png"" style=""width: 408px; height: 417px;""></div></div>","j","delaylearn","learning","trial","5d21d969adb5ab00159cd083","ws7Esl3xVLhO7RJU7oA8HlHXWpp1","2","images/choice_trial_8.png","images/choice_trial_15.png","images/pattern_7.png","j","f","750","8","15","6","0","19","0","1","15","90","","","","",""
"html-keyboard-response","102","204121","0.0-44.0-1.0","","null","<div style=""display: flex; flex-direction: column; align-items: center; margin-top: -40px;""><img src=""images/pattern_7.png"" style=""width: 234px; height: 230px; margin-top: -50px;""><div style=""display: flex; justify-content: space-between; margin-top: 33px;""><img src=""images/choice_trial_15.png"" style=""width: 408px; height: 417px; margin-left:608px;""></div></div>","null","delaylearn","learning","display_response","5d21d969adb5ab00159cd083","ws7Esl3xVLhO7RJU7oA8HlHXWpp1","","","","","","","","","","","","","","","","","chosen stimuli: images/choice_trial_15.png","","","",""
"html-keyboard-response","103","204886","0.0-44.0-2.0","","null","","null","delaylearn","learning","feedback_duration_window","5d21d969adb5ab00159cd083","ws7Esl3xVLhO7RJU7oA8HlHXWpp1","","","","","","","","","","","","","","","","","","750","","",""
"html-keyboard-response","104","206396","0.0-44.0-3.0","","null","<div style='margin:auto;width: auto; font-size: 150%'><span style='font-weight: bold; font-size: 100px; color: green;'>+10 points!</span><br><br></div>","null","delaylearn","learning","feedback_image_window","5d21d969adb5ab00159cd083","ws7Esl3xVLhO7RJU7oA8HlHXWpp1","","","","","","","","","","","","","","","","","","","","",""
"html-keyboard-response","105","208515","0.0-45.0","","null","<div style=""font-size:100px;"">+</div>","null","delaylearn","learning","ITI","5d21d969adb5ab00159cd083","ws7Esl3xVLhO7RJU7oA8HlHXWpp1","","","","","","","","","","","","","","","","","","","2111","",""
"html-keyboard-response","106","210373","0.0-46.0-0.0","","1856.2000000476837","<div style=""display: flex; flex-direction: column; align-items: center; margin-top: -40px;""><img src=""images/pattern_1.png"" style=""width: 234px; height: 230px; margin-top: -50px;""><div style=""display: flex; justify-content: space-between; margin-top: 33px;""><img src=""images/choice_trial_3.png"" style=""width: 408px; height: 417px; margin-right: 200px;""><img src=""images/choice_trial_10.png"" style=""width: 408px; height: 417px;""></div></div>","f","delaylearn","learning","trial","5d21d969adb5ab00159cd083","ws7Esl3xVLhO7RJU7oA8HlHXWpp1","2","images/choice_trial_3.png","images/choice_trial_10.png","images/pattern_1.png","f","f","7000","3","10","1","0","20","1","1","3","100","","","","",""
"html-keyboard-response","107","211380","0.0-46.0-1.0","","null","<div style=""display: flex; flex-direction: column; align-items: center; margin-top: -40px;""><img src=""images/pattern_1.png"" style=""width: 234px; height: 230px; margin-top: -50px;""><div style=""display: flex; justify-content: space-between; margin-top: 33px;""><img src=""images/choice_trial_3.png"" style=""width: 408px; height: 417px; margin-right: 608px;""></div></div>","null","delaylearn","learning","display_response","5d21d969adb5ab00159cd083","ws7Esl3xVLhO7RJU7oA8HlHXWpp1","","","","","","","","","","","","","","","","","chosen stimuli: images/choice_trial_3.png","","","",""
"html-keyboard-response","108","218391","0.0-46.0-2.0","","null","","null","delaylearn","learning","feedback_duration_window","5d21d969adb5ab00159cd083","ws7Esl3xVLhO7RJU7oA8HlHXWpp1","","","","","","","","","","","","","","","","","","7000","","",""
"html-keyboard-response","109","219900","0.0-46.0-3.0","","null","<div style='margin:auto;width: auto; font-size: 150%'><span style='font-weight: bold; font-size: 100px; color: green;'>+10 points!</span><br><br></div>","null","delaylearn","learning","feedback_image_window","5d21d969adb5ab00159cd083","ws7Esl3xVLhO7RJU7oA8HlHXWpp1","","","","","","","","","","","","","","","","","","","","",""
"html-keyboard-response","110","221468","0.0-47.0","","null","<div style=""font-size:100px;"">+</div>","null","delaylearn","learning","ITI","5d21d969adb5ab00159cd083","ws7Esl3xVLhO7RJU7oA8HlHXWpp1","","","","","","","","","","","","","","","","","","","1553","",""
"html-keyboard-response","111","223436","0.0-48.0-0.0","","1966.5999999046326","<div style=""display: flex; flex-direction: column; align-items: center; margin-top: -40px;""><img src=""images/pattern_6.png"" style=""width: 234px; height: 230px; margin-top: -50px;""><div style=""display: flex; justify-content: space-between; margin-top: 33px;""><img src=""images/choice_trial_5.png"" style=""width: 408px; height: 417px; margin-right: 200px;""><img src=""images/choice_trial_11.png"" style=""width: 408px; height: 417px;""></div></div>","j","delaylearn","learning","trial","5d21d969adb5ab00159cd083","ws7Esl3xVLhO7RJU7oA8HlHXWpp1","2","images/choice_trial_5.png","images/choice_trial_11.png","images/pattern_6.png","j","j","750","5","11","5","1","21","1","1","11","110","","","","",""
"html-keyboard-response","112","224443","0.0-48.0-1.0","","null","<div style=""display: flex; flex-direction: column; align-items: center; margin-top: -40px;""><img src=""images/pattern_6.png"" style=""width: 234px; height: 230px; margin-top: -50px;""><div style=""display: flex; justify-content: space-between; margin-top: 33px;""><img src=""images/choice_trial_11.png"" style=""width: 408px; height: 417px; margin-left:608px;""></div></div>","null","delaylearn","learning","display_response","5d21d969adb5ab00159cd083","ws7Esl3xVLhO7RJU7oA8HlHXWpp1","","","","","","","","","","","","","","","","","chosen stimuli: images/choice_trial_11.png","","","",""
"html-keyboard-response","113","225219","0.0-48.0-2.0","","null","","null","delaylearn","learning","feedback_duration_window","5d21d969adb5ab00159cd083","ws7Esl3xVLhO7RJU7oA8HlHXWpp1","","","","","","","","","","","","","","","","","","750","","",""
"html-keyboard-response","114","226724","0.0-48.0-3.0","","null","<div style='margin:auto;width: auto; font-size: 150%'><span style='font-weight: bold; font-size: 100px; color: green;'>+10 points!</span><br><br></div>","null","delaylearn","learning","feedback_image_window","5d21d969adb5ab00159cd083","ws7Esl3xVLhO7RJU7oA8HlHXWpp1","","","","","","","","","","","","","","","","","","","","",""
"html-keyboard-response","115","228308","0.0-49.0","","null","<div style=""font-size:100px;"">+</div>","null","delaylearn","learning","ITI","5d21d969adb5ab00159cd083","ws7Esl3xVLhO7RJU7oA8HlHXWpp1","","","","","","","","","","","","","","","","","","","1580","",""
"html-keyboard-response","116","230126","0.0-50.0-0.0","","1815.7999999523163","<div style=""display: flex; flex-direction: column; align-items: center; margin-top: -40px;""><img src=""images/pattern_4.png"" style=""width: 234px; height: 230px; margin-top: -50px;""><div style=""display: flex; justify-content: space-between; margin-top: 33px;""><img src=""images/choice_trial_4.png"" style=""width: 408px; height: 417px; margin-right: 200px;""><img src=""images/choice_trial_16.png"" style=""width: 408px; height: 417px;""></div></div>","f","delaylearn","learning","trial","5d21d969adb5ab00159cd083","ws7Esl3xVLhO7RJU7oA8HlHXWpp1","2","images/choice_trial_4.png","images/choice_trial_16.png","images/pattern_4.png","f","f","7000","4","16","3","0","22","1","1","4","120","","","","",""
"html-keyboard-response","117","231142","0.0-50.0-1.0","","null","<div style=""display: flex; flex-direction: column; align-items: center; margin-top: -40px;""><img src=""images/pattern_4.png"" style=""width: 234px; height: 230px; margin-top: -50px;""><div style=""display: flex; justify-content: space-between; margin-top: 33px;""><img src=""images/choice_trial_4.png"" style=""width: 408px; height: 417px; margin-right: 608px;""></div></div>","null","delaylearn","learning","display_response","5d21d969adb5ab00159cd083","ws7Esl3xVLhO7RJU7oA8HlHXWpp1","","","","","","","","","","","","","","","","","chosen stimuli: images/choice_trial_4.png","","","",""
"html-keyboard-response","118","238141","0.0-50.0-2.0","","null","","null","delaylearn","learning","feedback_duration_window","5d21d969adb5ab00159cd083","ws7Esl3xVLhO7RJU7oA8HlHXWpp1","","","","","","","","","","","","","","","","","","7000","","",""
"html-keyboard-response","119","239653","0.0-50.0-3.0","","null","<div style='margin:auto;width: auto; font-size: 150%'><span style='font-weight: bold; font-size: 100px; color: green;'>+10 points!</span><br><br></div>","null","delaylearn","learning","feedback_image_window","5d21d969adb5ab00159cd083","ws7Esl3xVLhO7RJU7oA8HlHXWpp1","","","","","","","","","","","","","","","","","","","","",""
"html-keyboard-response","120","240159","0.0-51.0-0.0","","null","","null","","","mood_trial_fixation","","","","","","","","","","","","","","","","","","","","","","",""
"lmdlab-html-vas-response","121","246164","0.0-51.0-1.0","","4992","How happy are you right now?","0.6024522251553006","delaylearn","learning","mood_trial","5d21d969adb5ab00159cd083","ws7Esl3xVLhO7RJU7oA8HlHXWpp1","","","","","","","","","","","","","","","","","","","","[""Very unhappy"",""Very happy""]",""
"html-keyboard-response","122","248289","0.0-52.0","","null","<div style=""font-size:100px;"">+</div>","null","delaylearn","learning","ITI","5d21d969adb5ab00159cd083","ws7Esl3xVLhO7RJU7oA8HlHXWpp1","","","","","","","","","","","","","","","","","","","2109","",""
"html-keyboard-response","123","250511","0.0-53.0-0.0","","2220","<div style=""display: flex; flex-direction: column; align-items: center; margin-top: -40px;""><img src=""images/pattern_7.png"" style=""width: 234px; height: 230px; margin-top: -50px;""><div style=""display: flex; justify-content: space-between; margin-top: 33px;""><img src=""images/choice_trial_15.png"" style=""width: 408px; height: 417px; margin-right: 200px;""><img src=""images/choice_trial_8.png"" style=""width: 408px; height: 417px;""></div></div>","f","delaylearn","learning","trial","5d21d969adb5ab00159cd083","ws7Esl3xVLhO7RJU7oA8HlHXWpp1","2","images/choice_trial_15.png","images/choice_trial_8.png","images/pattern_7.png","j","j","750","15","8","6","1","23","0","0","15","120","","","","",""
"html-keyboard-response","124","251519","0.0-53.0-1.0","","null","<div style=""display: flex; flex-direction: column; align-items: center; margin-top: -40px;""><img src=""images/pattern_7.png"" style=""width: 234px; height: 230px; margin-top: -50px;""><div style=""display: flex; justify-content: space-between; margin-top: 33px;""><img src=""images/choice_trial_15.png"" style=""width: 408px; height: 417px; margin-right: 608px;""></div></div>","null","delaylearn","learning","display_response","5d21d969adb5ab00159cd083","ws7Esl3xVLhO7RJU7oA8HlHXWpp1","","","","","","","","","","","","","","","","","chosen stimuli: images/choice_trial_15.png","","","",""
"html-keyboard-response","125","252285","0.0-53.0-2.0","","null","","null","delaylearn","learning","feedback_duration_window","5d21d969adb5ab00159cd083","ws7Esl3xVLhO7RJU7oA8HlHXWpp1","","","","","","","","","","","","","","","","","","750","","",""
"html-keyboard-response","126","253801","0.0-53.0-3.0","","null","<div style='margin:auto;width: auto; font-size: 150%'><span style='font-weight: bold; font-size: 100px; color: red;'>0 points!</span><br><br></div>","null","delaylearn","learning","feedback_image_window","5d21d969adb5ab00159cd083","ws7Esl3xVLhO7RJU7oA8HlHXWpp1","","","","","","","","","","","","","","","","","","","","",""
"html-keyboard-response","127","255847","0.0-54.0","","null","<div style=""font-size:100px;"">+</div>","null","delaylearn","learning","ITI","5d21d969adb5ab00159cd083","ws7Esl3xVLhO7RJU7oA8HlHXWpp1","","","","","","","","","","","","","","","","","","","2033","",""
"html-keyboard-response","128","258245","0.0-55.0-0.0","","2396.2999999523163","<div style=""display: flex; flex-direction: column; align-items: center; margin-top: -40px;""><img src=""images/pattern_1.png"" style=""width: 234px; height: 230px; margin-top: -50px;""><div style=""display: flex; justify-content: space-between; margin-top: 33px;""><img src=""images/choice_trial_10.png"" style=""width: 408px; height: 417px; margin-right: 200px;""><img src=""images/choice_trial_3.png"" style=""width: 408px; height: 417px;""></div></div>","j","delaylearn","learning","trial","5d21d969adb5ab00159cd083","ws7Esl3xVLhO7RJU7oA8HlHXWpp1","2","images/choice_trial_10.png","images/choice_trial_3.png","images/pattern_1.png","f","j","7000","10","3","1","1","24","1","0","3","120","","","","",""
"html-keyboard-response","129","259257","0.0-55.0-1.0","","null","<div style=""display: flex; flex-direction: column; align-items: center; margin-top: -40px;""><img src=""images/pattern_1.png"" style=""width: 234px; height: 230px; margin-top: -50px;""><div style=""display: flex; justify-content: space-between; margin-top: 33px;""><img src=""images/choice_trial_3.png"" style=""width: 408px; height: 417px; margin-left:608px;""></div></div>","null","delaylearn","learning","display_response","5d21d969adb5ab00159cd083","ws7Esl3xVLhO7RJU7oA8HlHXWpp1","","","","","","","","","","","","","","","","","chosen stimuli: images/choice_trial_3.png","","","",""
"html-keyboard-response","130","266264","0.0-55.0-2.0","","null","","null","delaylearn","learning","feedback_duration_window","5d21d969adb5ab00159cd083","ws7Esl3xVLhO7RJU7oA8HlHXWpp1","","","","","","","","","","","","","","","","","","7000","","",""
"html-keyboard-response","131","267766","0.0-55.0-3.0","","null","<div style='margin:auto;width: auto; font-size: 150%'><span style='font-weight: bold; font-size: 100px; color: red;'>0 points!</span><br><br></div>","null","delaylearn","learning","feedback_image_window","5d21d969adb5ab00159cd083","ws7Esl3xVLhO7RJU7oA8HlHXWpp1","","","","","","","","","","","","","","","","","","","","",""
"html-keyboard-response","132","270037","0.0-56.0","","null","<div style=""font-size:100px;"">+</div>","null","delaylearn","learning","ITI","5d21d969adb5ab00159cd083","ws7Esl3xVLhO7RJU7oA8HlHXWpp1","","","","","","","","","","","","","","","","","","","2259","",""
"html-keyboard-response","133","272750","0.0-57.0-0.0","","2710.5","<div style=""display: flex; flex-direction: column; align-items: center; margin-top: -40px;""><img src=""images/pattern_5.png"" style=""width: 234px; height: 230px; margin-top: -50px;""><div style=""display: flex; justify-content: space-between; margin-top: 33px;""><img src=""images/choice_trial_9.png"" style=""width: 408px; height: 417px; margin-right: 200px;""><img src=""images/choice_trial_2.png"" style=""width: 408px; height: 417px;""></div></div>","j","delaylearn","learning","trial","5d21d969adb5ab00159cd083","ws7Esl3xVLhO7RJU7oA8HlHXWpp1","2","images/choice_trial_9.png","images/choice_trial_2.png","images/pattern_5.png","j","j","750","9","2","4","1","25","1","1","2","130","","","","",""
"html-keyboard-response","134","273762","0.0-57.0-1.0","","null","<div style=""display: flex; flex-direction: column; align-items: center; margin-top: -40px;""><img src=""images/pattern_5.png"" style=""width: 234px; height: 230px; margin-top: -50px;""><div style=""display: flex; justify-content: space-between; margin-top: 33px;""><img src=""images/choice_trial_2.png"" style=""width: 408px; height: 417px; margin-left:608px;""></div></div>","null","delaylearn","learning","display_response","5d21d969adb5ab00159cd083","ws7Esl3xVLhO7RJU7oA8HlHXWpp1","","","","","","","","","","","","","","","","","chosen stimuli: images/choice_trial_2.png","","","",""
"html-keyboard-response","135","274519","0.0-57.0-2.0","","null","","null","delaylearn","learning","feedback_duration_window","5d21d969adb5ab00159cd083","ws7Esl3xVLhO7RJU7oA8HlHXWpp1","","","","","","","","","","","","","","","","","","750","","",""
"html-keyboard-response","136","276022","0.0-57.0-3.0","","null","<div style='margin:auto;width: auto; font-size: 150%'><span style='font-weight: bold; font-size: 100px; color: green;'>+10 points!</span><br><br></div>","null","delaylearn","learning","feedback_image_window","5d21d969adb5ab00159cd083","ws7Esl3xVLhO7RJU7oA8HlHXWpp1","","","","","","","","","","","","","","","","","","","","",""
"html-keyboard-response","137","277847","0.0-58.0","","null","<div style=""font-size:100px;"">+</div>","null","delaylearn","learning","ITI","5d21d969adb5ab00159cd083","ws7Esl3xVLhO7RJU7oA8HlHXWpp1","","","","","","","","","","","","","","","","","","","1810","",""
"html-keyboard-response","138","279693","0.0-59.0-0.0","","1845.2000000476837","<div style=""display: flex; flex-direction: column; align-items: center; margin-top: -40px;""><img src=""images/pattern_3.png"" style=""width: 234px; height: 230px; margin-top: -50px;""><div style=""display: flex; justify-content: space-between; margin-top: 33px;""><img src=""images/choice_trial_14.png"" style=""width: 408px; height: 417px; margin-right: 200px;""><img src=""images/choice_trial_12.png"" style=""width: 408px; height: 417px;""></div></div>","f","delaylearn","learning","trial","5d21d969adb5ab00159cd083","ws7Esl3xVLhO7RJU7oA8HlHXWpp1","2","images/choice_trial_14.png","images/choice_trial_12.png","images/pattern_3.png","j","j","7000","14","12","2","1","26","0","0","14","130","","","","",""
"html-keyboard-response","139","280705","0.0-59.0-1.0","","null","<div style=""display: flex; flex-direction: column; align-items: center; margin-top: -40px;""><img src=""images/pattern_3.png"" style=""width: 234px; height: 230px; margin-top: -50px;""><div style=""display: flex; justify-content: space-between; margin-top: 33px;""><img src=""images/choice_trial_14.png"" style=""width: 408px; height: 417px; margin-right: 608px;""></div></div>","null","delaylearn","learning","display_response","5d21d969adb5ab00159cd083","ws7Esl3xVLhO7RJU7oA8HlHXWpp1","","","","","","","","","","","","","","","","","chosen stimuli: images/choice_trial_14.png","","","",""
"html-keyboard-response","140","287718","0.0-59.0-2.0","","null","","null","delaylearn","learning","feedback_duration_window","5d21d969adb5ab00159cd083","ws7Esl3xVLhO7RJU7oA8HlHXWpp1","","","","","","","","","","","","","","","","","","7000","","",""
"html-keyboard-response","141","289228","0.0-59.0-3.0","","null","<div style='margin:auto;width: auto; font-size: 150%'><span style='font-weight: bold; font-size: 100px; color: red;'>0 points!</span><br><br></div>","null","delaylearn","learning","feedback_image_window","5d21d969adb5ab00159cd083","ws7Esl3xVLhO7RJU7oA8HlHXWpp1","","","","","","","","","","","","","","","","","","","","",""
"lmdlab-html-vas-response","142","296542","0.0-60.0-0.0","","5802","*How <b><u>confident</u></b> are you feeling about your answers at this moment?*","0.2708333333333333","rewlearn","rate_confidence","","5d21d969adb5ab00159cd083","ws7Esl3xVLhO7RJU7oA8HlHXWpp1","","","","","","","","","","","","","","","","","","","","[""No confidence"",""Complete confidence""]",""
"lmdlab-rest-trial-limit","143","303045","0.0-60.0-1.0","","4990.599999904633","<div style=""font-size:40px;""><b>Please take a break!</b><br><br><br><br><p>Great work: you earned 130 points.<br><br><br><p>You have completed part(s) 1 of 5.<br><br><br><br>When you are ready to continue<br><br><br>please click the button.</p><br><br>","0","delaylearn","learning","break","5d21d969adb5ab00159cd083","ws7Esl3xVLhO7RJU7oA8HlHXWpp1","","","","","","","","","","","","","","","","","","","","","0"
"html-keyboard-response","144","306059","0.0-60.0-2.0","","null","<div style=""font-size:100px;"">+</div>","null","delaylearn","learning","pre_fixation","5d21d969adb5ab00159cd083","","","","","","","","","","","","","","","","","","","","","",""
"lmdlab-html-vas-response","145","310364","0.0-60.0-3.0-0.0","","3291","How happy are you right now?","0.5069661140441895","delaylearn","learning","mood_baseline","5d21d969adb5ab00159cd083","ws7Esl3xVLhO7RJU7oA8HlHXWpp1","","","","","","","","","","","","","","","","","","","","[""Very unhappy"",""Very happy""]",""
"html-keyboard-response","146","311874","0.0-60.0-3.0-1.0","","null","","null","","","mood_baseline_fixation","","","","","","","","","","","","","","","","","","","","","","",""
"html-keyboard-response","147","313817","0.0-61.0","","null","<div style=""font-size:100px;"">+</div>","null","delaylearn","learning","ITI","5d21d969adb5ab00159cd083","ws7Esl3xVLhO7RJU7oA8HlHXWpp1","","","","","","","","","","","","","","","","","","","1935","",""
"html-keyboard-response","148","315686","0.0-62.0-0.0","","1866.7000000476837","<div style=""display: flex; flex-direction: column; align-items: center; margin-top: -40px;""><img src=""images/pattern_7.png"" style=""width: 234px; height: 230px; margin-top: -50px;""><div style=""display: flex; justify-content: space-between; margin-top: 33px;""><img src=""images/choice_trial_15.png"" style=""width: 408px; height: 417px; margin-right: 200px;""><img src=""images/choice_trial_8.png"" style=""width: 408px; height: 417px;""></div></div>","j","delaylearn","learning","trial","5d21d969adb5ab00159cd083","ws7Esl3xVLhO7RJU7oA8HlHXWpp1","2","images/choice_trial_15.png","images/choice_trial_8.png","images/pattern_7.png","j","j","750","15","8","6","1","27","1","1","8","140","","","","",""
"html-keyboard-response","149","316693","0.0-62.0-1.0","","null","<div style=""display: flex; flex-direction: column; align-items: center; margin-top: -40px;""><img src=""images/pattern_7.png"" style=""width: 234px; height: 230px; margin-top: -50px;""><div style=""display: flex; justify-content: space-between; margin-top: 33px;""><img src=""images/choice_trial_8.png"" style=""width: 408px; height: 417px; margin-left:608px;""></div></div>","null","delaylearn","learning","display_response","5d21d969adb5ab00159cd083","ws7Esl3xVLhO7RJU7oA8HlHXWpp1","","","","","","","","","","","","","","","","","chosen stimuli: images/choice_trial_8.png","","","",""
"html-keyboard-response","150","317449","0.0-62.0-2.0","","null","","null","delaylearn","learning","feedback_duration_window","5d21d969adb5ab00159cd083","ws7Esl3xVLhO7RJU7oA8HlHXWpp1","","","","","","","","","","","","","","","","","","750","","",""
"html-keyboard-response","151","318954","0.0-62.0-3.0","","null","<div style='margin:auto;width: auto; font-size: 150%'><span style='font-weight: bold; font-size: 100px; color: green;'>+10 points!</span><br><br></div>","null","delaylearn","learning","feedback_image_window","5d21d969adb5ab00159cd083","ws7Esl3xVLhO7RJU7oA8HlHXWpp1","","","","","","","","","","","","","","","","","","","","",""
"html-keyboard-response","152","319458","0.0-63.0-0.0","","null","","null","","","mood_trial_fixation","","","","","","","","","","","","","","","","","","","","","","",""
"lmdlab-html-vas-response","153","332727","0.0-63.0-1.0","","12252","How happy are you right now?","0.5364800029330783","delaylearn","learning","mood_trial","5d21d969adb5ab00159cd083","ws7Esl3xVLhO7RJU7oA8HlHXWpp1","","","","","","","","","","","","","","","","","","","","[""Very unhappy"",""Very happy""]",""
"html-keyboard-response","154","334419","0.0-64.0","","null","<div style=""font-size:100px;"">+</div>","null","delaylearn","learning","ITI","5d21d969adb5ab00159cd083","ws7Esl3xVLhO7RJU7oA8HlHXWpp1","","","","","","","","","","","","","","","","","","","1685","",""
"html-keyboard-response","155","336641","0.0-65.0-0.0","","2220.5","<div style=""display: flex; flex-direction: column; align-items: center; margin-top: -40px;""><img src=""images/pattern_1.png"" style=""width: 234px; height: 230px; margin-top: -50px;""><div style=""display: flex; justify-content: space-between; margin-top: 33px;""><img src=""images/choice_trial_3.png"" style=""width: 408px; height: 417px; margin-right: 200px;""><img src=""images/choice_trial_10.png"" style=""width: 408px; height: 417px;""></div></div>","f","delaylearn","learning","trial","5d21d969adb5ab00159cd083","ws7Esl3xVLhO7RJU7oA8HlHXWpp1","2","images/choice_trial_3.png","images/choice_trial_10.png","images/pattern_1.png","f","f","7000","3","10","1","0","28","1","1","3","150","","","","",""
"html-keyboard-response","156","337642","0.0-65.0-1.0","","null","<div style=""display: flex; flex-direction: column; align-items: center; margin-top: -40px;""><img src=""images/pattern_1.png"" style=""width: 234px; height: 230px; margin-top: -50px;""><div style=""display: flex; justify-content: space-between; margin-top: 33px;""><img src=""images/choice_trial_3.png"" style=""width: 408px; height: 417px; margin-right: 608px;""></div></div>","null","delaylearn","learning","display_response","5d21d969adb5ab00159cd083","ws7Esl3xVLhO7RJU7oA8HlHXWpp1","","","","","","","","","","","","","","","","","chosen stimuli: images/choice_trial_3.png","","","",""
"html-keyboard-response","157","344651","0.0-65.0-2.0","","null","","null","delaylearn","learning","feedback_duration_window","5d21d969adb5ab00159cd083","ws7Esl3xVLhO7RJU7oA8HlHXWpp1","","","","","","","","","","","","","","","","","","7000","","",""
"html-keyboard-response","158","346155","0.0-65.0-3.0","","null","<div style='margin:auto;width: auto; font-size: 150%'><span style='font-weight: bold; font-size: 100px; color: green;'>+10 points!</span><br><br></div>","null","delaylearn","learning","feedback_image_window","5d21d969adb5ab00159cd083","ws7Esl3xVLhO7RJU7oA8HlHXWpp1","","","","","","","","","","","","","","","","","","","","",""
"html-keyboard-response","159","348001","0.0-66.0","","null","<div style=""font-size:100px;"">+</div>","null","delaylearn","learning","ITI","5d21d969adb5ab00159cd083","ws7Esl3xVLhO7RJU7oA8HlHXWpp1","","","","","","","","","","","","","","","","","","","1839","",""
"html-keyboard-response","160","349855","0.0-67.0-0.0","","1851.7999999523163","<div style=""display: flex; flex-direction: column; align-items: center; margin-top: -40px;""><img src=""images/pattern_5.png"" style=""width: 234px; height: 230px; margin-top: -50px;""><div style=""display: flex; justify-content: space-between; margin-top: 33px;""><img src=""images/choice_trial_2.png"" style=""width: 408px; height: 417px; margin-right: 200px;""><img src=""images/choice_trial_9.png"" style=""width: 408px; height: 417px;""></div></div>","f","delaylearn","learning","trial","5d21d969adb5ab00159cd083","ws7Esl3xVLhO7RJU7oA8HlHXWpp1","2","images/choice_trial_2.png","images/choice_trial_9.png","images/pattern_5.png","f","f","750","2","9","4","0","29","1","1","2","160","","","","",""
"html-keyboard-response","161","350869","0.0-67.0-1.0","","null","<div style=""display: flex; flex-direction: column; align-items: center; margin-top: -40px;""><img src=""images/pattern_5.png"" style=""width: 234px; height: 230px; margin-top: -50px;""><div style=""display: flex; justify-content: space-between; margin-top: 33px;""><img src=""images/choice_trial_2.png"" style=""width: 408px; height: 417px; margin-right: 608px;""></div></div>","null","delaylearn","learning","display_response","5d21d969adb5ab00159cd083","ws7Esl3xVLhO7RJU7oA8HlHXWpp1","","","","","","","","","","","","","","","","","chosen stimuli: images/choice_trial_2.png","","","",""
"html-keyboard-response","162","351625","0.0-67.0-2.0","","null","","null","delaylearn","learning","feedback_duration_window","5d21d969adb5ab00159cd083","ws7Esl3xVLhO7RJU7oA8HlHXWpp1","","","","","","","","","","","","","","","","","","750","","",""
"html-keyboard-response","163","353129","0.0-67.0-3.0","","null","<div style='margin:auto;width: auto; font-size: 150%'><span style='font-weight: bold; font-size: 100px; color: green;'>+10 points!</span><br><br></div>","null","delaylearn","learning","feedback_image_window","5d21d969adb5ab00159cd083","ws7Esl3xVLhO7RJU7oA8HlHXWpp1","","","","","","","","","","","","","","","","","","","","",""
"html-keyboard-response","164","354805","0.0-68.0","","null","<div style=""font-size:100px;"">+</div>","null","delaylearn","learning","ITI","5d21d969adb5ab00159cd083","ws7Esl3xVLhO7RJU7oA8HlHXWpp1","","","","","","","","","","","","","","","","","","","1667","",""
"html-keyboard-response","165","356884","0.0-69.0-0.0","","2076.7000000476837","<div style=""display: flex; flex-direction: column; align-items: center; margin-top: -40px;""><img src=""images/pattern_6.png"" style=""width: 234px; height: 230px; margin-top: -50px;""><div style=""display: flex; justify-content: space-between; margin-top: 33px;""><img src=""images/choice_trial_5.png"" style=""width: 408px; height: 417px; margin-right: 200px;""><img src=""images/choice_trial_11.png"" style=""width: 408px; height: 417px;""></div></div>","j","delaylearn","learning","trial","5d21d969adb5ab00159cd083","ws7Esl3xVLhO7RJU7oA8HlHXWpp1","2","images/choice_trial_5.png","images/choice_trial_11.png","images/pattern_6.png","j","j","750","5","11","5","1","30","1","1","11","170","","","","",""
"html-keyboard-response","166","357891","0.0-69.0-1.0","","null","<div style=""display: flex; flex-direction: column; align-items: center; margin-top: -40px;""><img src=""images/pattern_6.png"" style=""width: 234px; height: 230px; margin-top: -50px;""><div style=""display: flex; justify-content: space-between; margin-top: 33px;""><img src=""images/choice_trial_11.png"" style=""width: 408px; height: 417px; margin-left:608px;""></div></div>","null","delaylearn","learning","display_response","5d21d969adb5ab00159cd083","ws7Esl3xVLhO7RJU7oA8HlHXWpp1","","","","","","","","","","","","","","","","","chosen stimuli: images/choice_trial_11.png","","","",""
"html-keyboard-response","167","358652","0.0-69.0-2.0","","null","","null","delaylearn","learning","feedback_duration_window","5d21d969adb5ab00159cd083","ws7Esl3xVLhO7RJU7oA8HlHXWpp1","","","","","","","","","","","","","","","","","","750","","",""
"html-keyboard-response","168","360164","0.0-69.0-3.0","","null","<div style='margin:auto;width: auto; font-size: 150%'><span style='font-weight: bold; font-size: 100px; color: green;'>+10 points!</span><br><br></div>","null","delaylearn","learning","feedback_image_window","5d21d969adb5ab00159cd083","ws7Esl3xVLhO7RJU7oA8HlHXWpp1","","","","","","","","","","","","","","","","","","","","",""
"html-keyboard-response","169","360672","0.0-70.0-0.0","","null","","null","","","mood_trial_fixation","","","","","","","","","","","","","","","","","","","","","","",""
"lmdlab-html-vas-response","170","364274","0.0-70.0-1.0","","2583","How happy are you right now?","0.5920355584886339","delaylearn","learning","mood_trial","5d21d969adb5ab00159cd083","ws7Esl3xVLhO7RJU7oA8HlHXWpp1","","","","","","","","","","","","","","","","","","","","[""Very unhappy"",""Very happy""]",""
"html-keyboard-response","171","366227","0.0-71.0","","null","<div style=""font-size:100px;"">+</div>","null","delaylearn","learning","ITI","5d21d969adb5ab00159cd083","ws7Esl3xVLhO7RJU7oA8HlHXWpp1","","","","","","","","","","","","","","","","","","","1941","",""
"html-keyboard-response","172","368223","0.0-72.0-0.0","","1994.5","<div style=""display: flex; flex-direction: column; align-items: center; margin-top: -40px;""><img src=""images/pattern_4.png"" style=""width: 234px; height: 230px; margin-top: -50px;""><div style=""display: flex; justify-content: space-between; margin-top: 33px;""><img src=""images/choice_trial_16.png"" style=""width: 408px; height: 417px; margin-right: 200px;""><img src=""images/choice_trial_4.png"" style=""width: 408px; height: 417px;""></div></div>","f","delaylearn","learning","trial","5d21d969adb5ab00159cd083","ws7Esl3xVLhO7RJU7oA8HlHXWpp1","2","images/choice_trial_16.png","images/choice_trial_4.png","images/pattern_4.png","j","j","7000","16","4","3","1","31","0","0","16","170","","","","",""
"html-keyboard-response","173","369226","0.0-72.0-1.0","","null","<div style=""display: flex; flex-direction: column; align-items: center; margin-top: -40px;""><img src=""images/pattern_4.png"" style=""width: 234px; height: 230px; margin-top: -50px;""><div style=""display: flex; justify-content: space-between; margin-top: 33px;""><img src=""images/choice_trial_16.png"" style=""width: 408px; height: 417px; margin-right: 608px;""></div></div>","null","delaylearn","learning","display_response","5d21d969adb5ab00159cd083","ws7Esl3xVLhO7RJU7oA8HlHXWpp1","","","","","","","","","","","","","","","","","chosen stimuli: images/choice_trial_16.png","","","",""
"html-keyboard-response","174","376243","0.0-72.0-2.0","","null","","null","delaylearn","learning","feedback_duration_window","5d21d969adb5ab00159cd083","ws7Esl3xVLhO7RJU7oA8HlHXWpp1","","","","","","","","","","","","","","","","","","7000","","",""
"html-keyboard-response","175","377748","0.0-72.0-3.0","","null","<div style='margin:auto;width: auto; font-size: 150%'><span style='font-weight: bold; font-size: 100px; color: red;'>0 points!</span><br><br></div>","null","delaylearn","learning","feedback_image_window","5d21d969adb5ab00159cd083","ws7Esl3xVLhO7RJU7oA8HlHXWpp1","","","","","","","","","","","","","","","","","","","","",""
"html-keyboard-response","176","379295","0.0-73.0","","null","<div style=""font-size:100px;"">+</div>","null","delaylearn","learning","ITI","5d21d969adb5ab00159cd083","ws7Esl3xVLhO7RJU7oA8HlHXWpp1","","","","","","","","","","","","","","","","","","","1545","",""
"html-keyboard-response","177","380840","0.0-74.0-0.0","","1543.3000001907349","<div style=""display: flex; flex-direction: column; align-items: center; margin-top: -40px;""><img src=""images/pattern_3.png"" style=""width: 234px; height: 230px; margin-top: -50px;""><div style=""display: flex; justify-content: space-between; margin-top: 33px;""><img src=""images/choice_trial_14.png"" style=""width: 408px; height: 417px; margin-right: 200px;""><img src=""images/choice_trial_12.png"" style=""width: 408px; height: 417px;""></div></div>","f","delaylearn","learning","trial","5d21d969adb5ab00159cd083","ws7Esl3xVLhO7RJU7oA8HlHXWpp1","2","images/choice_trial_14.png","images/choice_trial_12.png","images/pattern_3.png","j","j","7000","14","12","2","1","32","0","0","14","170","","","","",""
"html-keyboard-response","178","381855","0.0-74.0-1.0","","null","<div style=""display: flex; flex-direction: column; align-items: center; margin-top: -40px;""><img src=""images/pattern_3.png"" style=""width: 234px; height: 230px; margin-top: -50px;""><div style=""display: flex; justify-content: space-between; margin-top: 33px;""><img src=""images/choice_trial_14.png"" style=""width: 408px; height: 417px; margin-right: 608px;""></div></div>","null","delaylearn","learning","display_response","5d21d969adb5ab00159cd083","ws7Esl3xVLhO7RJU7oA8HlHXWpp1","","","","","","","","","","","","","","","","","chosen stimuli: images/choice_trial_14.png","","","",""
"html-keyboard-response","179","388860","0.0-74.0-2.0","","null","","null","delaylearn","learning","feedback_duration_window","5d21d969adb5ab00159cd083","ws7Esl3xVLhO7RJU7oA8HlHXWpp1","","","","","","","","","","","","","","","","","","7000","","",""
"html-keyboard-response","180","390374","0.0-74.0-3.0","","null","<div style='margin:auto;width: auto; font-size: 150%'><span style='font-weight: bold; font-size: 100px; color: red;'>0 points!</span><br><br></div>","null","delaylearn","learning","feedback_image_window","5d21d969adb5ab00159cd083","ws7Esl3xVLhO7RJU7oA8HlHXWpp1","","","","","","","","","","","","","","","","","","","","",""
"html-keyboard-response","181","392680","0.0-75.0","","null","<div style=""font-size:100px;"">+</div>","null","delaylearn","learning","ITI","5d21d969adb5ab00159cd083","ws7Esl3xVLhO7RJU7oA8HlHXWpp1","","","","","","","","","","","","","","","","","","","2294","",""
"html-keyboard-response","182","394900","0.0-76.0-0.0","","2218","<div style=""display: flex; flex-direction: column; align-items: center; margin-top: -40px;""><img src=""images/pattern_5.png"" style=""width: 234px; height: 230px; margin-top: -50px;""><div style=""display: flex; justify-content: space-between; margin-top: 33px;""><img src=""images/choice_trial_2.png"" style=""width: 408px; height: 417px; margin-right: 200px;""><img src=""images/choice_trial_9.png"" style=""width: 408px; height: 417px;""></div></div>","f","delaylearn","learning","trial","5d21d969adb5ab00159cd083","ws7Esl3xVLhO7RJU7oA8HlHXWpp1","2","images/choice_trial_2.png","images/choice_trial_9.png","images/pattern_5.png","j","f","750","2","9","4","0","33","1","0","2","170","","","","",""
"html-keyboard-response","183","395908","0.0-76.0-1.0","","null","<div style=""display: flex; flex-direction: column; align-items: center; margin-top: -40px;""><img src=""images/pattern_5.png"" style=""width: 234px; height: 230px; margin-top: -50px;""><div style=""display: flex; justify-content: space-between; margin-top: 33px;""><img src=""images/choice_trial_2.png"" style=""width: 408px; height: 417px; margin-right: 608px;""></div></div>","null","delaylearn","learning","display_response","5d21d969adb5ab00159cd083","ws7Esl3xVLhO7RJU7oA8HlHXWpp1","","","","","","","","","","","","","","","","","chosen stimuli: images/choice_trial_2.png","","","",""
"html-keyboard-response","184","396660","0.0-76.0-2.0","","null","","null","delaylearn","learning","feedback_duration_window","5d21d969adb5ab00159cd083","ws7Esl3xVLhO7RJU7oA8HlHXWpp1","","","","","","","","","","","","","","","","","","750","","",""
"html-keyboard-response","185","398168","0.0-76.0-3.0","","null","<div style='margin:auto;width: auto; font-size: 150%'><span style='font-weight: bold; font-size: 100px; color: red;'>0 points!</span><br><br></div>","null","delaylearn","learning","feedback_image_window","5d21d969adb5ab00159cd083","ws7Esl3xVLhO7RJU7oA8HlHXWpp1","","","","","","","","","","","","","","","","","","","","",""
"html-keyboard-response","186","399858","0.0-77.0","","null","<div style=""font-size:100px;"">+</div>","null","delaylearn","learning","ITI","5d21d969adb5ab00159cd083","ws7Esl3xVLhO7RJU7oA8HlHXWpp1","","","","","","","","","","","","","","","","","","","1676","",""
"html-keyboard-response","187","402870","0.0-78.0-0.0","","null","<div style=""display: flex; flex-direction: column; align-items: center; margin-top: -40px;""><img src=""images/pattern_1.png"" style=""width: 234px; height: 230px; margin-top: -50px;""><div style=""display: flex; justify-content: space-between; margin-top: 33px;""><img src=""images/choice_trial_3.png"" style=""width: 408px; height: 417px; margin-right: 200px;""><img src=""images/choice_trial_10.png"" style=""width: 408px; height: 417px;""></div></div>","null","delaylearn","learning","trial","5d21d969adb5ab00159cd083","ws7Esl3xVLhO7RJU7oA8HlHXWpp1","2","images/choice_trial_3.png","images/choice_trial_10.png","images/pattern_1.png","f","f","7000","3","10","1","0","34","0","0","0","170","","","","",""
"html-keyboard-response","188","403882","0.0-78.0-1.0","","null","<div style='font-weight: bold; font-size: 75px; color: red;'>Missed Trial <br><br><br><br> Please respond faster</div>","null","delaylearn","learning","display_response","5d21d969adb5ab00159cd083","ws7Esl3xVLhO7RJU7oA8HlHXWpp1","","","","","","","","","","","","","","","","","Missed trial","","","",""
"html-keyboard-response","189","403896","0.0-78.0-2.0","","null","","null","delaylearn","learning","feedback_duration_window","5d21d969adb5ab00159cd083","ws7Esl3xVLhO7RJU7oA8HlHXWpp1","","","","","","","","","","","","","","","","","","0","","",""
"html-keyboard-response","190","403902","0.0-78.0-3.0","","null","","null","delaylearn","learning","feedback_image_window","5d21d969adb5ab00159cd083","ws7Esl3xVLhO7RJU7oA8HlHXWpp1","","","","","","","","","","","","","","","","","","","","",""
"html-keyboard-response","191","404413","0.0-79.0-0.0","","null","","null","","","mood_trial_fixation","","","","","","","","","","","","","","","","","","","","","","",""
"lmdlab-html-vas-response","192","408223","0.0-79.0-1.0","","2802","How happy are you right now?","0.38023000293307835","delaylearn","learning","mood_trial","5d21d969adb5ab00159cd083","ws7Esl3xVLhO7RJU7oA8HlHXWpp1","","","","","","","","","","","","","","","","","","","","[""Very unhappy"",""Very happy""]",""
"html-keyboard-response","193","410029","0.0-80.0","","null","<div style=""font-size:100px;"">+</div>","null","delaylearn","learning","ITI","5d21d969adb5ab00159cd083","ws7Esl3xVLhO7RJU7oA8HlHXWpp1","","","","","","","","","","","","","","","","","","","1800","",""
"html-keyboard-response","194","411214","0.0-81.0-0.0","","1182","<div style=""display: flex; flex-direction: column; align-items: center; margin-top: -40px;""><img src=""images/pattern_6.png"" style=""width: 234px; height: 230px; margin-top: -50px;""><div style=""display: flex; justify-content: space-between; margin-top: 33px;""><img src=""images/choice_trial_11.png"" style=""width: 408px; height: 417px; margin-right: 200px;""><img src=""images/choice_trial_5.png"" style=""width: 408px; height: 417px;""></div></div>","f","delaylearn","learning","trial","5d21d969adb5ab00159cd083","ws7Esl3xVLhO7RJU7oA8HlHXWpp1","2","images/choice_trial_11.png","images/choice_trial_5.png","images/pattern_6.png","j","f","750","11","5","5","0","35","1","0","11","170","","","","",""
"html-keyboard-response","195","412227","0.0-81.0-1.0","","null","<div style=""display: flex; flex-direction: column; align-items: center; margin-top: -40px;""><img src=""images/pattern_6.png"" style=""width: 234px; height: 230px; margin-top: -50px;""><div style=""display: flex; justify-content: space-between; margin-top: 33px;""><img src=""images/choice_trial_11.png"" style=""width: 408px; height: 417px; margin-right: 608px;""></div></div>","null","delaylearn","learning","display_response","5d21d969adb5ab00159cd083","ws7Esl3xVLhO7RJU7oA8HlHXWpp1","","","","","","","","","","","","","","","","","chosen stimuli: images/choice_trial_11.png","","","",""
"html-keyboard-response","196","412991","0.0-81.0-2.0","","null","","null","delaylearn","learning","feedback_duration_window","5d21d969adb5ab00159cd083","ws7Esl3xVLhO7RJU7oA8HlHXWpp1","","","","","","","","","","","","","","","","","","750","","",""
"html-keyboard-response","197","414495","0.0-81.0-3.0","","null","<div style='margin:auto;width: auto; font-size: 150%'><span style='font-weight: bold; font-size: 100px; color: red;'>0 points!</span><br><br></div>","null","delaylearn","learning","feedback_image_window","5d21d969adb5ab00159cd083","ws7Esl3xVLhO7RJU7oA8HlHXWpp1","","","","","","","","","","","","","","","","","","","","",""
"html-keyboard-response","198","416566","0.0-82.0","","null","<div style=""font-size:100px;"">+</div>","null","delaylearn","learning","ITI","5d21d969adb5ab00159cd083","ws7Esl3xVLhO7RJU7oA8HlHXWpp1","","","","","","","","","","","","","","","","","","","2059","",""
"html-keyboard-response","199","419268","0.0-83.0-0.0","","2699.7000000476837","<div style=""display: flex; flex-direction: column; align-items: center; margin-top: -40px;""><img src=""images/pattern_3.png"" style=""width: 234px; height: 230px; margin-top: -50px;""><div style=""display: flex; justify-content: space-between; margin-top: 33px;""><img src=""images/choice_trial_14.png"" style=""width: 408px; height: 417px; margin-right: 200px;""><img src=""images/choice_trial_12.png"" style=""width: 408px; height: 417px;""></div></div>","j","delaylearn","learning","trial","5d21d969adb5ab00159cd083","ws7Esl3xVLhO7RJU7oA8HlHXWpp1","2","images/choice_trial_14.png","images/choice_trial_12.png","images/pattern_3.png","j","j","7000","14","12","2","1","36","1","1","12","180","","","","",""
"html-keyboard-response","200","420279","0.0-83.0-1.0","","null","<div style=""display: flex; flex-direction: column; align-items: center; margin-top: -40px;""><img src=""images/pattern_3.png"" style=""width: 234px; height: 230px; margin-top: -50px;""><div style=""display: flex; justify-content: space-between; margin-top: 33px;""><img src=""images/choice_trial_12.png"" style=""width: 408px; height: 417px; margin-left:608px;""></div></div>","null","delaylearn","learning","display_response","5d21d969adb5ab00159cd083","ws7Esl3xVLhO7RJU7oA8HlHXWpp1","","","","","","","","","","","","","","","","","chosen stimuli: images/choice_trial_12.png","","","",""
"html-keyboard-response","201","427281","0.0-83.0-2.0","","null","","null","delaylearn","learning","feedback_duration_window","5d21d969adb5ab00159cd083","ws7Esl3xVLhO7RJU7oA8HlHXWpp1","","","","","","","","","","","","","","","","","","7000","","",""
"html-keyboard-response","202","428792","0.0-83.0-3.0","","null","<div style='margin:auto;width: auto; font-size: 150%'><span style='font-weight: bold; font-size: 100px; color: green;'>+10 points!</span><br><br></div>","null","delaylearn","learning","feedback_image_window","5d21d969adb5ab00159cd083","ws7Esl3xVLhO7RJU7oA8HlHXWpp1","","","","","","","","","","","","","","","","","","","","",""
"html-keyboard-response","203","430853","0.0-84.0","","null","<div style=""font-size:100px;"">+</div>","null","delaylearn","learning","ITI","5d21d969adb5ab00159cd083","ws7Esl3xVLhO7RJU7oA8HlHXWpp1","","","","","","","","","","","","","","","","","","","2060","",""
"html-keyboard-response","204","433037","0.0-85.0-0.0","","2182.600000143051","<div style=""display: flex; flex-direction: column; align-items: center; margin-top: -40px;""><img src=""images/pattern_4.png"" style=""width: 234px; height: 230px; margin-top: -50px;""><div style=""display: flex; justify-content: space-between; margin-top: 33px;""><img src=""images/choice_trial_16.png"" style=""width: 408px; height: 417px; margin-right: 200px;""><img src=""images/choice_trial_4.png"" style=""width: 408px; height: 417px;""></div></div>","j","delaylearn","learning","trial","5d21d969adb5ab00159cd083","ws7Esl3xVLhO7RJU7oA8HlHXWpp1","2","images/choice_trial_16.png","images/choice_trial_4.png","images/pattern_4.png","f","j","7000","16","4","3","1","37","1","0","4","180","","","","",""
"html-keyboard-response","205","434039","0.0-85.0-1.0","","null","<div style=""display: flex; flex-direction: column; align-items: center; margin-top: -40px;""><img src=""images/pattern_4.png"" style=""width: 234px; height: 230px; margin-top: -50px;""><div style=""display: flex; justify-content: space-between; margin-top: 33px;""><img src=""images/choice_trial_4.png"" style=""width: 408px; height: 417px; margin-left:608px;""></div></div>","null","delaylearn","learning","display_response","5d21d969adb5ab00159cd083","ws7Esl3xVLhO7RJU7oA8HlHXWpp1","","","","","","","","","","","","","","","","","chosen stimuli: images/choice_trial_4.png","","","",""
"html-keyboard-response","206","441054","0.0-85.0-2.0","","null","","null","delaylearn","learning","feedback_duration_window","5d21d969adb5ab00159cd083","ws7Esl3xVLhO7RJU7oA8HlHXWpp1","","","","","","","","","","","","","","","","","","7000","","",""
"html-keyboard-response","207","442559","0.0-85.0-3.0","","null","<div style='margin:auto;width: auto; font-size: 150%'><span style='font-weight: bold; font-size: 100px; color: red;'>0 points!</span><br><br></div>","null","delaylearn","learning","feedback_image_window","5d21d969adb5ab00159cd083","ws7Esl3xVLhO7RJU7oA8HlHXWpp1","","","","","","","","","","","","","","","","","","","","",""
"html-keyboard-response","208","444928","0.0-86.0","","null","<div style=""font-size:100px;"">+</div>","null","delaylearn","learning","ITI","5d21d969adb5ab00159cd083","ws7Esl3xVLhO7RJU7oA8HlHXWpp1","","","","","","","","","","","","","","","","","","","2358","",""
"html-keyboard-response","209","447539","0.0-87.0-0.0","","2608.899999856949","<div style=""display: flex; flex-direction: column; align-items: center; margin-top: -40px;""><img src=""images/pattern_7.png"" style=""width: 234px; height: 230px; margin-top: -50px;""><div style=""display: flex; justify-content: space-between; margin-top: 33px;""><img src=""images/choice_trial_8.png"" style=""width: 408px; height: 417px; margin-right: 200px;""><img src=""images/choice_trial_15.png"" style=""width: 408px; height: 417px;""></div></div>","f","delaylearn","learning","trial","5d21d969adb5ab00159cd083","ws7Esl3xVLhO7RJU7oA8HlHXWpp1","2","images/choice_trial_8.png","images/choice_trial_15.png","images/pattern_7.png","f","f","750","8","15","6","0","38","1","1","8","190","","","","",""
"html-keyboard-response","210","448547","0.0-87.0-1.0","","null","<div style=""display: flex; flex-direction: column; align-items: center; margin-top: -40px;""><img src=""images/pattern_7.png"" style=""width: 234px; height: 230px; margin-top: -50px;""><div style=""display: flex; justify-content: space-between; margin-top: 33px;""><img src=""images/choice_trial_8.png"" style=""width: 408px; height: 417px; margin-right: 608px;""></div></div>","null","delaylearn","learning","display_response","5d21d969adb5ab00159cd083","ws7Esl3xVLhO7RJU7oA8HlHXWpp1","","","","","","","","","","","","","","","","","chosen stimuli: images/choice_trial_8.png","","","",""
"html-keyboard-response","211","449298","0.0-87.0-2.0","","null","","null","delaylearn","learning","feedback_duration_window","5d21d969adb5ab00159cd083","ws7Esl3xVLhO7RJU7oA8HlHXWpp1","","","","","","","","","","","","","","","","","","750","","",""
"html-keyboard-response","212","450811","0.0-87.0-3.0","","null","<div style='margin:auto;width: auto; font-size: 150%'><span style='font-weight: bold; font-size: 100px; color: green;'>+10 points!</span><br><br></div>","null","delaylearn","learning","feedback_image_window","5d21d969adb5ab00159cd083","ws7Esl3xVLhO7RJU7oA8HlHXWpp1","","","","","","","","","","","","","","","","","","","","",""
"html-keyboard-response","213","452668","0.0-88.0","","null","<div style=""font-size:100px;"">+</div>","null","delaylearn","learning","ITI","5d21d969adb5ab00159cd083","ws7Esl3xVLhO7RJU7oA8HlHXWpp1","","","","","","","","","","","","","","","","","","","1846","",""
"html-keyboard-response","214","455306","0.0-89.0-0.0","","2636.2000000476837","<div style=""display: flex; flex-direction: column; align-items: center; margin-top: -40px;""><img src=""images/pattern_1.png"" style=""width: 234px; height: 230px; margin-top: -50px;""><div style=""display: flex; justify-content: space-between; margin-top: 33px;""><img src=""images/choice_trial_3.png"" style=""width: 408px; height: 417px; margin-right: 200px;""><img src=""images/choice_trial_10.png"" style=""width: 408px; height: 417px;""></div></div>","f","delaylearn","learning","trial","5d21d969adb5ab00159cd083","ws7Esl3xVLhO7RJU7oA8HlHXWpp1","2","images/choice_trial_3.png","images/choice_trial_10.png","images/pattern_1.png","f","f","7000","3","10","1","0","39","1","1","3","200","","","","",""
"html-keyboard-response","215","456309","0.0-89.0-1.0","","null","<div style=""display: flex; flex-direction: column; align-items: center; margin-top: -40px;""><img src=""images/pattern_1.png"" style=""width: 234px; height: 230px; margin-top: -50px;""><div style=""display: flex; justify-content: space-between; margin-top: 33px;""><img src=""images/choice_trial_3.png"" style=""width: 408px; height: 417px; margin-right: 608px;""></div></div>","null","delaylearn","learning","display_response","5d21d969adb5ab00159cd083","ws7Esl3xVLhO7RJU7oA8HlHXWpp1","","","","","","","","","","","","","","","","","chosen stimuli: images/choice_trial_3.png","","","",""
"html-keyboard-response","216","463320","0.0-89.0-2.0","","null","","null","delaylearn","learning","feedback_duration_window","5d21d969adb5ab00159cd083","ws7Esl3xVLhO7RJU7oA8HlHXWpp1","","","","","","","","","","","","","","","","","","7000","","",""
"html-keyboard-response","217","464831","0.0-89.0-3.0","","null","<div style='margin:auto;width: auto; font-size: 150%'><span style='font-weight: bold; font-size: 100px; color: green;'>+10 points!</span><br><br></div>","null","delaylearn","learning","feedback_image_window","5d21d969adb5ab00159cd083","ws7Esl3xVLhO7RJU7oA8HlHXWpp1","","","","","","","","","","","","","","","","","","","","",""
"html-keyboard-response","218","465339","0.0-90.0-0.0","","null","","null","","","mood_trial_fixation","","","","","","","","","","","","","","","","","","","","","","",""
"lmdlab-html-vas-response","219","469244","0.0-90.0-1.0","","2901","How happy are you right now?","0.5087022251553006","delaylearn","learning","mood_trial","5d21d969adb5ab00159cd083","ws7Esl3xVLhO7RJU7oA8HlHXWpp1","","","","","","","","","","","","","","","","","","","","[""Very unhappy"",""Very happy""]",""
"html-keyboard-response","220","471599","0.0-91.0","","null","<div style=""font-size:100px;"">+</div>","null","delaylearn","learning","ITI","5d21d969adb5ab00159cd083","ws7Esl3xVLhO7RJU7oA8HlHXWpp1","","","","","","","","","","","","","","","","","","","2347","",""
"html-keyboard-response","221","473328","0.0-92.0-0.0","","1726.2000000476837","<div style=""display: flex; flex-direction: column; align-items: center; margin-top: -40px;""><img src=""images/pattern_3.png"" style=""width: 234px; height: 230px; margin-top: -50px;""><div style=""display: flex; justify-content: space-between; margin-top: 33px;""><img src=""images/choice_trial_12.png"" style=""width: 408px; height: 417px; margin-right: 200px;""><img src=""images/choice_trial_14.png"" style=""width: 408px; height: 417px;""></div></div>","f","delaylearn","learning","trial","5d21d969adb5ab00159cd083","ws7Esl3xVLhO7RJU7oA8HlHXWpp1","2","images/choice_trial_12.png","images/choice_trial_14.png","images/pattern_3.png","j","f","7000","12","14","2","0","40","1","0","12","200","","","","",""
