"trial_type","trial_index","time_elapsed","internal_node_id","participant","rt","stimulus","response","exp_name","exp_stage","test_part","subjectID","databaseID","counterbal","choice_stimuli_1","choice_stimuli_2","pattern_stimuli","rewarded_answer","correct_answer","feedback_duration_times","stim_left","stim_right","pair","leftright_counter","trial","response_correct","response_rewarded","chosen_stim","counter","displayed_choice","feedback_durations","ITI_duration","labels","rest_warning"
"pavlovia","0","515","0.0-0.0","","","","","","","","","","","","","","","","","","","","","","","","","","","","","",""
"html-keyboard-response","1","3526","0.0-1.0","","null","<div style=""font-size:100px;"">+</div>","null","delaylearn","learning","pre_fixation","5c929e7b18adb600131a667a","","","","","","","","","","","","","","","","","","","","","",""
"html-keyboard-response","2","4783","0.0-2.0-0.0","","1254.2000000476837","<div style=""display: flex; flex-direction: column; align-items: center; margin-top: -40px;""><img src=""images/demo_images/pattern_1.png"" style=""width: 234px; height: 230px; margin-top: -50px;""><div style=""display: flex; justify-content: space-between; margin-top: 33px;""><img src=""images/demo_images/choice_trial_2.png"" style=""width: 408px; height: 417px; margin-right: 200px;""><img src=""images/demo_images/choice_trial_1.png"" style=""width: 408px; height: 417px;""></div></div>","f","delaylearn","learning","trial","5c929e7b18adb600131a667a","2vgTIayd7rPhZJxSLeZXo8SMsoZ2","3","images/demo_images/choice_trial_2.png","images/demo_images/choice_trial_1.png","images/demo_images/pattern_1.png","j","j","3000","2","1","20","1","1","0","0","2","0","","","","",""
"html-keyboard-response","3","5799","0.0-2.0-1.0","","null","<div style=""display: flex; flex-direction: column; align-items: center; margin-top: -40px;""><img src=""images/demo_images/pattern_1.png"" style=""width: 234px; height: 230px; margin-top: -50px;""><div style=""display: flex; justify-content: space-between; margin-top: 33px;""><img src=""images/demo_images/choice_trial_2.png"" style=""width: 408px; height: 417px; margin-right: 608px;""></div></div>","null","delaylearn","learning","display_response","5c929e7b18adb600131a667a","2vgTIayd7rPhZJxSLeZXo8SMsoZ2","","","","","","","","","","","","","","","","","chosen stimuli: images/demo_images/choice_trial_2.png","","","",""
"html-keyboard-response","4","8815","0.0-2.0-2.0","","null","","null","delaylearn","learning","feedback_duration_window","5c929e7b18adb600131a667a","2vgTIayd7rPhZJxSLeZXo8SMsoZ2","","","","","","","","","","","","","","","","","","3000","","",""
"html-keyboard-response","5","10319","0.0-2.0-3.0","","null","<div style='margin:auto;width: auto; font-size: 150%'><span style='font-weight: bold; font-size: 100px; color: red;'>0 points!</span><br><br></div>","null","delaylearn","learning","feedback_image_window","5c929e7b18adb600131a667a","2vgTIayd7rPhZJxSLeZXo8SMsoZ2","","","","","","","","","","","","","","","","","","","","",""
"html-keyboard-response","6","12438","0.0-3.0","","null","<div style=""font-size:100px;"">+</div>","null","delaylearn","learning","ITI","5c929e7b18adb600131a667a","2vgTIayd7rPhZJxSLeZXo8SMsoZ2","","","","","","","","","","","","","","","","","","","2111","",""
"html-keyboard-response","7","13075","0.0-4.0-0.0","","634.2999999523163","<div style=""display: flex; flex-direction: column; align-items: center; margin-top: -40px;""><img src=""images/demo_images/pattern_1.png"" style=""width: 234px; height: 230px; margin-top: -50px;""><div style=""display: flex; justify-content: space-between; margin-top: 33px;""><img src=""images/demo_images/choice_trial_2.png"" style=""width: 408px; height: 417px; margin-right: 200px;""><img src=""images/demo_images/choice_trial_1.png"" style=""width: 408px; height: 417px;""></div></div>","j","delaylearn","learning","trial","5c929e7b18adb600131a667a","2vgTIayd7rPhZJxSLeZXo8SMsoZ2","3","images/demo_images/choice_trial_2.png","images/demo_images/choice_trial_1.png","images/demo_images/pattern_1.png","j","j","3000","2","1","20","1","2","1","1","1","10","","","","",""
"html-keyboard-response","8","14087","0.0-4.0-1.0","","null","<div style=""display: flex; flex-direction: column; align-items: center; margin-top: -40px;""><img src=""images/demo_images/pattern_1.png"" style=""width: 234px; height: 230px; margin-top: -50px;""><div style=""display: flex; justify-content: space-between; margin-top: 33px;""><img src=""images/demo_images/choice_trial_1.png"" style=""width: 408px; height: 417px; margin-left:608px;""></div></div>","null","delaylearn","learning","display_response","5c929e7b18adb600131a667a","2vgTIayd7rPhZJxSLeZXo8SMsoZ2","","","","","","","","","","","","","","","","","chosen stimuli: images/demo_images/choice_trial_1.png","","","",""
"html-keyboard-response","9","17098","0.0-4.0-2.0","","null","","null","delaylearn","learning","feedback_duration_window","5c929e7b18adb600131a667a","2vgTIayd7rPhZJxSLeZXo8SMsoZ2","","","","","","","","","","","","","","","","","","3000","","",""
"html-keyboard-response","10","18604","0.0-4.0-3.0","","null","<div style='margin:auto;width: auto; font-size: 150%'><span style='font-weight: bold; font-size: 100px; color: green;'>+10 points!</span><br><br></div>","null","delaylearn","learning","feedback_image_window","5c929e7b18adb600131a667a","2vgTIayd7rPhZJxSLeZXo8SMsoZ2","","","","","","","","","","","","","","","","","","","","",""
"html-keyboard-response","11","20944","0.0-5.0","","null","<div style=""font-size:100px;"">+</div>","null","delaylearn","learning","ITI","5c929e7b18adb600131a667a","2vgTIayd7rPhZJxSLeZXo8SMsoZ2","","","","","","","","","","","","","","","","","","","2332","",""
"html-keyboard-response","12","21628","0.0-6.0-0.0","","682.7999999523163","<div style=""display: flex; flex-direction: column; align-items: center; margin-top: -40px;""><img src=""images/demo_images/pattern_1.png"" style=""width: 234px; height: 230px; margin-top: -50px;""><div style=""display: flex; justify-content: space-between; margin-top: 33px;""><img src=""images/demo_images/choice_trial_1.png"" style=""width: 408px; height: 417px; margin-right: 200px;""><img src=""images/demo_images/choice_trial_2.png"" style=""width: 408px; height: 417px;""></div></div>","f","delaylearn","learning","trial","5c929e7b18adb600131a667a","2vgTIayd7rPhZJxSLeZXo8SMsoZ2","3","images/demo_images/choice_trial_1.png","images/demo_images/choice_trial_2.png","images/demo_images/pattern_1.png","j","f","3000","1","2","20","0","3","1","0","1","10","","","","",""
"html-keyboard-response","13","22638","0.0-6.0-1.0","","null","<div style=""display: flex; flex-direction: column; align-items: center; margin-top: -40px;""><img src=""images/demo_images/pattern_1.png"" style=""width: 234px; height: 230px; margin-top: -50px;""><div style=""display: flex; justify-content: space-between; margin-top: 33px;""><img src=""images/demo_images/choice_trial_1.png"" style=""width: 408px; height: 417px; margin-right: 608px;""></div></div>","null","delaylearn","learning","display_response","5c929e7b18adb600131a667a","2vgTIayd7rPhZJxSLeZXo8SMsoZ2","","","","","","","","","","","","","","","","","chosen stimuli: images/demo_images/choice_trial_1.png","","","",""
"html-keyboard-response","14","25654","0.0-6.0-2.0","","null","","null","delaylearn","learning","feedback_duration_window","5c929e7b18adb600131a667a","2vgTIayd7rPhZJxSLeZXo8SMsoZ2","","","","","","","","","","","","","","","","","","3000","","",""
"html-keyboard-response","15","27161","0.0-6.0-3.0","","null","<div style='margin:auto;width: auto; font-size: 150%'><span style='font-weight: bold; font-size: 100px; color: red;'>0 points!</span><br><br></div>","null","delaylearn","learning","feedback_image_window","5c929e7b18adb600131a667a","2vgTIayd7rPhZJxSLeZXo8SMsoZ2","","","","","","","","","","","","","","","","","","","","",""
"html-keyboard-response","16","28981","0.0-7.0","","null","<div style=""font-size:100px;"">+</div>","null","delaylearn","learning","ITI","5c929e7b18adb600131a667a","2vgTIayd7rPhZJxSLeZXo8SMsoZ2","","","","","","","","","","","","","","","","","","","1816","",""
"html-keyboard-response","17","29626","0.0-8.0-0.0","","643.5999999046326","<div style=""display: flex; flex-direction: column; align-items: center; margin-top: -40px;""><img src=""images/demo_images/pattern_1.png"" style=""width: 234px; height: 230px; margin-top: -50px;""><div style=""display: flex; justify-content: space-between; margin-top: 33px;""><img src=""images/demo_images/choice_trial_1.png"" style=""width: 408px; height: 417px; margin-right: 200px;""><img src=""images/demo_images/choice_trial_2.png"" style=""width: 408px; height: 417px;""></div></div>","j","delaylearn","learning","trial","5c929e7b18adb600131a667a","2vgTIayd7rPhZJxSLeZXo8SMsoZ2","3","images/demo_images/choice_trial_1.png","images/demo_images/choice_trial_2.png","images/demo_images/pattern_1.png","f","f","3000","1","2","20","0","4","0","0","2","10","","","","",""
"html-keyboard-response","18","30629","0.0-8.0-1.0","","null","<div style=""display: flex; flex-direction: column; align-items: center; margin-top: -40px;""><img src=""images/demo_images/pattern_1.png"" style=""width: 234px; height: 230px; margin-top: -50px;""><div style=""display: flex; justify-content: space-between; margin-top: 33px;""><img src=""images/demo_images/choice_trial_2.png"" style=""width: 408px; height: 417px; margin-left:608px;""></div></div>","null","delaylearn","learning","display_response","5c929e7b18adb600131a667a","2vgTIayd7rPhZJxSLeZXo8SMsoZ2","","","","","","","","","","","","","","","","","chosen stimuli: images/demo_images/choice_trial_2.png","","","",""
"html-keyboard-response","19","33642","0.0-8.0-2.0","","null","","null","delaylearn","learning","feedback_duration_window","5c929e7b18adb600131a667a","2vgTIayd7rPhZJxSLeZXo8SMsoZ2","","","","","","","","","","","","","","","","","","3000","","",""
"html-keyboard-response","20","35149","0.0-8.0-3.0","","null","<div style='margin:auto;width: auto; font-size: 150%'><span style='font-weight: bold; font-size: 100px; color: red;'>0 points!</span><br><br></div>","null","delaylearn","learning","feedback_image_window","5c929e7b18adb600131a667a","2vgTIayd7rPhZJxSLeZXo8SMsoZ2","","","","","","","","","","","","","","","","","","","","",""
"html-keyboard-response","21","35650","0.0-9.0-0.0","","null","","null","","","mood_trial_fixation","","","","","","","","","","","","","","","","","","","","","","",""
"lmdlab-html-vas-response","22","41468","0.0-9.0-1.0","","4803","How happy are you right now?","0.41514753811930255","delaylearn","learning","mood_trial","5c929e7b18adb600131a667a","2vgTIayd7rPhZJxSLeZXo8SMsoZ2","","","","","","","","","","","","","","","","","","","","[""Very unhappy"",""Very happy""]",""
"html-keyboard-response","23","43790","0.0-10.0","","null","<div style=""font-size:100px;"">+</div>","null","delaylearn","learning","ITI","5c929e7b18adb600131a667a","2vgTIayd7rPhZJxSLeZXo8SMsoZ2","","","","","","","","","","","","","","","","","","","2315","",""
"html-keyboard-response","24","44666","0.0-11.0-0.0","","875","<div style=""display: flex; flex-direction: column; align-items: center; margin-top: -40px;""><img src=""images/demo_images/pattern_1.png"" style=""width: 234px; height: 230px; margin-top: -50px;""><div style=""display: flex; justify-content: space-between; margin-top: 33px;""><img src=""images/demo_images/choice_trial_2.png"" style=""width: 408px; height: 417px; margin-right: 200px;""><img src=""images/demo_images/choice_trial_1.png"" style=""width: 408px; height: 417px;""></div></div>","j","delaylearn","learning","trial","5c929e7b18adb600131a667a","2vgTIayd7rPhZJxSLeZXo8SMsoZ2","3","images/demo_images/choice_trial_2.png","images/demo_images/choice_trial_1.png","images/demo_images/pattern_1.png","j","j","3000","2","1","20","1","5","1","1","1","20","","","","",""
"html-keyboard-response","25","45673","0.0-11.0-1.0","","null","<div style=""display: flex; flex-direction: column; align-items: center; margin-top: -40px;""><img src=""images/demo_images/pattern_1.png"" style=""width: 234px; height: 230px; margin-top: -50px;""><div style=""display: flex; justify-content: space-between; margin-top: 33px;""><img src=""images/demo_images/choice_trial_1.png"" style=""width: 408px; height: 417px; margin-left:608px;""></div></div>","null","delaylearn","learning","display_response","5c929e7b18adb600131a667a","2vgTIayd7rPhZJxSLeZXo8SMsoZ2","","","","","","","","","","","","","","","","","chosen stimuli: images/demo_images/choice_trial_1.png","","","",""
"html-keyboard-response","26","48681","0.0-11.0-2.0","","null","","null","delaylearn","learning","feedback_duration_window","5c929e7b18adb600131a667a","2vgTIayd7rPhZJxSLeZXo8SMsoZ2","","","","","","","","","","","","","","","","","","3000","","",""
"html-keyboard-response","27","50185","0.0-11.0-3.0","","null","<div style='margin:auto;width: auto; font-size: 150%'><span style='font-weight: bold; font-size: 100px; color: green;'>+10 points!</span><br><br></div>","null","delaylearn","learning","feedback_image_window","5c929e7b18adb600131a667a","2vgTIayd7rPhZJxSLeZXo8SMsoZ2","","","","","","","","","","","","","","","","","","","","",""
"html-keyboard-response","28","51754","0.0-12.0","","null","<div style=""font-size:100px;"">+</div>","null","delaylearn","learning","ITI","5c929e7b18adb600131a667a","2vgTIayd7rPhZJxSLeZXo8SMsoZ2","","","","","","","","","","","","","","","","","","","1567","",""
"html-keyboard-response","29","52881","0.0-13.0-0.0","","1124.7000000476837","<div style=""display: flex; flex-direction: column; align-items: center; margin-top: -40px;""><img src=""images/demo_images/pattern_1.png"" style=""width: 234px; height: 230px; margin-top: -50px;""><div style=""display: flex; justify-content: space-between; margin-top: 33px;""><img src=""images/demo_images/choice_trial_1.png"" style=""width: 408px; height: 417px; margin-right: 200px;""><img src=""images/demo_images/choice_trial_2.png"" style=""width: 408px; height: 417px;""></div></div>","f","delaylearn","learning","trial","5c929e7b18adb600131a667a","2vgTIayd7rPhZJxSLeZXo8SMsoZ2","3","images/demo_images/choice_trial_1.png","images/demo_images/choice_trial_2.png","images/demo_images/pattern_1.png","f","f","3000","1","2","20","0","6","1","1","1","30","","","","",""
"html-keyboard-response","30","53883","0.0-13.0-1.0","","null","<div style=""display: flex; flex-direction: column; align-items: center; margin-top: -40px;""><img src=""images/demo_images/pattern_1.png"" style=""width: 234px; height: 230px; margin-top: -50px;""><div style=""display: flex; justify-content: space-between; margin-top: 33px;""><img src=""images/demo_images/choice_trial_1.png"" style=""width: 408px; height: 417px; margin-right: 608px;""></div></div>","null","delaylearn","learning","display_response","5c929e7b18adb600131a667a","2vgTIayd7rPhZJxSLeZXo8SMsoZ2","","","","","","","","","","","","","","","","","chosen stimuli: images/demo_images/choice_trial_1.png","","","",""
"html-keyboard-response","31","56896","0.0-13.0-2.0","","null","","null","delaylearn","learning","feedback_duration_window","5c929e7b18adb600131a667a","2vgTIayd7rPhZJxSLeZXo8SMsoZ2","","","","","","","","","","","","","","","","","","3000","","",""
"html-keyboard-response","32","58403","0.0-13.0-3.0","","null","<div style='margin:auto;width: auto; font-size: 150%'><span style='font-weight: bold; font-size: 100px; color: green;'>+10 points!</span><br><br></div>","null","delaylearn","learning","feedback_image_window","5c929e7b18adb600131a667a","2vgTIayd7rPhZJxSLeZXo8SMsoZ2","","","","","","","","","","","","","","","","","","","","",""
"html-keyboard-response","33","60567","0.0-14.0","","null","<div style=""font-size:100px;"">+</div>","null","delaylearn","learning","ITI","5c929e7b18adb600131a667a","2vgTIayd7rPhZJxSLeZXo8SMsoZ2","","","","","","","","","","","","","","","","","","","2148","",""
"html-keyboard-response","34","61696","0.0-15.0-0.0","","1127","<div style=""display: flex; flex-direction: column; align-items: center; margin-top: -40px;""><img src=""images/demo_images/pattern_1.png"" style=""width: 234px; height: 230px; margin-top: -50px;""><div style=""display: flex; justify-content: space-between; margin-top: 33px;""><img src=""images/demo_images/choice_trial_2.png"" style=""width: 408px; height: 417px; margin-right: 200px;""><img src=""images/demo_images/choice_trial_1.png"" style=""width: 408px; height: 417px;""></div></div>","j","delaylearn","learning","trial","5c929e7b18adb600131a667a","2vgTIayd7rPhZJxSLeZXo8SMsoZ2","3","images/demo_images/choice_trial_2.png","images/demo_images/choice_trial_1.png","images/demo_images/pattern_1.png","j","j","3000","2","1","20","1","7","1","1","1","40","","","","",""
"html-keyboard-response","35","62700","0.0-15.0-1.0","","null","<div style=""display: flex; flex-direction: column; align-items: center; margin-top: -40px;""><img src=""images/demo_images/pattern_1.png"" style=""width: 234px; height: 230px; margin-top: -50px;""><div style=""display: flex; justify-content: space-between; margin-top: 33px;""><img src=""images/demo_images/choice_trial_1.png"" style=""width: 408px; height: 417px; margin-left:608px;""></div></div>","null","delaylearn","learning","display_response","5c929e7b18adb600131a667a","2vgTIayd7rPhZJxSLeZXo8SMsoZ2","","","","","","","","","","","","","","","","","chosen stimuli: images/demo_images/choice_trial_1.png","","","",""
"html-keyboard-response","36","65712","0.0-15.0-2.0","","null","","null","delaylearn","learning","feedback_duration_window","5c929e7b18adb600131a667a","2vgTIayd7rPhZJxSLeZXo8SMsoZ2","","","","","","","","","","","","","","","","","","3000","","",""
"html-keyboard-response","37","67219","0.0-15.0-3.0","","null","<div style='margin:auto;width: auto; font-size: 150%'><span style='font-weight: bold; font-size: 100px; color: green;'>+10 points!</span><br><br></div>","null","delaylearn","learning","feedback_image_window","5c929e7b18adb600131a667a","2vgTIayd7rPhZJxSLeZXo8SMsoZ2","","","","","","","","","","","","","","","","","","","","",""
"html-keyboard-response","38","69509","0.0-16.0","","null","<div style=""font-size:100px;"">+</div>","null","delaylearn","learning","ITI","5c929e7b18adb600131a667a","2vgTIayd7rPhZJxSLeZXo8SMsoZ2","","","","","","","","","","","","","","","","","","","2274","",""
"html-keyboard-response","39","70210","0.0-17.0-0.0","","699.1999998092651","<div style=""display: flex; flex-direction: column; align-items: center; margin-top: -40px;""><img src=""images/demo_images/pattern_1.png"" style=""width: 234px; height: 230px; margin-top: -50px;""><div style=""display: flex; justify-content: space-between; margin-top: 33px;""><img src=""images/demo_images/choice_trial_1.png"" style=""width: 408px; height: 417px; margin-right: 200px;""><img src=""images/demo_images/choice_trial_2.png"" style=""width: 408px; height: 417px;""></div></div>","f","delaylearn","learning","trial","5c929e7b18adb600131a667a","2vgTIayd7rPhZJxSLeZXo8SMsoZ2","3","images/demo_images/choice_trial_1.png","images/demo_images/choice_trial_2.png","images/demo_images/pattern_1.png","f","f","3000","1","2","20","0","8","1","1","1","50","","","","",""
"html-keyboard-response","40","71219","0.0-17.0-1.0","","null","<div style=""display: flex; flex-direction: column; align-items: center; margin-top: -40px;""><img src=""images/demo_images/pattern_1.png"" style=""width: 234px; height: 230px; margin-top: -50px;""><div style=""display: flex; justify-content: space-between; margin-top: 33px;""><img src=""images/demo_images/choice_trial_1.png"" style=""width: 408px; height: 417px; margin-right: 608px;""></div></div>","null","delaylearn","learning","display_response","5c929e7b18adb600131a667a","2vgTIayd7rPhZJxSLeZXo8SMsoZ2","","","","","","","","","","","","","","","","","chosen stimuli: images/demo_images/choice_trial_1.png","","","",""
"html-keyboard-response","41","74233","0.0-17.0-2.0","","null","","null","delaylearn","learning","feedback_duration_window","5c929e7b18adb600131a667a","2vgTIayd7rPhZJxSLeZXo8SMsoZ2","","","","","","","","","","","","","","","","","","3000","","",""
"html-keyboard-response","42","75741","0.0-17.0-3.0","","null","<div style='margin:auto;width: auto; font-size: 150%'><span style='font-weight: bold; font-size: 100px; color: green;'>+10 points!</span><br><br></div>","null","delaylearn","learning","feedback_image_window","5c929e7b18adb600131a667a","2vgTIayd7rPhZJxSLeZXo8SMsoZ2","","","","","","","","","","","","","","","","","","","","",""
"html-button-response","43","78456","0.0-18.0","","2712.7999999523163","
  <div style=""display: flex; align-items: center; justify-content: center; height: 80vh;"">
  <div>
          <img src=""images/inst_demo_finish.png"" style=""width: 80vw; height:auto;"">
          <br><br>
      </div>
      <br><br>
  </div>","0","","","","","","","","","","","","","","","","","","","","","","","","","",""
"html-keyboard-response","44","80197","0.0-19.0","","1740.1999998092651","
  <div style=""display: flex; align-items: center; justify-content: center; height: 80vh;"">
  <div>
          <img src=""images/inst_6.png"" style=""width: 80vw; height:auto;"">
          <br><br>
      </div>
      <br><br>
  </div>","j","","","","","","","","","","","","","","","","","","","","","","","","","",""
"html-keyboard-response","45","83201","0.0-20.0","","null","<div style=""font-size:100px;"">+</div>","null","delaylearn","learning","pre_fixation","5c929e7b18adb600131a667a","","","","","","","","","","","","","","","","","","","","","",""
"html-keyboard-response","46","85330","0.0-21.0","","null","<div style=""font-size:100px;"">+</div>","null","delaylearn","learning","ITI","5c929e7b18adb600131a667a","2vgTIayd7rPhZJxSLeZXo8SMsoZ2","","","","","","","","","","","","","","","","","","","2114","",""
"html-keyboard-response","47","85929","0.0-22.0-0.0","","597.5999999046326","<div style=""display: flex; flex-direction: column; align-items: center; margin-top: -40px;""><img src=""images/pattern_3.png"" style=""width: 234px; height: 230px; margin-top: -50px;""><div style=""display: flex; justify-content: space-between; margin-top: 33px;""><img src=""images/choice_trial_13.png"" style=""width: 408px; height: 417px; margin-right: 200px;""><img src=""images/choice_trial_10.png"" style=""width: 408px; height: 417px;""></div></div>","f","delaylearn","learning","trial","5c929e7b18adb600131a667a","2vgTIayd7rPhZJxSLeZXo8SMsoZ2","3","images/choice_trial_13.png","images/choice_trial_10.png","images/pattern_3.png","f","f","7000","13","10","2","0","9","1","1","13","60","","","","",""
"html-keyboard-response","48","86943","0.0-22.0-1.0","","null","<div style=""display: flex; flex-direction: column; align-items: center; margin-top: -40px;""><img src=""images/pattern_3.png"" style=""width: 234px; height: 230px; margin-top: -50px;""><div style=""display: flex; justify-content: space-between; margin-top: 33px;""><img src=""images/choice_trial_13.png"" style=""width: 408px; height: 417px; margin-right: 608px;""></div></div>","null","delaylearn","learning","display_response","5c929e7b18adb600131a667a","2vgTIayd7rPhZJxSLeZXo8SMsoZ2","","","","","","","","","","","","","","","","","chosen stimuli: images/choice_trial_13.png","","","",""
"html-keyboard-response","49","93958","0.0-22.0-2.0","","null","","null","delaylearn","learning","feedback_duration_window","5c929e7b18adb600131a667a","2vgTIayd7rPhZJxSLeZXo8SMsoZ2","","","","","","","","","","","","","","","","","","7000","","",""
"html-keyboard-response","50","95466","0.0-22.0-3.0","","null","<div style='margin:auto;width: auto; font-size: 150%'><span style='font-weight: bold; font-size: 100px; color: green;'>+10 points!</span><br><br></div>","null","delaylearn","learning","feedback_image_window","5c929e7b18adb600131a667a","2vgTIayd7rPhZJxSLeZXo8SMsoZ2","","","","","","","","","","","","","","","","","","","","",""
"html-keyboard-response","51","97490","0.0-23.0","","null","<div style=""font-size:100px;"">+</div>","null","delaylearn","learning","ITI","5c929e7b18adb600131a667a","2vgTIayd7rPhZJxSLeZXo8SMsoZ2","","","","","","","","","","","","","","","","","","","2008","",""
"html-keyboard-response","52","98349","0.0-24.0-0.0","","857.2999999523163","<div style=""display: flex; flex-direction: column; align-items: center; margin-top: -40px;""><img src=""images/pattern_7.png"" style=""width: 234px; height: 230px; margin-top: -50px;""><div style=""display: flex; justify-content: space-between; margin-top: 33px;""><img src=""images/choice_trial_12.png"" style=""width: 408px; height: 417px; margin-right: 200px;""><img src=""images/choice_trial_6.png"" style=""width: 408px; height: 417px;""></div></div>","j","delaylearn","learning","trial","5c929e7b18adb600131a667a","2vgTIayd7rPhZJxSLeZXo8SMsoZ2","3","images/choice_trial_12.png","images/choice_trial_6.png","images/pattern_7.png","j","j","750","12","6","6","1","10","1","1","6","70","","","","",""
"html-keyboard-response","53","99357","0.0-24.0-1.0","","null","<div style=""display: flex; flex-direction: column; align-items: center; margin-top: -40px;""><img src=""images/pattern_7.png"" style=""width: 234px; height: 230px; margin-top: -50px;""><div style=""display: flex; justify-content: space-between; margin-top: 33px;""><img src=""images/choice_trial_6.png"" style=""width: 408px; height: 417px; margin-left:608px;""></div></div>","null","delaylearn","learning","display_response","5c929e7b18adb600131a667a","2vgTIayd7rPhZJxSLeZXo8SMsoZ2","","","","","","","","","","","","","","","","","chosen stimuli: images/choice_trial_6.png","","","",""
"html-keyboard-response","54","100123","0.0-24.0-2.0","","null","","null","delaylearn","learning","feedback_duration_window","5c929e7b18adb600131a667a","2vgTIayd7rPhZJxSLeZXo8SMsoZ2","","","","","","","","","","","","","","","","","","750","","",""
"html-keyboard-response","55","101629","0.0-24.0-3.0","","null","<div style='margin:auto;width: auto; font-size: 150%'><span style='font-weight: bold; font-size: 100px; color: green;'>+10 points!</span><br><br></div>","null","delaylearn","learning","feedback_image_window","5c929e7b18adb600131a667a","2vgTIayd7rPhZJxSLeZXo8SMsoZ2","","","","","","","","","","","","","","","","","","","","",""
"html-keyboard-response","56","104048","0.0-25.0","","null","<div style=""font-size:100px;"">+</div>","null","delaylearn","learning","ITI","5c929e7b18adb600131a667a","2vgTIayd7rPhZJxSLeZXo8SMsoZ2","","","","","","","","","","","","","","","","","","","2405","",""
"html-keyboard-response","57","105199","0.0-26.0-0.0","","1150.2999999523163","<div style=""display: flex; flex-direction: column; align-items: center; margin-top: -40px;""><img src=""images/pattern_4.png"" style=""width: 234px; height: 230px; margin-top: -50px;""><div style=""display: flex; justify-content: space-between; margin-top: 33px;""><img src=""images/choice_trial_15.png"" style=""width: 408px; height: 417px; margin-right: 200px;""><img src=""images/choice_trial_9.png"" style=""width: 408px; height: 417px;""></div></div>","j","delaylearn","learning","trial","5c929e7b18adb600131a667a","2vgTIayd7rPhZJxSLeZXo8SMsoZ2","3","images/choice_trial_15.png","images/choice_trial_9.png","images/pattern_4.png","f","f","7000","15","9","3","0","11","0","0","9","70","","","","",""
"html-keyboard-response","58","106211","0.0-26.0-1.0","","null","<div style=""display: flex; flex-direction: column; align-items: center; margin-top: -40px;""><img src=""images/pattern_4.png"" style=""width: 234px; height: 230px; margin-top: -50px;""><div style=""display: flex; justify-content: space-between; margin-top: 33px;""><img src=""images/choice_trial_9.png"" style=""width: 408px; height: 417px; margin-left:608px;""></div></div>","null","delaylearn","learning","display_response","5c929e7b18adb600131a667a","2vgTIayd7rPhZJxSLeZXo8SMsoZ2","","","","","","","","","","","","","","","","","chosen stimuli: images/choice_trial_9.png","","","",""
"html-keyboard-response","59","113215","0.0-26.0-2.0","","null","","null","delaylearn","learning","feedback_duration_window","5c929e7b18adb600131a667a","2vgTIayd7rPhZJxSLeZXo8SMsoZ2","","","","","","","","","","","","","","","","","","7000","","",""
"html-keyboard-response","60","114723","0.0-26.0-3.0","","null","<div style='margin:auto;width: auto; font-size: 150%'><span style='font-weight: bold; font-size: 100px; color: red;'>0 points!</span><br><br></div>","null","delaylearn","learning","feedback_image_window","5c929e7b18adb600131a667a","2vgTIayd7rPhZJxSLeZXo8SMsoZ2","","","","","","","","","","","","","","","","","","","","",""
"html-keyboard-response","61","116638","0.0-27.0","","null","<div style=""font-size:100px;"">+</div>","null","delaylearn","learning","ITI","5c929e7b18adb600131a667a","2vgTIayd7rPhZJxSLeZXo8SMsoZ2","","","","","","","","","","","","","","","","","","","1905","",""
"html-keyboard-response","62","118320","0.0-28.0-0.0","","1680.4000000953674","<div style=""display: flex; flex-direction: column; align-items: center; margin-top: -40px;""><img src=""images/pattern_5.png"" style=""width: 234px; height: 230px; margin-top: -50px;""><div style=""display: flex; justify-content: space-between; margin-top: 33px;""><img src=""images/choice_trial_2.png"" style=""width: 408px; height: 417px; margin-right: 200px;""><img src=""images/choice_trial_11.png"" style=""width: 408px; height: 417px;""></div></div>","f","delaylearn","learning","trial","5c929e7b18adb600131a667a","2vgTIayd7rPhZJxSLeZXo8SMsoZ2","3","images/choice_trial_2.png","images/choice_trial_11.png","images/pattern_5.png","j","j","750","2","11","4","1","12","0","0","2","70","","","","",""
"html-keyboard-response","63","119334","0.0-28.0-1.0","","null","<div style=""display: flex; flex-direction: column; align-items: center; margin-top: -40px;""><img src=""images/pattern_5.png"" style=""width: 234px; height: 230px; margin-top: -50px;""><div style=""display: flex; justify-content: space-between; margin-top: 33px;""><img src=""images/choice_trial_2.png"" style=""width: 408px; height: 417px; margin-right: 608px;""></div></div>","null","delaylearn","learning","display_response","5c929e7b18adb600131a667a","2vgTIayd7rPhZJxSLeZXo8SMsoZ2","","","","","","","","","","","","","","","","","chosen stimuli: images/choice_trial_2.png","","","",""
"html-keyboard-response","64","120088","0.0-28.0-2.0","","null","","null","delaylearn","learning","feedback_duration_window","5c929e7b18adb600131a667a","2vgTIayd7rPhZJxSLeZXo8SMsoZ2","","","","","","","","","","","","","","","","","","750","","",""
"html-keyboard-response","65","121595","0.0-28.0-3.0","","null","<div style='margin:auto;width: auto; font-size: 150%'><span style='font-weight: bold; font-size: 100px; color: red;'>0 points!</span><br><br></div>","null","delaylearn","learning","feedback_image_window","5c929e7b18adb600131a667a","2vgTIayd7rPhZJxSLeZXo8SMsoZ2","","","","","","","","","","","","","","","","","","","","",""
"html-keyboard-response","66","123635","0.0-29.0","","null","<div style=""font-size:100px;"">+</div>","null","delaylearn","learning","ITI","5c929e7b18adb600131a667a","2vgTIayd7rPhZJxSLeZXo8SMsoZ2","","","","","","","","","","","","","","","","","","","2028","",""
"html-keyboard-response","67","124973","0.0-30.0-0.0","","1336.0999999046326","<div style=""display: flex; flex-direction: column; align-items: center; margin-top: -40px;""><img src=""images/pattern_6.png"" style=""width: 234px; height: 230px; margin-top: -50px;""><div style=""display: flex; justify-content: space-between; margin-top: 33px;""><img src=""images/choice_trial_16.png"" style=""width: 408px; height: 417px; margin-right: 200px;""><img src=""images/choice_trial_3.png"" style=""width: 408px; height: 417px;""></div></div>","f","delaylearn","learning","trial","5c929e7b18adb600131a667a","2vgTIayd7rPhZJxSLeZXo8SMsoZ2","3","images/choice_trial_16.png","images/choice_trial_3.png","images/pattern_6.png","j","f","750","16","3","5","0","13","1","0","16","70","","","","",""
"html-keyboard-response","68","125990","0.0-30.0-1.0","","null","<div style=""display: flex; flex-direction: column; align-items: center; margin-top: -40px;""><img src=""images/pattern_6.png"" style=""width: 234px; height: 230px; margin-top: -50px;""><div style=""display: flex; justify-content: space-between; margin-top: 33px;""><img src=""images/choice_trial_16.png"" style=""width: 408px; height: 417px; margin-right: 608px;""></div></div>","null","delaylearn","learning","display_response","5c929e7b18adb600131a667a","2vgTIayd7rPhZJxSLeZXo8SMsoZ2","","","","","","","","","","","","","","","","","chosen stimuli: images/choice_trial_16.png","","","",""
"html-keyboard-response","69","126744","0.0-30.0-2.0","","null","","null","delaylearn","learning","feedback_duration_window","5c929e7b18adb600131a667a","2vgTIayd7rPhZJxSLeZXo8SMsoZ2","","","","","","","","","","","","","","","","","","750","","",""
"html-keyboard-response","70","128250","0.0-30.0-3.0","","null","<div style='margin:auto;width: auto; font-size: 150%'><span style='font-weight: bold; font-size: 100px; color: red;'>0 points!</span><br><br></div>","null","delaylearn","learning","feedback_image_window","5c929e7b18adb600131a667a","2vgTIayd7rPhZJxSLeZXo8SMsoZ2","","","","","","","","","","","","","","","","","","","","",""
"html-keyboard-response","71","128752","0.0-31.0-0.0","","null","","null","","","mood_trial_fixation","","","","","","","","","","","","","","","","","","","","","","",""
"lmdlab-html-vas-response","72","133711","0.0-31.0-1.0","","3951","How happy are you right now?","0.4498697587062808","delaylearn","learning","mood_trial","5c929e7b18adb600131a667a","2vgTIayd7rPhZJxSLeZXo8SMsoZ2","","","","","","","","","","","","","","","","","","","","[""Very unhappy"",""Very happy""]",""
"html-keyboard-response","73","135483","0.0-32.0","","null","<div style=""font-size:100px;"">+</div>","null","delaylearn","learning","ITI","5c929e7b18adb600131a667a","2vgTIayd7rPhZJxSLeZXo8SMsoZ2","","","","","","","","","","","","","","","","","","","1765","",""
"html-keyboard-response","74","137021","0.0-33.0-0.0","","1536.2000000476837","<div style=""display: flex; flex-direction: column; align-items: center; margin-top: -40px;""><img src=""images/pattern_1.png"" style=""width: 234px; height: 230px; margin-top: -50px;""><div style=""display: flex; justify-content: space-between; margin-top: 33px;""><img src=""images/choice_trial_8.png"" style=""width: 408px; height: 417px; margin-right: 200px;""><img src=""images/choice_trial_14.png"" style=""width: 408px; height: 417px;""></div></div>","f","delaylearn","learning","trial","5c929e7b18adb600131a667a","2vgTIayd7rPhZJxSLeZXo8SMsoZ2","3","images/choice_trial_8.png","images/choice_trial_14.png","images/pattern_1.png","j","j","7000","8","14","1","1","14","0","0","8","70","","","","",""
"html-keyboard-response","75","138034","0.0-33.0-1.0","","null","<div style=""display: flex; flex-direction: column; align-items: center; margin-top: -40px;""><img src=""images/pattern_1.png"" style=""width: 234px; height: 230px; margin-top: -50px;""><div style=""display: flex; justify-content: space-between; margin-top: 33px;""><img src=""images/choice_trial_8.png"" style=""width: 408px; height: 417px; margin-right: 608px;""></div></div>","null","delaylearn","learning","display_response","5c929e7b18adb600131a667a","2vgTIayd7rPhZJxSLeZXo8SMsoZ2","","","","","","","","","","","","","","","","","chosen stimuli: images/choice_trial_8.png","","","",""
"html-keyboard-response","76","145045","0.0-33.0-2.0","","null","","null","delaylearn","learning","feedback_duration_window","5c929e7b18adb600131a667a","2vgTIayd7rPhZJxSLeZXo8SMsoZ2","","","","","","","","","","","","","","","","","","7000","","",""
"html-keyboard-response","77","146553","0.0-33.0-3.0","","null","<div style='margin:auto;width: auto; font-size: 150%'><span style='font-weight: bold; font-size: 100px; color: red;'>0 points!</span><br><br></div>","null","delaylearn","learning","feedback_image_window","5c929e7b18adb600131a667a","2vgTIayd7rPhZJxSLeZXo8SMsoZ2","","","","","","","","","","","","","","","","","","","","",""
"html-keyboard-response","78","148222","0.0-34.0","","null","<div style=""font-size:100px;"">+</div>","null","delaylearn","learning","ITI","5c929e7b18adb600131a667a","2vgTIayd7rPhZJxSLeZXo8SMsoZ2","","","","","","","","","","","","","","","","","","","1663","",""
"html-keyboard-response","79","149288","0.0-35.0-0.0","","1064.8999998569489","<div style=""display: flex; flex-direction: column; align-items: center; margin-top: -40px;""><img src=""images/pattern_3.png"" style=""width: 234px; height: 230px; margin-top: -50px;""><div style=""display: flex; justify-content: space-between; margin-top: 33px;""><img src=""images/choice_trial_10.png"" style=""width: 408px; height: 417px; margin-right: 200px;""><img src=""images/choice_trial_13.png"" style=""width: 408px; height: 417px;""></div></div>","j","delaylearn","learning","trial","5c929e7b18adb600131a667a","2vgTIayd7rPhZJxSLeZXo8SMsoZ2","3","images/choice_trial_10.png","images/choice_trial_13.png","images/pattern_3.png","f","j","7000","10","13","2","1","15","1","0","13","70","","","","",""
"html-keyboard-response","80","150305","0.0-35.0-1.0","","null","<div style=""display: flex; flex-direction: column; align-items: center; margin-top: -40px;""><img src=""images/pattern_3.png"" style=""width: 234px; height: 230px; margin-top: -50px;""><div style=""display: flex; justify-content: space-between; margin-top: 33px;""><img src=""images/choice_trial_13.png"" style=""width: 408px; height: 417px; margin-left:608px;""></div></div>","null","delaylearn","learning","display_response","5c929e7b18adb600131a667a","2vgTIayd7rPhZJxSLeZXo8SMsoZ2","","","","","","","","","","","","","","","","","chosen stimuli: images/choice_trial_13.png","","","",""
"html-keyboard-response","81","157310","0.0-35.0-2.0","","null","","null","delaylearn","learning","feedback_duration_window","5c929e7b18adb600131a667a","2vgTIayd7rPhZJxSLeZXo8SMsoZ2","","","","","","","","","","","","","","","","","","7000","","",""
"html-keyboard-response","82","158818","0.0-35.0-3.0","","null","<div style='margin:auto;width: auto; font-size: 150%'><span style='font-weight: bold; font-size: 100px; color: red;'>0 points!</span><br><br></div>","null","delaylearn","learning","feedback_image_window","5c929e7b18adb600131a667a","2vgTIayd7rPhZJxSLeZXo8SMsoZ2","","","","","","","","","","","","","","","","","","","","",""
"html-keyboard-response","83","160765","0.0-36.0","","null","<div style=""font-size:100px;"">+</div>","null","delaylearn","learning","ITI","5c929e7b18adb600131a667a","2vgTIayd7rPhZJxSLeZXo8SMsoZ2","","","","","","","","","","","","","","","","","","","1933","",""
"html-keyboard-response","84","162301","0.0-37.0-0.0","","1534.2000000476837","<div style=""display: flex; flex-direction: column; align-items: center; margin-top: -40px;""><img src=""images/pattern_5.png"" style=""width: 234px; height: 230px; margin-top: -50px;""><div style=""display: flex; justify-content: space-between; margin-top: 33px;""><img src=""images/choice_trial_11.png"" style=""width: 408px; height: 417px; margin-right: 200px;""><img src=""images/choice_trial_2.png"" style=""width: 408px; height: 417px;""></div></div>","f","delaylearn","learning","trial","5c929e7b18adb600131a667a","2vgTIayd7rPhZJxSLeZXo8SMsoZ2","3","images/choice_trial_11.png","images/choice_trial_2.png","images/pattern_5.png","f","f","750","11","2","4","0","16","1","1","11","80","","","","",""
"html-keyboard-response","85","163304","0.0-37.0-1.0","","null","<div style=""display: flex; flex-direction: column; align-items: center; margin-top: -40px;""><img src=""images/pattern_5.png"" style=""width: 234px; height: 230px; margin-top: -50px;""><div style=""display: flex; justify-content: space-between; margin-top: 33px;""><img src=""images/choice_trial_11.png"" style=""width: 408px; height: 417px; margin-right: 608px;""></div></div>","null","delaylearn","learning","display_response","5c929e7b18adb600131a667a","2vgTIayd7rPhZJxSLeZXo8SMsoZ2","","","","","","","","","","","","","","","","","chosen stimuli: images/choice_trial_11.png","","","",""
"html-keyboard-response","86","164058","0.0-37.0-2.0","","null","","null","delaylearn","learning","feedback_duration_window","5c929e7b18adb600131a667a","2vgTIayd7rPhZJxSLeZXo8SMsoZ2","","","","","","","","","","","","","","","","","","750","","",""
"html-keyboard-response","87","165563","0.0-37.0-3.0","","null","<div style='margin:auto;width: auto; font-size: 150%'><span style='font-weight: bold; font-size: 100px; color: green;'>+10 points!</span><br><br></div>","null","delaylearn","learning","feedback_image_window","5c929e7b18adb600131a667a","2vgTIayd7rPhZJxSLeZXo8SMsoZ2","","","","","","","","","","","","","","","","","","","","",""
"html-keyboard-response","88","166064","0.0-38.0-0.0","","null","","null","","","mood_trial_fixation","","","","","","","","","","","","","","","","","","","","","","",""
"lmdlab-html-vas-response","89","171165","0.0-38.0-1.0","","4093","How happy are you right now?","0.5000240773319161","delaylearn","learning","mood_trial","5c929e7b18adb600131a667a","2vgTIayd7rPhZJxSLeZXo8SMsoZ2","","","","","","","","","","","","","","","","","","","","[""Very unhappy"",""Very happy""]",""
"html-keyboard-response","90","173423","0.0-39.0","","null","<div style=""font-size:100px;"">+</div>","null","delaylearn","learning","ITI","5c929e7b18adb600131a667a","2vgTIayd7rPhZJxSLeZXo8SMsoZ2","","","","","","","","","","","","","","","","","","","2245","",""
"html-keyboard-response","91","175000","0.0-40.0-0.0","","1575.4000000953674","<div style=""display: flex; flex-direction: column; align-items: center; margin-top: -40px;""><img src=""images/pattern_6.png"" style=""width: 234px; height: 230px; margin-top: -50px;""><div style=""display: flex; justify-content: space-between; margin-top: 33px;""><img src=""images/choice_trial_16.png"" style=""width: 408px; height: 417px; margin-right: 200px;""><img src=""images/choice_trial_3.png"" style=""width: 408px; height: 417px;""></div></div>","j","delaylearn","learning","trial","5c929e7b18adb600131a667a","2vgTIayd7rPhZJxSLeZXo8SMsoZ2","3","images/choice_trial_16.png","images/choice_trial_3.png","images/pattern_6.png","f","f","750","16","3","5","0","17","0","0","3","80","","","","",""
"html-keyboard-response","92","176010","0.0-40.0-1.0","","null","<div style=""display: flex; flex-direction: column; align-items: center; margin-top: -40px;""><img src=""images/pattern_6.png"" style=""width: 234px; height: 230px; margin-top: -50px;""><div style=""display: flex; justify-content: space-between; margin-top: 33px;""><img src=""images/choice_trial_3.png"" style=""width: 408px; height: 417px; margin-left:608px;""></div></div>","null","delaylearn","learning","display_response","5c929e7b18adb600131a667a","2vgTIayd7rPhZJxSLeZXo8SMsoZ2","","","","","","","","","","","","","","","","","chosen stimuli: images/choice_trial_3.png","","","",""
"html-keyboard-response","93","176763","0.0-40.0-2.0","","null","","null","delaylearn","learning","feedback_duration_window","5c929e7b18adb600131a667a","2vgTIayd7rPhZJxSLeZXo8SMsoZ2","","","","","","","","","","","","","","","","","","750","","",""
"html-keyboard-response","94","178267","0.0-40.0-3.0","","null","<div style='margin:auto;width: auto; font-size: 150%'><span style='font-weight: bold; font-size: 100px; color: red;'>0 points!</span><br><br></div>","null","delaylearn","learning","feedback_image_window","5c929e7b18adb600131a667a","2vgTIayd7rPhZJxSLeZXo8SMsoZ2","","","","","","","","","","","","","","","","","","","","",""
"html-keyboard-response","95","180764","0.0-41.0","","null","<div style=""font-size:100px;"">+</div>","null","delaylearn","learning","ITI","5c929e7b18adb600131a667a","2vgTIayd7rPhZJxSLeZXo8SMsoZ2","","","","","","","","","","","","","","","","","","","2486","",""
"html-keyboard-response","96","182225","0.0-42.0-0.0","","1459.4000000953674","<div style=""display: flex; flex-direction: column; align-items: center; margin-top: -40px;""><img src=""images/pattern_4.png"" style=""width: 234px; height: 230px; margin-top: -50px;""><div style=""display: flex; justify-content: space-between; margin-top: 33px;""><img src=""images/choice_trial_9.png"" style=""width: 408px; height: 417px; margin-right: 200px;""><img src=""images/choice_trial_15.png"" style=""width: 408px; height: 417px;""></div></div>","j","delaylearn","learning","trial","5c929e7b18adb600131a667a","2vgTIayd7rPhZJxSLeZXo8SMsoZ2","3","images/choice_trial_9.png","images/choice_trial_15.png","images/pattern_4.png","j","j","7000","9","15","3","1","18","1","1","15","90","","","","",""
"html-keyboard-response","97","183227","0.0-42.0-1.0","","null","<div style=""display: flex; flex-direction: column; align-items: center; margin-top: -40px;""><img src=""images/pattern_4.png"" style=""width: 234px; height: 230px; margin-top: -50px;""><div style=""display: flex; justify-content: space-between; margin-top: 33px;""><img src=""images/choice_trial_15.png"" style=""width: 408px; height: 417px; margin-left:608px;""></div></div>","null","delaylearn","learning","display_response","5c929e7b18adb600131a667a","2vgTIayd7rPhZJxSLeZXo8SMsoZ2","","","","","","","","","","","","","","","","","chosen stimuli: images/choice_trial_15.png","","","",""
"html-keyboard-response","98","190232","0.0-42.0-2.0","","null","","null","delaylearn","learning","feedback_duration_window","5c929e7b18adb600131a667a","2vgTIayd7rPhZJxSLeZXo8SMsoZ2","","","","","","","","","","","","","","","","","","7000","","",""
"html-keyboard-response","99","191738","0.0-42.0-3.0","","null","<div style='margin:auto;width: auto; font-size: 150%'><span style='font-weight: bold; font-size: 100px; color: green;'>+10 points!</span><br><br></div>","null","delaylearn","learning","feedback_image_window","5c929e7b18adb600131a667a","2vgTIayd7rPhZJxSLeZXo8SMsoZ2","","","","","","","","","","","","","","","","","","","","",""
"html-keyboard-response","100","194141","0.0-43.0","","null","<div style=""font-size:100px;"">+</div>","null","delaylearn","learning","ITI","5c929e7b18adb600131a667a","2vgTIayd7rPhZJxSLeZXo8SMsoZ2","","","","","","","","","","","","","","","","","","","2395","",""
"html-keyboard-response","101","195053","0.0-44.0-0.0","","909.9000000953674","<div style=""display: flex; flex-direction: column; align-items: center; margin-top: -40px;""><img src=""images/pattern_7.png"" style=""width: 234px; height: 230px; margin-top: -50px;""><div style=""display: flex; justify-content: space-between; margin-top: 33px;""><img src=""images/choice_trial_6.png"" style=""width: 408px; height: 417px; margin-right: 200px;""><img src=""images/choice_trial_12.png"" style=""width: 408px; height: 417px;""></div></div>","f","delaylearn","learning","trial","5c929e7b18adb600131a667a","2vgTIayd7rPhZJxSLeZXo8SMsoZ2","3","images/choice_trial_6.png","images/choice_trial_12.png","images/pattern_7.png","j","f","750","6","12","6","0","19","1","0","6","90","","","","",""
"html-keyboard-response","102","196068","0.0-44.0-1.0","","null","<div style=""display: flex; flex-direction: column; align-items: center; margin-top: -40px;""><img src=""images/pattern_7.png"" style=""width: 234px; height: 230px; margin-top: -50px;""><div style=""display: flex; justify-content: space-between; margin-top: 33px;""><img src=""images/choice_trial_6.png"" style=""width: 408px; height: 417px; margin-right: 608px;""></div></div>","null","delaylearn","learning","display_response","5c929e7b18adb600131a667a","2vgTIayd7rPhZJxSLeZXo8SMsoZ2","","","","","","","","","","","","","","","","","chosen stimuli: images/choice_trial_6.png","","","",""
"html-keyboard-response","103","196822","0.0-44.0-2.0","","null","","null","delaylearn","learning","feedback_duration_window","5c929e7b18adb600131a667a","2vgTIayd7rPhZJxSLeZXo8SMsoZ2","","","","","","","","","","","","","","","","","","750","","",""
"html-keyboard-response","104","198330","0.0-44.0-3.0","","null","<div style='margin:auto;width: auto; font-size: 150%'><span style='font-weight: bold; font-size: 100px; color: red;'>0 points!</span><br><br></div>","null","delaylearn","learning","feedback_image_window","5c929e7b18adb600131a667a","2vgTIayd7rPhZJxSLeZXo8SMsoZ2","","","","","","","","","","","","","","","","","","","","",""
"html-keyboard-response","105","200764","0.0-45.0","","null","<div style=""font-size:100px;"">+</div>","null","delaylearn","learning","ITI","5c929e7b18adb600131a667a","2vgTIayd7rPhZJxSLeZXo8SMsoZ2","","","","","","","","","","","","","","","","","","","2430","",""
"html-keyboard-response","106","202179","0.0-46.0-0.0","","1413.4000000953674","<div style=""display: flex; flex-direction: column; align-items: center; margin-top: -40px;""><img src=""images/pattern_1.png"" style=""width: 234px; height: 230px; margin-top: -50px;""><div style=""display: flex; justify-content: space-between; margin-top: 33px;""><img src=""images/choice_trial_14.png"" style=""width: 408px; height: 417px; margin-right: 200px;""><img src=""images/choice_trial_8.png"" style=""width: 408px; height: 417px;""></div></div>","f","delaylearn","learning","trial","5c929e7b18adb600131a667a","2vgTIayd7rPhZJxSLeZXo8SMsoZ2","3","images/choice_trial_14.png","images/choice_trial_8.png","images/pattern_1.png","f","f","7000","14","8","1","0","20","1","1","14","100","","","","",""
"html-keyboard-response","107","203192","0.0-46.0-1.0","","null","<div style=""display: flex; flex-direction: column; align-items: center; margin-top: -40px;""><img src=""images/pattern_1.png"" style=""width: 234px; height: 230px; margin-top: -50px;""><div style=""display: flex; justify-content: space-between; margin-top: 33px;""><img src=""images/choice_trial_14.png"" style=""width: 408px; height: 417px; margin-right: 608px;""></div></div>","null","delaylearn","learning","display_response","5c929e7b18adb600131a667a","2vgTIayd7rPhZJxSLeZXo8SMsoZ2","","","","","","","","","","","","","","","","","chosen stimuli: images/choice_trial_14.png","","","",""
"html-keyboard-response","108","210194","0.0-46.0-2.0","","null","","null","delaylearn","learning","feedback_duration_window","5c929e7b18adb600131a667a","2vgTIayd7rPhZJxSLeZXo8SMsoZ2","","","","","","","","","","","","","","","","","","7000","","",""
"html-keyboard-response","109","211699","0.0-46.0-3.0","","null","<div style='margin:auto;width: auto; font-size: 150%'><span style='font-weight: bold; font-size: 100px; color: green;'>+10 points!</span><br><br></div>","null","delaylearn","learning","feedback_image_window","5c929e7b18adb600131a667a","2vgTIayd7rPhZJxSLeZXo8SMsoZ2","","","","","","","","","","","","","","","","","","","","",""
"html-keyboard-response","110","213520","0.0-47.0","","null","<div style=""font-size:100px;"">+</div>","null","delaylearn","learning","ITI","5c929e7b18adb600131a667a","2vgTIayd7rPhZJxSLeZXo8SMsoZ2","","","","","","","","","","","","","","","","","","","1805","",""
"html-keyboard-response","111","215841","0.0-48.0-0.0","","2319.2999999523163","<div style=""display: flex; flex-direction: column; align-items: center; margin-top: -40px;""><img src=""images/pattern_6.png"" style=""width: 234px; height: 230px; margin-top: -50px;""><div style=""display: flex; justify-content: space-between; margin-top: 33px;""><img src=""images/choice_trial_3.png"" style=""width: 408px; height: 417px; margin-right: 200px;""><img src=""images/choice_trial_16.png"" style=""width: 408px; height: 417px;""></div></div>","f","delaylearn","learning","trial","5c929e7b18adb600131a667a","2vgTIayd7rPhZJxSLeZXo8SMsoZ2","3","images/choice_trial_3.png","images/choice_trial_16.png","images/pattern_6.png","j","j","750","3","16","5","1","21","0","0","3","100","","","","",""
"html-keyboard-response","112","216857","0.0-48.0-1.0","","null","<div style=""display: flex; flex-direction: column; align-items: center; margin-top: -40px;""><img src=""images/pattern_6.png"" style=""width: 234px; height: 230px; margin-top: -50px;""><div style=""display: flex; justify-content: space-between; margin-top: 33px;""><img src=""images/choice_trial_3.png"" style=""width: 408px; height: 417px; margin-right: 608px;""></div></div>","null","delaylearn","learning","display_response","5c929e7b18adb600131a667a","2vgTIayd7rPhZJxSLeZXo8SMsoZ2","","","","","","","","","","","","","","","","","chosen stimuli: images/choice_trial_3.png","","","",""
"html-keyboard-response","113","217611","0.0-48.0-2.0","","null","","null","delaylearn","learning","feedback_duration_window","5c929e7b18adb600131a667a","2vgTIayd7rPhZJxSLeZXo8SMsoZ2","","","","","","","","","","","","","","","","","","750","","",""
"html-keyboard-response","114","219117","0.0-48.0-3.0","","null","<div style='margin:auto;width: auto; font-size: 150%'><span style='font-weight: bold; font-size: 100px; color: red;'>0 points!</span><br><br></div>","null","delaylearn","learning","feedback_image_window","5c929e7b18adb600131a667a","2vgTIayd7rPhZJxSLeZXo8SMsoZ2","","","","","","","","","","","","","","","","","","","","",""
"html-keyboard-response","115","220780","0.0-49.0","","null","<div style=""font-size:100px;"">+</div>","null","delaylearn","learning","ITI","5c929e7b18adb600131a667a","2vgTIayd7rPhZJxSLeZXo8SMsoZ2","","","","","","","","","","","","","","","","","","","1650","",""
"html-keyboard-response","116","222700","0.0-50.0-0.0","","1917.9000000953674","<div style=""display: flex; flex-direction: column; align-items: center; margin-top: -40px;""><img src=""images/pattern_4.png"" style=""width: 234px; height: 230px; margin-top: -50px;""><div style=""display: flex; justify-content: space-between; margin-top: 33px;""><img src=""images/choice_trial_15.png"" style=""width: 408px; height: 417px; margin-right: 200px;""><img src=""images/choice_trial_9.png"" style=""width: 408px; height: 417px;""></div></div>","f","delaylearn","learning","trial","5c929e7b18adb600131a667a","2vgTIayd7rPhZJxSLeZXo8SMsoZ2","3","images/choice_trial_15.png","images/choice_trial_9.png","images/pattern_4.png","f","f","7000","15","9","3","0","22","1","1","15","110","","","","",""
"html-keyboard-response","117","223713","0.0-50.0-1.0","","null","<div style=""display: flex; flex-direction: column; align-items: center; margin-top: -40px;""><img src=""images/pattern_4.png"" style=""width: 234px; height: 230px; margin-top: -50px;""><div style=""display: flex; justify-content: space-between; margin-top: 33px;""><img src=""images/choice_trial_15.png"" style=""width: 408px; height: 417px; margin-right: 608px;""></div></div>","null","delaylearn","learning","display_response","5c929e7b18adb600131a667a","2vgTIayd7rPhZJxSLeZXo8SMsoZ2","","","","","","","","","","","","","","","","","chosen stimuli: images/choice_trial_15.png","","","",""
"html-keyboard-response","118","230727","0.0-50.0-2.0","","null","","null","delaylearn","learning","feedback_duration_window","5c929e7b18adb600131a667a","2vgTIayd7rPhZJxSLeZXo8SMsoZ2","","","","","","","","","","","","","","","","","","7000","","",""
"html-keyboard-response","119","232234","0.0-50.0-3.0","","null","<div style='margin:auto;width: auto; font-size: 150%'><span style='font-weight: bold; font-size: 100px; color: green;'>+10 points!</span><br><br></div>","null","delaylearn","learning","feedback_image_window","5c929e7b18adb600131a667a","2vgTIayd7rPhZJxSLeZXo8SMsoZ2","","","","","","","","","","","","","","","","","","","","",""
"html-keyboard-response","120","232736","0.0-51.0-0.0","","null","","null","","","mood_trial_fixation","","","","","","","","","","","","","","","","","","","","","","",""
"lmdlab-html-vas-response","121","237025","0.0-51.0-1.0","","3281","How happy are you right now?","0.4344376606676238","delaylearn","learning","mood_trial","5c929e7b18adb600131a667a","2vgTIayd7rPhZJxSLeZXo8SMsoZ2","","","","","","","","","","","","","","","","","","","","[""Very unhappy"",""Very happy""]",""
"html-keyboard-response","122","238669","0.0-52.0","","null","<div style=""font-size:100px;"">+</div>","null","delaylearn","learning","ITI","5c929e7b18adb600131a667a","2vgTIayd7rPhZJxSLeZXo8SMsoZ2","","","","","","","","","","","","","","","","","","","1641","",""
"html-keyboard-response","123","240668","0.0-53.0-0.0","","1996.0999999046326","<div style=""display: flex; flex-direction: column; align-items: center; margin-top: -40px;""><img src=""images/pattern_7.png"" style=""width: 234px; height: 230px; margin-top: -50px;""><div style=""display: flex; justify-content: space-between; margin-top: 33px;""><img src=""images/choice_trial_12.png"" style=""width: 408px; height: 417px; margin-right: 200px;""><img src=""images/choice_trial_6.png"" style=""width: 408px; height: 417px;""></div></div>","j","delaylearn","learning","trial","5c929e7b18adb600131a667a","2vgTIayd7rPhZJxSLeZXo8SMsoZ2","3","images/choice_trial_12.png","images/choice_trial_6.png","images/pattern_7.png","j","j","750","12","6","6","1","23","1","1","6","120","","","","",""
"html-keyboard-response","124","241676","0.0-53.0-1.0","","null","<div style=""display: flex; flex-direction: column; align-items: center; margin-top: -40px;""><img src=""images/pattern_7.png"" style=""width: 234px; height: 230px; margin-top: -50px;""><div style=""display: flex; justify-content: space-between; margin-top: 33px;""><img src=""images/choice_trial_6.png"" style=""width: 408px; height: 417px; margin-left:608px;""></div></div>","null","delaylearn","learning","display_response","5c929e7b18adb600131a667a","2vgTIayd7rPhZJxSLeZXo8SMsoZ2","","","","","","","","","","","","","","","","","chosen stimuli: images/choice_trial_6.png","","","",""
"html-keyboard-response","125","242429","0.0-53.0-2.0","","null","","null","delaylearn","learning","feedback_duration_window","5c929e7b18adb600131a667a","2vgTIayd7rPhZJxSLeZXo8SMsoZ2","","","","","","","","","","","","","","","","","","750","","",""
"html-keyboard-response","126","243936","0.0-53.0-3.0","","null","<div style='margin:auto;width: auto; font-size: 150%'><span style='font-weight: bold; font-size: 100px; color: green;'>+10 points!</span><br><br></div>","null","delaylearn","learning","feedback_image_window","5c929e7b18adb600131a667a","2vgTIayd7rPhZJxSLeZXo8SMsoZ2","","","","","","","","","","","","","","","","","","","","",""
"html-keyboard-response","127","246416","0.0-54.0","","null","<div style=""font-size:100px;"">+</div>","null","delaylearn","learning","ITI","5c929e7b18adb600131a667a","2vgTIayd7rPhZJxSLeZXo8SMsoZ2","","","","","","","","","","","","","","","","","","","2478","",""
"html-keyboard-response","128","248954","0.0-55.0-0.0","","2536.5","<div style=""display: flex; flex-direction: column; align-items: center; margin-top: -40px;""><img src=""images/pattern_1.png"" style=""width: 234px; height: 230px; margin-top: -50px;""><div style=""display: flex; justify-content: space-between; margin-top: 33px;""><img src=""images/choice_trial_8.png"" style=""width: 408px; height: 417px; margin-right: 200px;""><img src=""images/choice_trial_14.png"" style=""width: 408px; height: 417px;""></div></div>","f","delaylearn","learning","trial","5c929e7b18adb600131a667a","2vgTIayd7rPhZJxSLeZXo8SMsoZ2","3","images/choice_trial_8.png","images/choice_trial_14.png","images/pattern_1.png","f","j","7000","8","14","1","1","24","0","1","8","130","","","","",""
"html-keyboard-response","129","249960","0.0-55.0-1.0","","null","<div style=""display: flex; flex-direction: column; align-items: center; margin-top: -40px;""><img src=""images/pattern_1.png"" style=""width: 234px; height: 230px; margin-top: -50px;""><div style=""display: flex; justify-content: space-between; margin-top: 33px;""><img src=""images/choice_trial_8.png"" style=""width: 408px; height: 417px; margin-right: 608px;""></div></div>","null","delaylearn","learning","display_response","5c929e7b18adb600131a667a","2vgTIayd7rPhZJxSLeZXo8SMsoZ2","","","","","","","","","","","","","","","","","chosen stimuli: images/choice_trial_8.png","","","",""
"html-keyboard-response","130","256963","0.0-55.0-2.0","","null","","null","delaylearn","learning","feedback_duration_window","5c929e7b18adb600131a667a","2vgTIayd7rPhZJxSLeZXo8SMsoZ2","","","","","","","","","","","","","","","","","","7000","","",""
"html-keyboard-response","131","258468","0.0-55.0-3.0","","null","<div style='margin:auto;width: auto; font-size: 150%'><span style='font-weight: bold; font-size: 100px; color: green;'>+10 points!</span><br><br></div>","null","delaylearn","learning","feedback_image_window","5c929e7b18adb600131a667a","2vgTIayd7rPhZJxSLeZXo8SMsoZ2","","","","","","","","","","","","","","","","","","","","",""
"html-keyboard-response","132","260523","0.0-56.0","","null","<div style=""font-size:100px;"">+</div>","null","delaylearn","learning","ITI","5c929e7b18adb600131a667a","2vgTIayd7rPhZJxSLeZXo8SMsoZ2","","","","","","","","","","","","","","","","","","","2047","",""
"html-keyboard-response","133","262771","0.0-57.0-0.0","","2245.899999856949","<div style=""display: flex; flex-direction: column; align-items: center; margin-top: -40px;""><img src=""images/pattern_5.png"" style=""width: 234px; height: 230px; margin-top: -50px;""><div style=""display: flex; justify-content: space-between; margin-top: 33px;""><img src=""images/choice_trial_2.png"" style=""width: 408px; height: 417px; margin-right: 200px;""><img src=""images/choice_trial_11.png"" style=""width: 408px; height: 417px;""></div></div>","j","delaylearn","learning","trial","5c929e7b18adb600131a667a","2vgTIayd7rPhZJxSLeZXo8SMsoZ2","3","images/choice_trial_2.png","images/choice_trial_11.png","images/pattern_5.png","j","j","750","2","11","4","1","25","1","1","11","140","","","","",""
"html-keyboard-response","134","263781","0.0-57.0-1.0","","null","<div style=""display: flex; flex-direction: column; align-items: center; margin-top: -40px;""><img src=""images/pattern_5.png"" style=""width: 234px; height: 230px; margin-top: -50px;""><div style=""display: flex; justify-content: space-between; margin-top: 33px;""><img src=""images/choice_trial_11.png"" style=""width: 408px; height: 417px; margin-left:608px;""></div></div>","null","delaylearn","learning","display_response","5c929e7b18adb600131a667a","2vgTIayd7rPhZJxSLeZXo8SMsoZ2","","","","","","","","","","","","","","","","","chosen stimuli: images/choice_trial_11.png","","","",""
"html-keyboard-response","135","264535","0.0-57.0-2.0","","null","","null","delaylearn","learning","feedback_duration_window","5c929e7b18adb600131a667a","2vgTIayd7rPhZJxSLeZXo8SMsoZ2","","","","","","","","","","","","","","","","","","750","","",""
"html-keyboard-response","136","266041","0.0-57.0-3.0","","null","<div style='margin:auto;width: auto; font-size: 150%'><span style='font-weight: bold; font-size: 100px; color: green;'>+10 points!</span><br><br></div>","null","delaylearn","learning","feedback_image_window","5c929e7b18adb600131a667a","2vgTIayd7rPhZJxSLeZXo8SMsoZ2","","","","","","","","","","","","","","","","","","","","",""
"html-keyboard-response","137","268129","0.0-58.0","","null","<div style=""font-size:100px;"">+</div>","null","delaylearn","learning","ITI","5c929e7b18adb600131a667a","2vgTIayd7rPhZJxSLeZXo8SMsoZ2","","","","","","","","","","","","","","","","","","","2080","",""
"html-keyboard-response","138","269708","0.0-59.0-0.0","","1576","<div style=""display: flex; flex-direction: column; align-items: center; margin-top: -40px;""><img src=""images/pattern_3.png"" style=""width: 234px; height: 230px; margin-top: -50px;""><div style=""display: flex; justify-content: space-between; margin-top: 33px;""><img src=""images/choice_trial_10.png"" style=""width: 408px; height: 417px; margin-right: 200px;""><img src=""images/choice_trial_13.png"" style=""width: 408px; height: 417px;""></div></div>","j","delaylearn","learning","trial","5c929e7b18adb600131a667a","2vgTIayd7rPhZJxSLeZXo8SMsoZ2","3","images/choice_trial_10.png","images/choice_trial_13.png","images/pattern_3.png","j","j","7000","10","13","2","1","26","1","1","13","150","","","","",""
"html-keyboard-response","139","270714","0.0-59.0-1.0","","null","<div style=""display: flex; flex-direction: column; align-items: center; margin-top: -40px;""><img src=""images/pattern_3.png"" style=""width: 234px; height: 230px; margin-top: -50px;""><div style=""display: flex; justify-content: space-between; margin-top: 33px;""><img src=""images/choice_trial_13.png"" style=""width: 408px; height: 417px; margin-left:608px;""></div></div>","null","delaylearn","learning","display_response","5c929e7b18adb600131a667a","2vgTIayd7rPhZJxSLeZXo8SMsoZ2","","","","","","","","","","","","","","","","","chosen stimuli: images/choice_trial_13.png","","","",""
"html-keyboard-response","140","277730","0.0-59.0-2.0","","null","","null","delaylearn","learning","feedback_duration_window","5c929e7b18adb600131a667a","2vgTIayd7rPhZJxSLeZXo8SMsoZ2","","","","","","","","","","","","","","","","","","7000","","",""
"html-keyboard-response","141","279237","0.0-59.0-3.0","","null","<div style='margin:auto;width: auto; font-size: 150%'><span style='font-weight: bold; font-size: 100px; color: green;'>+10 points!</span><br><br></div>","null","delaylearn","learning","feedback_image_window","5c929e7b18adb600131a667a","2vgTIayd7rPhZJxSLeZXo8SMsoZ2","","","","","","","","","","","","","","","","","","","","",""
"lmdlab-html-vas-response","142","288922","0.0-60.0-0.0","","8168","*How <b><u>confident</u></b> are you feeling about your answers at this moment?*","0.5713733945600065","rewlearn","rate_confidence","","5c929e7b18adb600131a667a","2vgTIayd7rPhZJxSLeZXo8SMsoZ2","","","","","","","","","","","","","","","","","","","","[""No confidence"",""Complete confidence""]",""
"lmdlab-rest-trial-limit","143","302007","0.0-60.0-1.0","","11570.5","<div style=""font-size:40px;""><b>Please take a break!</b><br><br><br><br><p>Great work: you earned 150 points.<br><br><br><p>You have completed part(s) 1 of 5.<br><br><br><br>When you are ready to continue<br><br><br>please click the button.</p><br><br>","0","delaylearn","learning","break","5c929e7b18adb600131a667a","2vgTIayd7rPhZJxSLeZXo8SMsoZ2","","","","","","","","","","","","","","","","","","","","","0"
"html-keyboard-response","144","305021","0.0-60.0-2.0","","null","<div style=""font-size:100px;"">+</div>","null","delaylearn","learning","pre_fixation","5c929e7b18adb600131a667a","","","","","","","","","","","","","","","","","","","","","",""
"lmdlab-html-vas-response","145","310389","0.0-60.0-3.0-0.0","","4363","How happy are you right now?","0.5270302488995658","delaylearn","learning","mood_baseline","5c929e7b18adb600131a667a","2vgTIayd7rPhZJxSLeZXo8SMsoZ2","","","","","","","","","","","","","","","","","","","","[""Very unhappy"",""Very happy""]",""
"html-keyboard-response","146","311897","0.0-60.0-3.0-1.0","","null","","null","","","mood_baseline_fixation","","","","","","","","","","","","","","","","","","","","","","",""
"html-keyboard-response","147","313798","0.0-61.0","","null","<div style=""font-size:100px;"">+</div>","null","delaylearn","learning","ITI","5c929e7b18adb600131a667a","2vgTIayd7rPhZJxSLeZXo8SMsoZ2","","","","","","","","","","","","","","","","","","","1891","",""
"html-keyboard-response","148","315248","0.0-62.0-0.0","","1448.4000000953674","<div style=""display: flex; flex-direction: column; align-items: center; margin-top: -40px;""><img src=""images/pattern_7.png"" style=""width: 234px; height: 230px; margin-top: -50px;""><div style=""display: flex; justify-content: space-between; margin-top: 33px;""><img src=""images/choice_trial_12.png"" style=""width: 408px; height: 417px; margin-right: 200px;""><img src=""images/choice_trial_6.png"" style=""width: 408px; height: 417px;""></div></div>","j","delaylearn","learning","trial","5c929e7b18adb600131a667a","2vgTIayd7rPhZJxSLeZXo8SMsoZ2","3","images/choice_trial_12.png","images/choice_trial_6.png","images/pattern_7.png","j","j","750","12","6","6","1","27","1","1","6","160","","","","",""
"html-keyboard-response","149","316254","0.0-62.0-1.0","","null","<div style=""display: flex; flex-direction: column; align-items: center; margin-top: -40px;""><img src=""images/pattern_7.png"" style=""width: 234px; height: 230px; margin-top: -50px;""><div style=""display: flex; justify-content: space-between; margin-top: 33px;""><img src=""images/choice_trial_6.png"" style=""width: 408px; height: 417px; margin-left:608px;""></div></div>","null","delaylearn","learning","display_response","5c929e7b18adb600131a667a","2vgTIayd7rPhZJxSLeZXo8SMsoZ2","","","","","","","","","","","","","","","","","chosen stimuli: images/choice_trial_6.png","","","",""
"html-keyboard-response","150","317007","0.0-62.0-2.0","","null","","null","delaylearn","learning","feedback_duration_window","5c929e7b18adb600131a667a","2vgTIayd7rPhZJxSLeZXo8SMsoZ2","","","","","","","","","","","","","","","","","","750","","",""
"html-keyboard-response","151","318513","0.0-62.0-3.0","","null","<div style='margin:auto;width: auto; font-size: 150%'><span style='font-weight: bold; font-size: 100px; color: green;'>+10 points!</span><br><br></div>","null","delaylearn","learning","feedback_image_window","5c929e7b18adb600131a667a","2vgTIayd7rPhZJxSLeZXo8SMsoZ2","","","","","","","","","","","","","","","","","","","","",""
"html-keyboard-response","152","319015","0.0-63.0-0.0","","null","","null","","","mood_trial_fixation","","","","","","","","","","","","","","","","","","","","","","",""
"lmdlab-html-vas-response","153","324057","0.0-63.0-1.0","","4031","How happy are you right now?","0.544391359193055","delaylearn","learning","mood_trial","5c929e7b18adb600131a667a","2vgTIayd7rPhZJxSLeZXo8SMsoZ2","","","","","","","","","","","","","","","","","","","","[""Very unhappy"",""Very happy""]",""
"html-keyboard-response","154","326132","0.0-64.0","","null","<div style=""font-size:100px;"">+</div>","null","delaylearn","learning","ITI","5c929e7b18adb600131a667a","2vgTIayd7rPhZJxSLeZXo8SMsoZ2","","","","","","","","","","","","","","","","","","","2065","",""
"html-keyboard-response","155","327630","0.0-65.0-0.0","","1495.8999998569489","<div style=""display: flex; flex-direction: column; align-items: center; margin-top: -40px;""><img src=""images/pattern_1.png"" style=""width: 234px; height: 230px; margin-top: -50px;""><div style=""display: flex; justify-content: space-between; margin-top: 33px;""><img src=""images/choice_trial_14.png"" style=""width: 408px; height: 417px; margin-right: 200px;""><img src=""images/choice_trial_8.png"" style=""width: 408px; height: 417px;""></div></div>","j","delaylearn","learning","trial","5c929e7b18adb600131a667a","2vgTIayd7rPhZJxSLeZXo8SMsoZ2","3","images/choice_trial_14.png","images/choice_trial_8.png","images/pattern_1.png","f","f","7000","14","8","1","0","28","0","0","8","160","","","","",""
"html-keyboard-response","156","328634","0.0-65.0-1.0","","null","<div style=""display: flex; flex-direction: column; align-items: center; margin-top: -40px;""><img src=""images/pattern_1.png"" style=""width: 234px; height: 230px; margin-top: -50px;""><div style=""display: flex; justify-content: space-between; margin-top: 33px;""><img src=""images/choice_trial_8.png"" style=""width: 408px; height: 417px; margin-left:608px;""></div></div>","null","delaylearn","learning","display_response","5c929e7b18adb600131a667a","2vgTIayd7rPhZJxSLeZXo8SMsoZ2","","","","","","","","","","","","","","","","","chosen stimuli: images/choice_trial_8.png","","","",""
"html-keyboard-response","157","335635","0.0-65.0-2.0","","null","","null","delaylearn","learning","feedback_duration_window","5c929e7b18adb600131a667a","2vgTIayd7rPhZJxSLeZXo8SMsoZ2","","","","","","","","","","","","","","","","","","7000","","",""
"html-keyboard-response","158","337147","0.0-65.0-3.0","","null","<div style='margin:auto;width: auto; font-size: 150%'><span style='font-weight: bold; font-size: 100px; color: red;'>0 points!</span><br><br></div>","null","delaylearn","learning","feedback_image_window","5c929e7b18adb600131a667a","2vgTIayd7rPhZJxSLeZXo8SMsoZ2","","","","","","","","","","","","","","","","","","","","",""
"html-keyboard-response","159","339623","0.0-66.0","","null","<div style=""font-size:100px;"">+</div>","null","delaylearn","learning","ITI","5c929e7b18adb600131a667a","2vgTIayd7rPhZJxSLeZXo8SMsoZ2","","","","","","","","","","","","","","","","","","","2472","",""
"html-keyboard-response","160","342420","0.0-67.0-0.0","","2792.399999856949","<div style=""display: flex; flex-direction: column; align-items: center; margin-top: -40px;""><img src=""images/pattern_5.png"" style=""width: 234px; height: 230px; margin-top: -50px;""><div style=""display: flex; justify-content: space-between; margin-top: 33px;""><img src=""images/choice_trial_11.png"" style=""width: 408px; height: 417px; margin-right: 200px;""><img src=""images/choice_trial_2.png"" style=""width: 408px; height: 417px;""></div></div>","f","delaylearn","learning","trial","5c929e7b18adb600131a667a","2vgTIayd7rPhZJxSLeZXo8SMsoZ2","3","images/choice_trial_11.png","images/choice_trial_2.png","images/pattern_5.png","f","f","750","11","2","4","0","29","1","1","11","170","","","","",""
"html-keyboard-response","161","343435","0.0-67.0-1.0","","null","<div style=""display: flex; flex-direction: column; align-items: center; margin-top: -40px;""><img src=""images/pattern_5.png"" style=""width: 234px; height: 230px; margin-top: -50px;""><div style=""display: flex; justify-content: space-between; margin-top: 33px;""><img src=""images/choice_trial_11.png"" style=""width: 408px; height: 417px; margin-right: 608px;""></div></div>","null","delaylearn","learning","display_response","5c929e7b18adb600131a667a","2vgTIayd7rPhZJxSLeZXo8SMsoZ2","","","","","","","","","","","","","","","","","chosen stimuli: images/choice_trial_11.png","","","",""
"html-keyboard-response","162","344189","0.0-67.0-2.0","","null","","null","delaylearn","learning","feedback_duration_window","5c929e7b18adb600131a667a","2vgTIayd7rPhZJxSLeZXo8SMsoZ2","","","","","","","","","","","","","","","","","","750","","",""
"html-keyboard-response","163","345702","0.0-67.0-3.0","","null","<div style='margin:auto;width: auto; font-size: 150%'><span style='font-weight: bold; font-size: 100px; color: green;'>+10 points!</span><br><br></div>","null","delaylearn","learning","feedback_image_window","5c929e7b18adb600131a667a","2vgTIayd7rPhZJxSLeZXo8SMsoZ2","","","","","","","","","","","","","","","","","","","","",""
"html-keyboard-response","164","347281","0.0-68.0","","null","<div style=""font-size:100px;"">+</div>","null","delaylearn","learning","ITI","5c929e7b18adb600131a667a","2vgTIayd7rPhZJxSLeZXo8SMsoZ2","","","","","","","","","","","","","","","","","","","1574","",""
"html-keyboard-response","165","349862","0.0-69.0-0.0","","2577.100000143051","<div style=""display: flex; flex-direction: column; align-items: center; margin-top: -40px;""><img src=""images/pattern_6.png"" style=""width: 234px; height: 230px; margin-top: -50px;""><div style=""display: flex; justify-content: space-between; margin-top: 33px;""><img src=""images/choice_trial_3.png"" style=""width: 408px; height: 417px; margin-right: 200px;""><img src=""images/choice_trial_16.png"" style=""width: 408px; height: 417px;""></div></div>","j","delaylearn","learning","trial","5c929e7b18adb600131a667a","2vgTIayd7rPhZJxSLeZXo8SMsoZ2","3","images/choice_trial_3.png","images/choice_trial_16.png","images/pattern_6.png","j","j","750","3","16","5","1","30","1","1","16","180","","","","",""
"html-keyboard-response","166","350874","0.0-69.0-1.0","","null","<div style=""display: flex; flex-direction: column; align-items: center; margin-top: -40px;""><img src=""images/pattern_6.png"" style=""width: 234px; height: 230px; margin-top: -50px;""><div style=""display: flex; justify-content: space-between; margin-top: 33px;""><img src=""images/choice_trial_16.png"" style=""width: 408px; height: 417px; margin-left:608px;""></div></div>","null","delaylearn","learning","display_response","5c929e7b18adb600131a667a","2vgTIayd7rPhZJxSLeZXo8SMsoZ2","","","","","","","","","","","","","","","","","chosen stimuli: images/choice_trial_16.png","","","",""
"html-keyboard-response","167","351628","0.0-69.0-2.0","","null","","null","delaylearn","learning","feedback_duration_window","5c929e7b18adb600131a667a","2vgTIayd7rPhZJxSLeZXo8SMsoZ2","","","","","","","","","","","","","","","","","","750","","",""
"html-keyboard-response","168","353139","0.0-69.0-3.0","","null","<div style='margin:auto;width: auto; font-size: 150%'><span style='font-weight: bold; font-size: 100px; color: green;'>+10 points!</span><br><br></div>","null","delaylearn","learning","feedback_image_window","5c929e7b18adb600131a667a","2vgTIayd7rPhZJxSLeZXo8SMsoZ2","","","","","","","","","","","","","","","","","","","","",""
"html-keyboard-response","169","353644","0.0-70.0-0.0","","null","","null","","","mood_trial_fixation","","","","","","","","","","","","","","","","","","","","","","",""
"lmdlab-html-vas-response","170","359958","0.0-70.0-1.0","","5300","How happy are you right now?","0.5405333346833907","delaylearn","learning","mood_trial","5c929e7b18adb600131a667a","2vgTIayd7rPhZJxSLeZXo8SMsoZ2","","","","","","","","","","","","","","","","","","","","[""Very unhappy"",""Very happy""]",""
"html-keyboard-response","171","361712","0.0-71.0","","null","<div style=""font-size:100px;"">+</div>","null","delaylearn","learning","ITI","5c929e7b18adb600131a667a","2vgTIayd7rPhZJxSLeZXo8SMsoZ2","","","","","","","","","","","","","","","","","","","1739","",""
"html-keyboard-response","172","363941","0.0-72.0-0.0","","2221.7000000476837","<div style=""display: flex; flex-direction: column; align-items: center; margin-top: -40px;""><img src=""images/pattern_4.png"" style=""width: 234px; height: 230px; margin-top: -50px;""><div style=""display: flex; justify-content: space-between; margin-top: 33px;""><img src=""images/choice_trial_9.png"" style=""width: 408px; height: 417px; margin-right: 200px;""><img src=""images/choice_trial_15.png"" style=""width: 408px; height: 417px;""></div></div>","j","delaylearn","learning","trial","5c929e7b18adb600131a667a","2vgTIayd7rPhZJxSLeZXo8SMsoZ2","3","images/choice_trial_9.png","images/choice_trial_15.png","images/pattern_4.png","j","j","7000","9","15","3","1","31","1","1","15","190","","","","",""
"html-keyboard-response","173","364956","0.0-72.0-1.0","","null","<div style=""display: flex; flex-direction: column; align-items: center; margin-top: -40px;""><img src=""images/pattern_4.png"" style=""width: 234px; height: 230px; margin-top: -50px;""><div style=""display: flex; justify-content: space-between; margin-top: 33px;""><img src=""images/choice_trial_15.png"" style=""width: 408px; height: 417px; margin-left:608px;""></div></div>","null","delaylearn","learning","display_response","5c929e7b18adb600131a667a","2vgTIayd7rPhZJxSLeZXo8SMsoZ2","","","","","","","","","","","","","","","","","chosen stimuli: images/choice_trial_15.png","","","",""
"html-keyboard-response","174","371967","0.0-72.0-2.0","","null","","null","delaylearn","learning","feedback_duration_window","5c929e7b18adb600131a667a","2vgTIayd7rPhZJxSLeZXo8SMsoZ2","","","","","","","","","","","","","","","","","","7000","","",""
"html-keyboard-response","175","373485","0.0-72.0-3.0","","null","<div style='margin:auto;width: auto; font-size: 150%'><span style='font-weight: bold; font-size: 100px; color: green;'>+10 points!</span><br><br></div>","null","delaylearn","learning","feedback_image_window","5c929e7b18adb600131a667a","2vgTIayd7rPhZJxSLeZXo8SMsoZ2","","","","","","","","","","","","","","","","","","","","",""
"html-keyboard-response","176","375454","0.0-73.0","","null","<div style=""font-size:100px;"">+</div>","null","delaylearn","learning","ITI","5c929e7b18adb600131a667a","2vgTIayd7rPhZJxSLeZXo8SMsoZ2","","","","","","","","","","","","","","","","","","","1964","",""
"html-keyboard-response","177","377309","0.0-74.0-0.0","","1851.2000000476837","<div style=""display: flex; flex-direction: column; align-items: center; margin-top: -40px;""><img src=""images/pattern_3.png"" style=""width: 234px; height: 230px; margin-top: -50px;""><div style=""display: flex; justify-content: space-between; margin-top: 33px;""><img src=""images/choice_trial_10.png"" style=""width: 408px; height: 417px; margin-right: 200px;""><img src=""images/choice_trial_13.png"" style=""width: 408px; height: 417px;""></div></div>","j","delaylearn","learning","trial","5c929e7b18adb600131a667a","2vgTIayd7rPhZJxSLeZXo8SMsoZ2","3","images/choice_trial_10.png","images/choice_trial_13.png","images/pattern_3.png","j","j","7000","10","13","2","1","32","1","1","13","200","","","","",""
"html-keyboard-response","178","378318","0.0-74.0-1.0","","null","<div style=""display: flex; flex-direction: column; align-items: center; margin-top: -40px;""><img src=""images/pattern_3.png"" style=""width: 234px; height: 230px; margin-top: -50px;""><div style=""display: flex; justify-content: space-between; margin-top: 33px;""><img src=""images/choice_trial_13.png"" style=""width: 408px; height: 417px; margin-left:608px;""></div></div>","null","delaylearn","learning","display_response","5c929e7b18adb600131a667a","2vgTIayd7rPhZJxSLeZXo8SMsoZ2","","","","","","","","","","","","","","","","","chosen stimuli: images/choice_trial_13.png","","","",""
"html-keyboard-response","179","385331","0.0-74.0-2.0","","null","","null","delaylearn","learning","feedback_duration_window","5c929e7b18adb600131a667a","2vgTIayd7rPhZJxSLeZXo8SMsoZ2","","","","","","","","","","","","","","","","","","7000","","",""
"html-keyboard-response","180","386843","0.0-74.0-3.0","","null","<div style='margin:auto;width: auto; font-size: 150%'><span style='font-weight: bold; font-size: 100px; color: green;'>+10 points!</span><br><br></div>","null","delaylearn","learning","feedback_image_window","5c929e7b18adb600131a667a","2vgTIayd7rPhZJxSLeZXo8SMsoZ2","","","","","","","","","","","","","","","","","","","","",""
"html-keyboard-response","181","388425","0.0-75.0","","null","<div style=""font-size:100px;"">+</div>","null","delaylearn","learning","ITI","5c929e7b18adb600131a667a","2vgTIayd7rPhZJxSLeZXo8SMsoZ2","","","","","","","","","","","","","","","","","","","1566","",""
"html-keyboard-response","182","390015","0.0-76.0-0.0","","1587","<div style=""display: flex; flex-direction: column; align-items: center; margin-top: -40px;""><img src=""images/pattern_5.png"" style=""width: 234px; height: 230px; margin-top: -50px;""><div style=""display: flex; justify-content: space-between; margin-top: 33px;""><img src=""images/choice_trial_11.png"" style=""width: 408px; height: 417px; margin-right: 200px;""><img src=""images/choice_trial_2.png"" style=""width: 408px; height: 417px;""></div></div>","f","delaylearn","learning","trial","5c929e7b18adb600131a667a","2vgTIayd7rPhZJxSLeZXo8SMsoZ2","3","images/choice_trial_11.png","images/choice_trial_2.png","images/pattern_5.png","j","f","750","11","2","4","0","33","1","0","11","200","","","","",""
"html-keyboard-response","183","391029","0.0-76.0-1.0","","null","<div style=""display: flex; flex-direction: column; align-items: center; margin-top: -40px;""><img src=""images/pattern_5.png"" style=""width: 234px; height: 230px; margin-top: -50px;""><div style=""display: flex; justify-content: space-between; margin-top: 33px;""><img src=""images/choice_trial_11.png"" style=""width: 408px; height: 417px; margin-right: 608px;""></div></div>","null","delaylearn","learning","display_response","5c929e7b18adb600131a667a","2vgTIayd7rPhZJxSLeZXo8SMsoZ2","","","","","","","","","","","","","","","","","chosen stimuli: images/choice_trial_11.png","","","",""
"html-keyboard-response","184","391790","0.0-76.0-2.0","","null","","null","delaylearn","learning","feedback_duration_window","5c929e7b18adb600131a667a","2vgTIayd7rPhZJxSLeZXo8SMsoZ2","","","","","","","","","","","","","","","","","","750","","",""
"html-keyboard-response","185","393304","0.0-76.0-3.0","","null","<div style='margin:auto;width: auto; font-size: 150%'><span style='font-weight: bold; font-size: 100px; color: red;'>0 points!</span><br><br></div>","null","delaylearn","learning","feedback_image_window","5c929e7b18adb600131a667a","2vgTIayd7rPhZJxSLeZXo8SMsoZ2","","","","","","","","","","","","","","","","","","","","",""
"html-keyboard-response","186","395404","0.0-77.0","","null","<div style=""font-size:100px;"">+</div>","null","delaylearn","learning","ITI","5c929e7b18adb600131a667a","2vgTIayd7rPhZJxSLeZXo8SMsoZ2","","","","","","","","","","","","","","","","","","","2092","",""
"html-keyboard-response","187","396955","0.0-78.0-0.0","","1547","<div style=""display: flex; flex-direction: column; align-items: center; margin-top: -40px;""><img src=""images/pattern_1.png"" style=""width: 234px; height: 230px; margin-top: -50px;""><div style=""display: flex; justify-content: space-between; margin-top: 33px;""><img src=""images/choice_trial_14.png"" style=""width: 408px; height: 417px; margin-right: 200px;""><img src=""images/choice_trial_8.png"" style=""width: 408px; height: 417px;""></div></div>","j","delaylearn","learning","trial","5c929e7b18adb600131a667a","2vgTIayd7rPhZJxSLeZXo8SMsoZ2","3","images/choice_trial_14.png","images/choice_trial_8.png","images/pattern_1.png","f","f","7000","14","8","1","0","34","0","0","8","200","","","","",""
"html-keyboard-response","188","397962","0.0-78.0-1.0","","null","<div style=""display: flex; flex-direction: column; align-items: center; margin-top: -40px;""><img src=""images/pattern_1.png"" style=""width: 234px; height: 230px; margin-top: -50px;""><div style=""display: flex; justify-content: space-between; margin-top: 33px;""><img src=""images/choice_trial_8.png"" style=""width: 408px; height: 417px; margin-left:608px;""></div></div>","null","delaylearn","learning","display_response","5c929e7b18adb600131a667a","2vgTIayd7rPhZJxSLeZXo8SMsoZ2","","","","","","","","","","","","","","","","","chosen stimuli: images/choice_trial_8.png","","","",""
"html-keyboard-response","189","404965","0.0-78.0-2.0","","null","","null","delaylearn","learning","feedback_duration_window","5c929e7b18adb600131a667a","2vgTIayd7rPhZJxSLeZXo8SMsoZ2","","","","","","","","","","","","","","","","","","7000","","",""
"html-keyboard-response","190","406480","0.0-78.0-3.0","","null","<div style='margin:auto;width: auto; font-size: 150%'><span style='font-weight: bold; font-size: 100px; color: red;'>0 points!</span><br><br></div>","null","delaylearn","learning","feedback_image_window","5c929e7b18adb600131a667a","2vgTIayd7rPhZJxSLeZXo8SMsoZ2","","","","","","","","","","","","","","","","","","","","",""
"html-keyboard-response","191","406985","0.0-79.0-0.0","","null","","null","","","mood_trial_fixation","","","","","","","","","","","","","","","","","","","","","","",""
"lmdlab-html-vas-response","192","412039","0.0-79.0-1.0","","4045","How happy are you right now?","0.44601173419661655","delaylearn","learning","mood_trial","5c929e7b18adb600131a667a","2vgTIayd7rPhZJxSLeZXo8SMsoZ2","","","","","","","","","","","","","","","","","","","","[""Very unhappy"",""Very happy""]",""
"html-keyboard-response","193","413737","0.0-80.0","","null","<div style=""font-size:100px;"">+</div>","null","delaylearn","learning","ITI","5c929e7b18adb600131a667a","2vgTIayd7rPhZJxSLeZXo8SMsoZ2","","","","","","","","","","","","","","","","","","","1693","",""
"html-keyboard-response","194","415081","0.0-81.0-0.0","","1340.6999998092651","<div style=""display: flex; flex-direction: column; align-items: center; margin-top: -40px;""><img src=""images/pattern_6.png"" style=""width: 234px; height: 230px; margin-top: -50px;""><div style=""display: flex; justify-content: space-between; margin-top: 33px;""><img src=""images/choice_trial_16.png"" style=""width: 408px; height: 417px; margin-right: 200px;""><img src=""images/choice_trial_3.png"" style=""width: 408px; height: 417px;""></div></div>","f","delaylearn","learning","trial","5c929e7b18adb600131a667a","2vgTIayd7rPhZJxSLeZXo8SMsoZ2","3","images/choice_trial_16.png","images/choice_trial_3.png","images/pattern_6.png","j","f","750","16","3","5","0","35","1","0","16","200","","","","",""
"html-keyboard-response","195","416089","0.0-81.0-1.0","","null","<div style=""display: flex; flex-direction: column; align-items: center; margin-top: -40px;""><img src=""images/pattern_6.png"" style=""width: 234px; height: 230px; margin-top: -50px;""><div style=""display: flex; justify-content: space-between; margin-top: 33px;""><img src=""images/choice_trial_16.png"" style=""width: 408px; height: 417px; margin-right: 608px;""></div></div>","null","delaylearn","learning","display_response","5c929e7b18adb600131a667a","2vgTIayd7rPhZJxSLeZXo8SMsoZ2","","","","","","","","","","","","","","","","","chosen stimuli: images/choice_trial_16.png","","","",""
"html-keyboard-response","196","416848","0.0-81.0-2.0","","null","","null","delaylearn","learning","feedback_duration_window","5c929e7b18adb600131a667a","2vgTIayd7rPhZJxSLeZXo8SMsoZ2","","","","","","","","","","","","","","","","","","750","","",""
"html-keyboard-response","197","418354","0.0-81.0-3.0","","null","<div style='margin:auto;width: auto; font-size: 150%'><span style='font-weight: bold; font-size: 100px; color: red;'>0 points!</span><br><br></div>","null","delaylearn","learning","feedback_image_window","5c929e7b18adb600131a667a","2vgTIayd7rPhZJxSLeZXo8SMsoZ2","","","","","","","","","","","","","","","","","","","","",""
"html-keyboard-response","198","420630","0.0-82.0","","null","<div style=""font-size:100px;"">+</div>","null","delaylearn","learning","ITI","5c929e7b18adb600131a667a","2vgTIayd7rPhZJxSLeZXo8SMsoZ2","","","","","","","","","","","","","","","","","","","2264","",""
"html-keyboard-response","199","421878","0.0-83.0-0.0","","1242.5","<div style=""display: flex; flex-direction: column; align-items: center; margin-top: -40px;""><img src=""images/pattern_3.png"" style=""width: 234px; height: 230px; margin-top: -50px;""><div style=""display: flex; justify-content: space-between; margin-top: 33px;""><img src=""images/choice_trial_10.png"" style=""width: 408px; height: 417px; margin-right: 200px;""><img src=""images/choice_trial_13.png"" style=""width: 408px; height: 417px;""></div></div>","j","delaylearn","learning","trial","5c929e7b18adb600131a667a","2vgTIayd7rPhZJxSLeZXo8SMsoZ2","3","images/choice_trial_10.png","images/choice_trial_13.png","images/pattern_3.png","j","j","7000","10","13","2","1","36","1","1","13","210","","","","",""
"html-keyboard-response","200","422888","0.0-83.0-1.0","","null","<div style=""display: flex; flex-direction: column; align-items: center; margin-top: -40px;""><img src=""images/pattern_3.png"" style=""width: 234px; height: 230px; margin-top: -50px;""><div style=""display: flex; justify-content: space-between; margin-top: 33px;""><img src=""images/choice_trial_13.png"" style=""width: 408px; height: 417px; margin-left:608px;""></div></div>","null","delaylearn","learning","display_response","5c929e7b18adb600131a667a","2vgTIayd7rPhZJxSLeZXo8SMsoZ2","","","","","","","","","","","","","","","","","chosen stimuli: images/choice_trial_13.png","","","",""
"html-keyboard-response","201","429901","0.0-83.0-2.0","","null","","null","delaylearn","learning","feedback_duration_window","5c929e7b18adb600131a667a","2vgTIayd7rPhZJxSLeZXo8SMsoZ2","","","","","","","","","","","","","","","","","","7000","","",""
"html-keyboard-response","202","431416","0.0-83.0-3.0","","null","<div style='margin:auto;width: auto; font-size: 150%'><span style='font-weight: bold; font-size: 100px; color: green;'>+10 points!</span><br><br></div>","null","delaylearn","learning","feedback_image_window","5c929e7b18adb600131a667a","2vgTIayd7rPhZJxSLeZXo8SMsoZ2","","","","","","","","","","","","","","","","","","","","",""
"html-keyboard-response","203","433646","0.0-84.0","","null","<div style=""font-size:100px;"">+</div>","null","delaylearn","learning","ITI","5c929e7b18adb600131a667a","2vgTIayd7rPhZJxSLeZXo8SMsoZ2","","","","","","","","","","","","","","","","","","","2227","",""
"html-keyboard-response","204","435417","0.0-85.0-0.0","","1765.2000000476837","<div style=""display: flex; flex-direction: column; align-items: center; margin-top: -40px;""><img src=""images/pattern_4.png"" style=""width: 234px; height: 230px; margin-top: -50px;""><div style=""display: flex; justify-content: space-between; margin-top: 33px;""><img src=""images/choice_trial_9.png"" style=""width: 408px; height: 417px; margin-right: 200px;""><img src=""images/choice_trial_15.png"" style=""width: 408px; height: 417px;""></div></div>","j","delaylearn","learning","trial","5c929e7b18adb600131a667a","2vgTIayd7rPhZJxSLeZXo8SMsoZ2","3","images/choice_trial_9.png","images/choice_trial_15.png","images/pattern_4.png","f","j","7000","9","15","3","1","37","1","0","15","210","","","","",""
"html-keyboard-response","205","436425","0.0-85.0-1.0","","null","<div style=""display: flex; flex-direction: column; align-items: center; margin-top: -40px;""><img src=""images/pattern_4.png"" style=""width: 234px; height: 230px; margin-top: -50px;""><div style=""display: flex; justify-content: space-between; margin-top: 33px;""><img src=""images/choice_trial_15.png"" style=""width: 408px; height: 417px; margin-left:608px;""></div></div>","null","delaylearn","learning","display_response","5c929e7b18adb600131a667a","2vgTIayd7rPhZJxSLeZXo8SMsoZ2","","","","","","","","","","","","","","","","","chosen stimuli: images/choice_trial_15.png","","","",""
"html-keyboard-response","206","443439","0.0-85.0-2.0","","null","","null","delaylearn","learning","feedback_duration_window","5c929e7b18adb600131a667a","2vgTIayd7rPhZJxSLeZXo8SMsoZ2","","","","","","","","","","","","","","","","","","7000","","",""
"html-keyboard-response","207","444948","0.0-85.0-3.0","","null","<div style='margin:auto;width: auto; font-size: 150%'><span style='font-weight: bold; font-size: 100px; color: red;'>0 points!</span><br><br></div>","null","delaylearn","learning","feedback_image_window","5c929e7b18adb600131a667a","2vgTIayd7rPhZJxSLeZXo8SMsoZ2","","","","","","","","","","","","","","","","","","","","",""
"html-keyboard-response","208","447239","0.0-86.0","","null","<div style=""font-size:100px;"">+</div>","null","delaylearn","learning","ITI","5c929e7b18adb600131a667a","2vgTIayd7rPhZJxSLeZXo8SMsoZ2","","","","","","","","","","","","","","","","","","","2277","",""
"html-keyboard-response","209","448200","0.0-87.0-0.0","","956.7999999523163","<div style=""display: flex; flex-direction: column; align-items: center; margin-top: -40px;""><img src=""images/pattern_7.png"" style=""width: 234px; height: 230px; margin-top: -50px;""><div style=""display: flex; justify-content: space-between; margin-top: 33px;""><img src=""images/choice_trial_6.png"" style=""width: 408px; height: 417px; margin-right: 200px;""><img src=""images/choice_trial_12.png"" style=""width: 408px; height: 417px;""></div></div>","f","delaylearn","learning","trial","5c929e7b18adb600131a667a","2vgTIayd7rPhZJxSLeZXo8SMsoZ2","3","images/choice_trial_6.png","images/choice_trial_12.png","images/pattern_7.png","f","f","750","6","12","6","0","38","1","1","6","220","","","","",""
"html-keyboard-response","210","449217","0.0-87.0-1.0","","null","<div style=""display: flex; flex-direction: column; align-items: center; margin-top: -40px;""><img src=""images/pattern_7.png"" style=""width: 234px; height: 230px; margin-top: -50px;""><div style=""display: flex; justify-content: space-between; margin-top: 33px;""><img src=""images/choice_trial_6.png"" style=""width: 408px; height: 417px; margin-right: 608px;""></div></div>","null","delaylearn","learning","display_response","5c929e7b18adb600131a667a","2vgTIayd7rPhZJxSLeZXo8SMsoZ2","","","","","","","","","","","","","","","","","chosen stimuli: images/choice_trial_6.png","","","",""
"html-keyboard-response","211","449973","0.0-87.0-2.0","","null","","null","delaylearn","learning","feedback_duration_window","5c929e7b18adb600131a667a","2vgTIayd7rPhZJxSLeZXo8SMsoZ2","","","","","","","","","","","","","","","","","","750","","",""
"html-keyboard-response","212","451491","0.0-87.0-3.0","","null","<div style='margin:auto;width: auto; font-size: 150%'><span style='font-weight: bold; font-size: 100px; color: green;'>+10 points!</span><br><br></div>","null","delaylearn","learning","feedback_image_window","5c929e7b18adb600131a667a","2vgTIayd7rPhZJxSLeZXo8SMsoZ2","","","","","","","","","","","","","","","","","","","","",""
"html-keyboard-response","213","453899","0.0-88.0","","null","<div style=""font-size:100px;"">+</div>","null","delaylearn","learning","ITI","5c929e7b18adb600131a667a","2vgTIayd7rPhZJxSLeZXo8SMsoZ2","","","","","","","","","","","","","","","","","","","2392","",""
"html-keyboard-response","214","455502","0.0-89.0-0.0","","1597.0999999046326","<div style=""display: flex; flex-direction: column; align-items: center; margin-top: -40px;""><img src=""images/pattern_1.png"" style=""width: 234px; height: 230px; margin-top: -50px;""><div style=""display: flex; justify-content: space-between; margin-top: 33px;""><img src=""images/choice_trial_14.png"" style=""width: 408px; height: 417px; margin-right: 200px;""><img src=""images/choice_trial_8.png"" style=""width: 408px; height: 417px;""></div></div>","f","delaylearn","learning","trial","5c929e7b18adb600131a667a","2vgTIayd7rPhZJxSLeZXo8SMsoZ2","3","images/choice_trial_14.png","images/choice_trial_8.png","images/pattern_1.png","f","f","7000","14","8","1","0","39","1","1","14","230","","","","",""
"html-keyboard-response","215","456512","0.0-89.0-1.0","","null","<div style=""display: flex; flex-direction: column; align-items: center; margin-top: -40px;""><img src=""images/pattern_1.png"" style=""width: 234px; height: 230px; margin-top: -50px;""><div style=""display: flex; justify-content: space-between; margin-top: 33px;""><img src=""images/choice_trial_14.png"" style=""width: 408px; height: 417px; margin-right: 608px;""></div></div>","null","delaylearn","learning","display_response","5c929e7b18adb600131a667a","2vgTIayd7rPhZJxSLeZXo8SMsoZ2","","","","","","","","","","","","","","","","","chosen stimuli: images/choice_trial_14.png","","","",""
"html-keyboard-response","216","463528","0.0-89.0-2.0","","null","","null","delaylearn","learning","feedback_duration_window","5c929e7b18adb600131a667a","2vgTIayd7rPhZJxSLeZXo8SMsoZ2","","","","","","","","","","","","","","","","","","7000","","",""
"html-keyboard-response","217","465044","0.0-89.0-3.0","","null","<div style='margin:auto;width: auto; font-size: 150%'><span style='font-weight: bold; font-size: 100px; color: green;'>+10 points!</span><br><br></div>","null","delaylearn","learning","feedback_image_window","5c929e7b18adb600131a667a","2vgTIayd7rPhZJxSLeZXo8SMsoZ2","","","","","","","","","","","","","","","","","","","","",""
"html-keyboard-response","218","465547","0.0-90.0-0.0","","null","","null","","","mood_trial_fixation","","","","","","","","","","","","","","","","","","","","","","",""
"lmdlab-html-vas-response","219","470168","0.0-90.0-1.0","","3605","How happy are you right now?","0.5424623469382228","delaylearn","learning","mood_trial","5c929e7b18adb600131a667a","2vgTIayd7rPhZJxSLeZXo8SMsoZ2","","","","","","","","","","","","","","","","","","","","[""Very unhappy"",""Very happy""]",""
"html-keyboard-response","220","472473","0.0-91.0","","null","<div style=""font-size:100px;"">+</div>","null","delaylearn","learning","ITI","5c929e7b18adb600131a667a","2vgTIayd7rPhZJxSLeZXo8SMsoZ2","","","","","","","","","","","","","","","","","","","2291","",""
