"trial_type","trial_index","time_elapsed","internal_node_id","participant","rt","stimulus","response","exp_name","exp_stage","test_part","subjectID","databaseID","counterbal","choice_stimuli_1","choice_stimuli_2","pattern_stimuli","rewarded_answer","correct_answer","feedback_duration_times","stim_left","stim_right","pair","leftright_counter","trial","response_correct","response_rewarded","chosen_stim","counter","displayed_choice","feedback_durations","ITI_duration","labels","rest_warning"
"pavlovia","0","530","0.0-0.0","","","","","","","","","","","","","","","","","","","","","","","","","","","","","",""
"html-keyboard-response","1","3550","0.0-1.0","","null","<div style=""font-size:100px;"">+</div>","null","delaylearn","learning","pre_fixation","5f1caff8d9003412a7748b0e","","","","","","","","","","","","","","","","","","","","","",""
"html-keyboard-response","2","6564","0.0-2.0-0.0","","null","<div style=""display: flex; flex-direction: column; align-items: center; margin-top: -40px;""><img src=""images/demo_images/pattern_1.png"" style=""width: 234px; height: 230px; margin-top: -50px;""><div style=""display: flex; justify-content: space-between; margin-top: 33px;""><img src=""images/demo_images/choice_trial_2.png"" style=""width: 408px; height: 417px; margin-right: 200px;""><img src=""images/demo_images/choice_trial_1.png"" style=""width: 408px; height: 417px;""></div></div>","null","delaylearn","learning","trial","5f1caff8d9003412a7748b0e","Eo0yoheKUUYejDv5nTsUPnvZ5aC3","2","images/demo_images/choice_trial_2.png","images/demo_images/choice_trial_1.png","images/demo_images/pattern_1.png","j","j","3000","2","1","20","1","1","0","0","0","0","","","","",""
"html-keyboard-response","3","7569","0.0-2.0-1.0","","null","<div style='font-weight: bold; font-size: 75px; color: red;'>Missed Trial <br><br><br><br> Please respond faster</div>","null","delaylearn","learning","display_response","5f1caff8d9003412a7748b0e","Eo0yoheKUUYejDv5nTsUPnvZ5aC3","","","","","","","","","","","","","","","","","Missed trial","","","",""
"html-keyboard-response","4","7573","0.0-2.0-2.0","","null","","null","delaylearn","learning","feedback_duration_window","5f1caff8d9003412a7748b0e","Eo0yoheKUUYejDv5nTsUPnvZ5aC3","","","","","","","","","","","","","","","","","","0","","",""
"html-keyboard-response","5","7580","0.0-2.0-3.0","","null","","null","delaylearn","learning","feedback_image_window","5f1caff8d9003412a7748b0e","Eo0yoheKUUYejDv5nTsUPnvZ5aC3","","","","","","","","","","","","","","","","","","","","",""
"html-keyboard-response","6","9128","0.0-3.0","","null","<div style=""font-size:100px;"">+</div>","null","delaylearn","learning","ITI","5f1caff8d9003412a7748b0e","Eo0yoheKUUYejDv5nTsUPnvZ5aC3","","","","","","","","","","","","","","","","","","","1545","",""
"html-keyboard-response","7","9534","0.0-4.0-0.0","","402","<div style=""display: flex; flex-direction: column; align-items: center; margin-top: -40px;""><img src=""images/demo_images/pattern_1.png"" style=""width: 234px; height: 230px; margin-top: -50px;""><div style=""display: flex; justify-content: space-between; margin-top: 33px;""><img src=""images/demo_images/choice_trial_2.png"" style=""width: 408px; height: 417px; margin-right: 200px;""><img src=""images/demo_images/choice_trial_1.png"" style=""width: 408px; height: 417px;""></div></div>","f","delaylearn","learning","trial","5f1caff8d9003412a7748b0e","Eo0yoheKUUYejDv5nTsUPnvZ5aC3","2","images/demo_images/choice_trial_2.png","images/demo_images/choice_trial_1.png","images/demo_images/pattern_1.png","j","j","3000","2","1","20","1","2","0","0","2","0","","","","",""
"html-keyboard-response","8","10549","0.0-4.0-1.0","","null","<div style=""display: flex; flex-direction: column; align-items: center; margin-top: -40px;""><img src=""images/demo_images/pattern_1.png"" style=""width: 234px; height: 230px; margin-top: -50px;""><div style=""display: flex; justify-content: space-between; margin-top: 33px;""><img src=""images/demo_images/choice_trial_2.png"" style=""width: 408px; height: 417px; margin-right: 608px;""></div></div>","null","delaylearn","learning","display_response","5f1caff8d9003412a7748b0e","Eo0yoheKUUYejDv5nTsUPnvZ5aC3","","","","","","","","","","","","","","","","","chosen stimuli: images/demo_images/choice_trial_2.png","","","",""
"html-keyboard-response","9","13566","0.0-4.0-2.0","","null","","null","delaylearn","learning","feedback_duration_window","5f1caff8d9003412a7748b0e","Eo0yoheKUUYejDv5nTsUPnvZ5aC3","","","","","","","","","","","","","","","","","","3000","","",""
"html-keyboard-response","10","15075","0.0-4.0-3.0","","null","<div style='margin:auto;width: auto; font-size: 150%'><span style='font-weight: bold; font-size: 100px; color: red;'>0 points!</span><br><br></div>","null","delaylearn","learning","feedback_image_window","5f1caff8d9003412a7748b0e","Eo0yoheKUUYejDv5nTsUPnvZ5aC3","","","","","","","","","","","","","","","","","","","","",""
"html-keyboard-response","11","17250","0.0-5.0","","null","<div style=""font-size:100px;"">+</div>","null","delaylearn","learning","ITI","5f1caff8d9003412a7748b0e","Eo0yoheKUUYejDv5nTsUPnvZ5aC3","","","","","","","","","","","","","","","","","","","2167","",""
"html-keyboard-response","12","18834","0.0-6.0-0.0","","1580.699999999255","<div style=""display: flex; flex-direction: column; align-items: center; margin-top: -40px;""><img src=""images/demo_images/pattern_1.png"" style=""width: 234px; height: 230px; margin-top: -50px;""><div style=""display: flex; justify-content: space-between; margin-top: 33px;""><img src=""images/demo_images/choice_trial_1.png"" style=""width: 408px; height: 417px; margin-right: 200px;""><img src=""images/demo_images/choice_trial_2.png"" style=""width: 408px; height: 417px;""></div></div>","j","delaylearn","learning","trial","5f1caff8d9003412a7748b0e","Eo0yoheKUUYejDv5nTsUPnvZ5aC3","2","images/demo_images/choice_trial_1.png","images/demo_images/choice_trial_2.png","images/demo_images/pattern_1.png","j","f","3000","1","2","20","0","3","0","1","2","10","","","","",""
"html-keyboard-response","13","19846","0.0-6.0-1.0","","null","<div style=""display: flex; flex-direction: column; align-items: center; margin-top: -40px;""><img src=""images/demo_images/pattern_1.png"" style=""width: 234px; height: 230px; margin-top: -50px;""><div style=""display: flex; justify-content: space-between; margin-top: 33px;""><img src=""images/demo_images/choice_trial_2.png"" style=""width: 408px; height: 417px; margin-left:608px;""></div></div>","null","delaylearn","learning","display_response","5f1caff8d9003412a7748b0e","Eo0yoheKUUYejDv5nTsUPnvZ5aC3","","","","","","","","","","","","","","","","","chosen stimuli: images/demo_images/choice_trial_2.png","","","",""
"html-keyboard-response","14","22861","0.0-6.0-2.0","","null","","null","delaylearn","learning","feedback_duration_window","5f1caff8d9003412a7748b0e","Eo0yoheKUUYejDv5nTsUPnvZ5aC3","","","","","","","","","","","","","","","","","","3000","","",""
"html-keyboard-response","15","24369","0.0-6.0-3.0","","null","<div style='margin:auto;width: auto; font-size: 150%'><span style='font-weight: bold; font-size: 100px; color: green;'>+10 points!</span><br><br></div>","null","delaylearn","learning","feedback_image_window","5f1caff8d9003412a7748b0e","Eo0yoheKUUYejDv5nTsUPnvZ5aC3","","","","","","","","","","","","","","","","","","","","",""
"html-keyboard-response","16","25928","0.0-7.0","","null","<div style=""font-size:100px;"">+</div>","null","delaylearn","learning","ITI","5f1caff8d9003412a7748b0e","Eo0yoheKUUYejDv5nTsUPnvZ5aC3","","","","","","","","","","","","","","","","","","","1556","",""
"html-keyboard-response","17","28329","0.0-8.0-0.0","","2397.39999999851","<div style=""display: flex; flex-direction: column; align-items: center; margin-top: -40px;""><img src=""images/demo_images/pattern_1.png"" style=""width: 234px; height: 230px; margin-top: -50px;""><div style=""display: flex; justify-content: space-between; margin-top: 33px;""><img src=""images/demo_images/choice_trial_1.png"" style=""width: 408px; height: 417px; margin-right: 200px;""><img src=""images/demo_images/choice_trial_2.png"" style=""width: 408px; height: 417px;""></div></div>","f","delaylearn","learning","trial","5f1caff8d9003412a7748b0e","Eo0yoheKUUYejDv5nTsUPnvZ5aC3","2","images/demo_images/choice_trial_1.png","images/demo_images/choice_trial_2.png","images/demo_images/pattern_1.png","f","f","3000","1","2","20","0","4","1","1","1","20","","","","",""
"html-keyboard-response","18","29343","0.0-8.0-1.0","","null","<div style=""display: flex; flex-direction: column; align-items: center; margin-top: -40px;""><img src=""images/demo_images/pattern_1.png"" style=""width: 234px; height: 230px; margin-top: -50px;""><div style=""display: flex; justify-content: space-between; margin-top: 33px;""><img src=""images/demo_images/choice_trial_1.png"" style=""width: 408px; height: 417px; margin-right: 608px;""></div></div>","null","delaylearn","learning","display_response","5f1caff8d9003412a7748b0e","Eo0yoheKUUYejDv5nTsUPnvZ5aC3","","","","","","","","","","","","","","","","","chosen stimuli: images/demo_images/choice_trial_1.png","","","",""
"html-keyboard-response","19","32360","0.0-8.0-2.0","","null","","null","delaylearn","learning","feedback_duration_window","5f1caff8d9003412a7748b0e","Eo0yoheKUUYejDv5nTsUPnvZ5aC3","","","","","","","","","","","","","","","","","","3000","","",""
"html-keyboard-response","20","33866","0.0-8.0-3.0","","null","<div style='margin:auto;width: auto; font-size: 150%'><span style='font-weight: bold; font-size: 100px; color: green;'>+10 points!</span><br><br></div>","null","delaylearn","learning","feedback_image_window","5f1caff8d9003412a7748b0e","Eo0yoheKUUYejDv5nTsUPnvZ5aC3","","","","","","","","","","","","","","","","","","","","",""
"html-keyboard-response","21","34369","0.0-9.0-0.0","","null","","null","","","mood_trial_fixation","","","","","","","","","","","","","","","","","","","","","","",""
"lmdlab-html-vas-response","22","41178","0.0-9.0-1.0","","5783","How happy are you right now?","0.5617524694865441","delaylearn","learning","mood_trial","5f1caff8d9003412a7748b0e","Eo0yoheKUUYejDv5nTsUPnvZ5aC3","","","","","","","","","","","","","","","","","","","","[""Very unhappy"",""Very happy""]",""
"html-keyboard-response","23","43285","0.0-10.0","","null","<div style=""font-size:100px;"">+</div>","null","delaylearn","learning","ITI","5f1caff8d9003412a7748b0e","Eo0yoheKUUYejDv5nTsUPnvZ5aC3","","","","","","","","","","","","","","","","","","","2094","",""
"html-keyboard-response","24","44276","0.0-11.0-0.0","","987.5999999977648","<div style=""display: flex; flex-direction: column; align-items: center; margin-top: -40px;""><img src=""images/demo_images/pattern_1.png"" style=""width: 234px; height: 230px; margin-top: -50px;""><div style=""display: flex; justify-content: space-between; margin-top: 33px;""><img src=""images/demo_images/choice_trial_2.png"" style=""width: 408px; height: 417px; margin-right: 200px;""><img src=""images/demo_images/choice_trial_1.png"" style=""width: 408px; height: 417px;""></div></div>","j","delaylearn","learning","trial","5f1caff8d9003412a7748b0e","Eo0yoheKUUYejDv5nTsUPnvZ5aC3","2","images/demo_images/choice_trial_2.png","images/demo_images/choice_trial_1.png","images/demo_images/pattern_1.png","j","j","3000","2","1","20","1","5","1","1","1","30","","","","",""
"html-keyboard-response","25","45295","0.0-11.0-1.0","","null","<div style=""display: flex; flex-direction: column; align-items: center; margin-top: -40px;""><img src=""images/demo_images/pattern_1.png"" style=""width: 234px; height: 230px; margin-top: -50px;""><div style=""display: flex; justify-content: space-between; margin-top: 33px;""><img src=""images/demo_images/choice_trial_1.png"" style=""width: 408px; height: 417px; margin-left:608px;""></div></div>","null","delaylearn","learning","display_response","5f1caff8d9003412a7748b0e","Eo0yoheKUUYejDv5nTsUPnvZ5aC3","","","","","","","","","","","","","","","","","chosen stimuli: images/demo_images/choice_trial_1.png","","","",""
"html-keyboard-response","26","48309","0.0-11.0-2.0","","null","","null","delaylearn","learning","feedback_duration_window","5f1caff8d9003412a7748b0e","Eo0yoheKUUYejDv5nTsUPnvZ5aC3","","","","","","","","","","","","","","","","","","3000","","",""
"html-keyboard-response","27","49814","0.0-11.0-3.0","","null","<div style='margin:auto;width: auto; font-size: 150%'><span style='font-weight: bold; font-size: 100px; color: green;'>+10 points!</span><br><br></div>","null","delaylearn","learning","feedback_image_window","5f1caff8d9003412a7748b0e","Eo0yoheKUUYejDv5nTsUPnvZ5aC3","","","","","","","","","","","","","","","","","","","","",""
"html-keyboard-response","28","51422","0.0-12.0","","null","<div style=""font-size:100px;"">+</div>","null","delaylearn","learning","ITI","5f1caff8d9003412a7748b0e","Eo0yoheKUUYejDv5nTsUPnvZ5aC3","","","","","","","","","","","","","","","","","","","1587","",""
"html-keyboard-response","29","52660","0.0-13.0-0.0","","1233.199999999255","<div style=""display: flex; flex-direction: column; align-items: center; margin-top: -40px;""><img src=""images/demo_images/pattern_1.png"" style=""width: 234px; height: 230px; margin-top: -50px;""><div style=""display: flex; justify-content: space-between; margin-top: 33px;""><img src=""images/demo_images/choice_trial_1.png"" style=""width: 408px; height: 417px; margin-right: 200px;""><img src=""images/demo_images/choice_trial_2.png"" style=""width: 408px; height: 417px;""></div></div>","f","delaylearn","learning","trial","5f1caff8d9003412a7748b0e","Eo0yoheKUUYejDv5nTsUPnvZ5aC3","2","images/demo_images/choice_trial_1.png","images/demo_images/choice_trial_2.png","images/demo_images/pattern_1.png","f","f","3000","1","2","20","0","6","1","1","1","40","","","","",""
"html-keyboard-response","30","53679","0.0-13.0-1.0","","null","<div style=""display: flex; flex-direction: column; align-items: center; margin-top: -40px;""><img src=""images/demo_images/pattern_1.png"" style=""width: 234px; height: 230px; margin-top: -50px;""><div style=""display: flex; justify-content: space-between; margin-top: 33px;""><img src=""images/demo_images/choice_trial_1.png"" style=""width: 408px; height: 417px; margin-right: 608px;""></div></div>","null","delaylearn","learning","display_response","5f1caff8d9003412a7748b0e","Eo0yoheKUUYejDv5nTsUPnvZ5aC3","","","","","","","","","","","","","","","","","chosen stimuli: images/demo_images/choice_trial_1.png","","","",""
"html-keyboard-response","31","56695","0.0-13.0-2.0","","null","","null","delaylearn","learning","feedback_duration_window","5f1caff8d9003412a7748b0e","Eo0yoheKUUYejDv5nTsUPnvZ5aC3","","","","","","","","","","","","","","","","","","3000","","",""
"html-keyboard-response","32","58202","0.0-13.0-3.0","","null","<div style='margin:auto;width: auto; font-size: 150%'><span style='font-weight: bold; font-size: 100px; color: green;'>+10 points!</span><br><br></div>","null","delaylearn","learning","feedback_image_window","5f1caff8d9003412a7748b0e","Eo0yoheKUUYejDv5nTsUPnvZ5aC3","","","","","","","","","","","","","","","","","","","","",""
"html-keyboard-response","33","59843","0.0-14.0","","null","<div style=""font-size:100px;"">+</div>","null","delaylearn","learning","ITI","5f1caff8d9003412a7748b0e","Eo0yoheKUUYejDv5nTsUPnvZ5aC3","","","","","","","","","","","","","","","","","","","1625","",""
"html-keyboard-response","34","60554","0.0-15.0-0.0","","708","<div style=""display: flex; flex-direction: column; align-items: center; margin-top: -40px;""><img src=""images/demo_images/pattern_1.png"" style=""width: 234px; height: 230px; margin-top: -50px;""><div style=""display: flex; justify-content: space-between; margin-top: 33px;""><img src=""images/demo_images/choice_trial_2.png"" style=""width: 408px; height: 417px; margin-right: 200px;""><img src=""images/demo_images/choice_trial_1.png"" style=""width: 408px; height: 417px;""></div></div>","j","delaylearn","learning","trial","5f1caff8d9003412a7748b0e","Eo0yoheKUUYejDv5nTsUPnvZ5aC3","2","images/demo_images/choice_trial_2.png","images/demo_images/choice_trial_1.png","images/demo_images/pattern_1.png","j","j","3000","2","1","20","1","7","1","1","1","50","","","","",""
"html-keyboard-response","35","61573","0.0-15.0-1.0","","null","<div style=""display: flex; flex-direction: column; align-items: center; margin-top: -40px;""><img src=""images/demo_images/pattern_1.png"" style=""width: 234px; height: 230px; margin-top: -50px;""><div style=""display: flex; justify-content: space-between; margin-top: 33px;""><img src=""images/demo_images/choice_trial_1.png"" style=""width: 408px; height: 417px; margin-left:608px;""></div></div>","null","delaylearn","learning","display_response","5f1caff8d9003412a7748b0e","Eo0yoheKUUYejDv5nTsUPnvZ5aC3","","","","","","","","","","","","","","","","","chosen stimuli: images/demo_images/choice_trial_1.png","","","",""
"html-keyboard-response","36","64590","0.0-15.0-2.0","","null","","null","delaylearn","learning","feedback_duration_window","5f1caff8d9003412a7748b0e","Eo0yoheKUUYejDv5nTsUPnvZ5aC3","","","","","","","","","","","","","","","","","","3000","","",""
"html-keyboard-response","37","66098","0.0-15.0-3.0","","null","<div style='margin:auto;width: auto; font-size: 150%'><span style='font-weight: bold; font-size: 100px; color: green;'>+10 points!</span><br><br></div>","null","delaylearn","learning","feedback_image_window","5f1caff8d9003412a7748b0e","Eo0yoheKUUYejDv5nTsUPnvZ5aC3","","","","","","","","","","","","","","","","","","","","",""
"html-keyboard-response","38","68208","0.0-16.0","","null","<div style=""font-size:100px;"">+</div>","null","delaylearn","learning","ITI","5f1caff8d9003412a7748b0e","Eo0yoheKUUYejDv5nTsUPnvZ5aC3","","","","","","","","","","","","","","","","","","","2103","",""
"html-keyboard-response","39","68952","0.0-17.0-0.0","","740.8000000007451","<div style=""display: flex; flex-direction: column; align-items: center; margin-top: -40px;""><img src=""images/demo_images/pattern_1.png"" style=""width: 234px; height: 230px; margin-top: -50px;""><div style=""display: flex; justify-content: space-between; margin-top: 33px;""><img src=""images/demo_images/choice_trial_1.png"" style=""width: 408px; height: 417px; margin-right: 200px;""><img src=""images/demo_images/choice_trial_2.png"" style=""width: 408px; height: 417px;""></div></div>","f","delaylearn","learning","trial","5f1caff8d9003412a7748b0e","Eo0yoheKUUYejDv5nTsUPnvZ5aC3","2","images/demo_images/choice_trial_1.png","images/demo_images/choice_trial_2.png","images/demo_images/pattern_1.png","f","f","3000","1","2","20","0","8","1","1","1","60","","","","",""
"html-keyboard-response","40","69961","0.0-17.0-1.0","","null","<div style=""display: flex; flex-direction: column; align-items: center; margin-top: -40px;""><img src=""images/demo_images/pattern_1.png"" style=""width: 234px; height: 230px; margin-top: -50px;""><div style=""display: flex; justify-content: space-between; margin-top: 33px;""><img src=""images/demo_images/choice_trial_1.png"" style=""width: 408px; height: 417px; margin-right: 608px;""></div></div>","null","delaylearn","learning","display_response","5f1caff8d9003412a7748b0e","Eo0yoheKUUYejDv5nTsUPnvZ5aC3","","","","","","","","","","","","","","","","","chosen stimuli: images/demo_images/choice_trial_1.png","","","",""
"html-keyboard-response","41","72963","0.0-17.0-2.0","","null","","null","delaylearn","learning","feedback_duration_window","5f1caff8d9003412a7748b0e","Eo0yoheKUUYejDv5nTsUPnvZ5aC3","","","","","","","","","","","","","","","","","","3000","","",""
"html-keyboard-response","42","74472","0.0-17.0-3.0","","null","<div style='margin:auto;width: auto; font-size: 150%'><span style='font-weight: bold; font-size: 100px; color: green;'>+10 points!</span><br><br></div>","null","delaylearn","learning","feedback_image_window","5f1caff8d9003412a7748b0e","Eo0yoheKUUYejDv5nTsUPnvZ5aC3","","","","","","","","","","","","","","","","","","","","",""
"html-button-response","43","76609","0.0-18.0","","2135.10000000149","
  <div style=""display: flex; align-items: center; justify-content: center; height: 80vh;"">
  <div>
          <img src=""images/inst_demo_finish.png"" style=""width: 80vw; height:auto;"">
          <br><br>
      </div>
      <br><br>
  </div>","0","","","","","","","","","","","","","","","","","","","","","","","","","",""
"html-keyboard-response","44","79143","0.0-19.0","","2533.10000000149","
  <div style=""display: flex; align-items: center; justify-content: center; height: 80vh;"">
  <div>
          <img src=""images/inst_6.png"" style=""width: 80vw; height:auto;"">
          <br><br>
      </div>
      <br><br>
  </div>","j","","","","","","","","","","","","","","","","","","","","","","","","","",""
"html-keyboard-response","45","82155","0.0-20.0","","null","<div style=""font-size:100px;"">+</div>","null","delaylearn","learning","pre_fixation","5f1caff8d9003412a7748b0e","","","","","","","","","","","","","","","","","","","","","",""
"html-keyboard-response","46","84389","0.0-21.0","","null","<div style=""font-size:100px;"">+</div>","null","delaylearn","learning","ITI","5f1caff8d9003412a7748b0e","Eo0yoheKUUYejDv5nTsUPnvZ5aC3","","","","","","","","","","","","","","","","","","","2230","",""
"html-keyboard-response","47","85520","0.0-22.0-0.0","","1127.6000000014901","<div style=""display: flex; flex-direction: column; align-items: center; margin-top: -40px;""><img src=""images/pattern_3.png"" style=""width: 234px; height: 230px; margin-top: -50px;""><div style=""display: flex; justify-content: space-between; margin-top: 33px;""><img src=""images/choice_trial_12.png"" style=""width: 408px; height: 417px; margin-right: 200px;""><img src=""images/choice_trial_14.png"" style=""width: 408px; height: 417px;""></div></div>","j","delaylearn","learning","trial","5f1caff8d9003412a7748b0e","Eo0yoheKUUYejDv5nTsUPnvZ5aC3","2","images/choice_trial_12.png","images/choice_trial_14.png","images/pattern_3.png","f","f","7000","12","14","2","0","9","0","0","14","60","","","","",""
"html-keyboard-response","48","86530","0.0-22.0-1.0","","null","<div style=""display: flex; flex-direction: column; align-items: center; margin-top: -40px;""><img src=""images/pattern_3.png"" style=""width: 234px; height: 230px; margin-top: -50px;""><div style=""display: flex; justify-content: space-between; margin-top: 33px;""><img src=""images/choice_trial_14.png"" style=""width: 408px; height: 417px; margin-left:608px;""></div></div>","null","delaylearn","learning","display_response","5f1caff8d9003412a7748b0e","Eo0yoheKUUYejDv5nTsUPnvZ5aC3","","","","","","","","","","","","","","","","","chosen stimuli: images/choice_trial_14.png","","","",""
"html-keyboard-response","49","93538","0.0-22.0-2.0","","null","","null","delaylearn","learning","feedback_duration_window","5f1caff8d9003412a7748b0e","Eo0yoheKUUYejDv5nTsUPnvZ5aC3","","","","","","","","","","","","","","","","","","7000","","",""
"html-keyboard-response","50","95048","0.0-22.0-3.0","","null","<div style='margin:auto;width: auto; font-size: 150%'><span style='font-weight: bold; font-size: 100px; color: red;'>0 points!</span><br><br></div>","null","delaylearn","learning","feedback_image_window","5f1caff8d9003412a7748b0e","Eo0yoheKUUYejDv5nTsUPnvZ5aC3","","","","","","","","","","","","","","","","","","","","",""
"html-keyboard-response","51","97058","0.0-23.0","","null","<div style=""font-size:100px;"">+</div>","null","delaylearn","learning","ITI","5f1caff8d9003412a7748b0e","Eo0yoheKUUYejDv5nTsUPnvZ5aC3","","","","","","","","","","","","","","","","","","","2008","",""
"html-keyboard-response","52","98776","0.0-24.0-0.0","","1714.5","<div style=""display: flex; flex-direction: column; align-items: center; margin-top: -40px;""><img src=""images/pattern_7.png"" style=""width: 234px; height: 230px; margin-top: -50px;""><div style=""display: flex; justify-content: space-between; margin-top: 33px;""><img src=""images/choice_trial_15.png"" style=""width: 408px; height: 417px; margin-right: 200px;""><img src=""images/choice_trial_8.png"" style=""width: 408px; height: 417px;""></div></div>","j","delaylearn","learning","trial","5f1caff8d9003412a7748b0e","Eo0yoheKUUYejDv5nTsUPnvZ5aC3","2","images/choice_trial_15.png","images/choice_trial_8.png","images/pattern_7.png","j","j","750","15","8","6","1","10","1","1","8","70","","","","",""
"html-keyboard-response","53","99788","0.0-24.0-1.0","","null","<div style=""display: flex; flex-direction: column; align-items: center; margin-top: -40px;""><img src=""images/pattern_7.png"" style=""width: 234px; height: 230px; margin-top: -50px;""><div style=""display: flex; justify-content: space-between; margin-top: 33px;""><img src=""images/choice_trial_8.png"" style=""width: 408px; height: 417px; margin-left:608px;""></div></div>","null","delaylearn","learning","display_response","5f1caff8d9003412a7748b0e","Eo0yoheKUUYejDv5nTsUPnvZ5aC3","","","","","","","","","","","","","","","","","chosen stimuli: images/choice_trial_8.png","","","",""
"html-keyboard-response","54","100554","0.0-24.0-2.0","","null","","null","delaylearn","learning","feedback_duration_window","5f1caff8d9003412a7748b0e","Eo0yoheKUUYejDv5nTsUPnvZ5aC3","","","","","","","","","","","","","","","","","","750","","",""
"html-keyboard-response","55","102061","0.0-24.0-3.0","","null","<div style='margin:auto;width: auto; font-size: 150%'><span style='font-weight: bold; font-size: 100px; color: green;'>+10 points!</span><br><br></div>","null","delaylearn","learning","feedback_image_window","5f1caff8d9003412a7748b0e","Eo0yoheKUUYejDv5nTsUPnvZ5aC3","","","","","","","","","","","","","","","","","","","","",""
"html-keyboard-response","56","103692","0.0-25.0","","null","<div style=""font-size:100px;"">+</div>","null","delaylearn","learning","ITI","5f1caff8d9003412a7748b0e","Eo0yoheKUUYejDv5nTsUPnvZ5aC3","","","","","","","","","","","","","","","","","","","1614","",""
"html-keyboard-response","57","105451","0.0-26.0-0.0","","1755.8999999985099","<div style=""display: flex; flex-direction: column; align-items: center; margin-top: -40px;""><img src=""images/pattern_4.png"" style=""width: 234px; height: 230px; margin-top: -50px;""><div style=""display: flex; justify-content: space-between; margin-top: 33px;""><img src=""images/choice_trial_4.png"" style=""width: 408px; height: 417px; margin-right: 200px;""><img src=""images/choice_trial_16.png"" style=""width: 408px; height: 417px;""></div></div>","j","delaylearn","learning","trial","5f1caff8d9003412a7748b0e","Eo0yoheKUUYejDv5nTsUPnvZ5aC3","2","images/choice_trial_4.png","images/choice_trial_16.png","images/pattern_4.png","f","f","7000","4","16","3","0","11","0","0","16","70","","","","",""
"html-keyboard-response","58","106454","0.0-26.0-1.0","","null","<div style=""display: flex; flex-direction: column; align-items: center; margin-top: -40px;""><img src=""images/pattern_4.png"" style=""width: 234px; height: 230px; margin-top: -50px;""><div style=""display: flex; justify-content: space-between; margin-top: 33px;""><img src=""images/choice_trial_16.png"" style=""width: 408px; height: 417px; margin-left:608px;""></div></div>","null","delaylearn","learning","display_response","5f1caff8d9003412a7748b0e","Eo0yoheKUUYejDv5nTsUPnvZ5aC3","","","","","","","","","","","","","","","","","chosen stimuli: images/choice_trial_16.png","","","",""
"html-keyboard-response","59","113456","0.0-26.0-2.0","","null","","null","delaylearn","learning","feedback_duration_window","5f1caff8d9003412a7748b0e","Eo0yoheKUUYejDv5nTsUPnvZ5aC3","","","","","","","","","","","","","","","","","","7000","","",""
"html-keyboard-response","60","114963","0.0-26.0-3.0","","null","<div style='margin:auto;width: auto; font-size: 150%'><span style='font-weight: bold; font-size: 100px; color: red;'>0 points!</span><br><br></div>","null","delaylearn","learning","feedback_image_window","5f1caff8d9003412a7748b0e","Eo0yoheKUUYejDv5nTsUPnvZ5aC3","","","","","","","","","","","","","","","","","","","","",""
"html-keyboard-response","61","117018","0.0-27.0","","null","<div style=""font-size:100px;"">+</div>","null","delaylearn","learning","ITI","5f1caff8d9003412a7748b0e","Eo0yoheKUUYejDv5nTsUPnvZ5aC3","","","","","","","","","","","","","","","","","","","2042","",""
"html-keyboard-response","62","118440","0.0-28.0-0.0","","1416.5","<div style=""display: flex; flex-direction: column; align-items: center; margin-top: -40px;""><img src=""images/pattern_5.png"" style=""width: 234px; height: 230px; margin-top: -50px;""><div style=""display: flex; justify-content: space-between; margin-top: 33px;""><img src=""images/choice_trial_9.png"" style=""width: 408px; height: 417px; margin-right: 200px;""><img src=""images/choice_trial_2.png"" style=""width: 408px; height: 417px;""></div></div>","f","delaylearn","learning","trial","5f1caff8d9003412a7748b0e","Eo0yoheKUUYejDv5nTsUPnvZ5aC3","2","images/choice_trial_9.png","images/choice_trial_2.png","images/pattern_5.png","j","j","750","9","2","4","1","12","0","0","9","70","","","","",""
"html-keyboard-response","63","119444","0.0-28.0-1.0","","null","<div style=""display: flex; flex-direction: column; align-items: center; margin-top: -40px;""><img src=""images/pattern_5.png"" style=""width: 234px; height: 230px; margin-top: -50px;""><div style=""display: flex; justify-content: space-between; margin-top: 33px;""><img src=""images/choice_trial_9.png"" style=""width: 408px; height: 417px; margin-right: 608px;""></div></div>","null","delaylearn","learning","display_response","5f1caff8d9003412a7748b0e","Eo0yoheKUUYejDv5nTsUPnvZ5aC3","","","","","","","","","","","","","","","","","chosen stimuli: images/choice_trial_9.png","","","",""
"html-keyboard-response","64","120200","0.0-28.0-2.0","","null","","null","delaylearn","learning","feedback_duration_window","5f1caff8d9003412a7748b0e","Eo0yoheKUUYejDv5nTsUPnvZ5aC3","","","","","","","","","","","","","","","","","","750","","",""
"html-keyboard-response","65","121709","0.0-28.0-3.0","","null","<div style='margin:auto;width: auto; font-size: 150%'><span style='font-weight: bold; font-size: 100px; color: red;'>0 points!</span><br><br></div>","null","delaylearn","learning","feedback_image_window","5f1caff8d9003412a7748b0e","Eo0yoheKUUYejDv5nTsUPnvZ5aC3","","","","","","","","","","","","","","","","","","","","",""
"html-keyboard-response","66","123349","0.0-29.0","","null","<div style=""font-size:100px;"">+</div>","null","delaylearn","learning","ITI","5f1caff8d9003412a7748b0e","Eo0yoheKUUYejDv5nTsUPnvZ5aC3","","","","","","","","","","","","","","","","","","","1630","",""
"html-keyboard-response","67","125424","0.0-30.0-0.0","","2071","<div style=""display: flex; flex-direction: column; align-items: center; margin-top: -40px;""><img src=""images/pattern_6.png"" style=""width: 234px; height: 230px; margin-top: -50px;""><div style=""display: flex; justify-content: space-between; margin-top: 33px;""><img src=""images/choice_trial_11.png"" style=""width: 408px; height: 417px; margin-right: 200px;""><img src=""images/choice_trial_5.png"" style=""width: 408px; height: 417px;""></div></div>","j","delaylearn","learning","trial","5f1caff8d9003412a7748b0e","Eo0yoheKUUYejDv5nTsUPnvZ5aC3","2","images/choice_trial_11.png","images/choice_trial_5.png","images/pattern_6.png","j","f","750","11","5","5","0","13","0","1","5","80","","","","",""
"html-keyboard-response","68","126430","0.0-30.0-1.0","","null","<div style=""display: flex; flex-direction: column; align-items: center; margin-top: -40px;""><img src=""images/pattern_6.png"" style=""width: 234px; height: 230px; margin-top: -50px;""><div style=""display: flex; justify-content: space-between; margin-top: 33px;""><img src=""images/choice_trial_5.png"" style=""width: 408px; height: 417px; margin-left:608px;""></div></div>","null","delaylearn","learning","display_response","5f1caff8d9003412a7748b0e","Eo0yoheKUUYejDv5nTsUPnvZ5aC3","","","","","","","","","","","","","","","","","chosen stimuli: images/choice_trial_5.png","","","",""
"html-keyboard-response","69","127204","0.0-30.0-2.0","","null","","null","delaylearn","learning","feedback_duration_window","5f1caff8d9003412a7748b0e","Eo0yoheKUUYejDv5nTsUPnvZ5aC3","","","","","","","","","","","","","","","","","","750","","",""
"html-keyboard-response","70","128710","0.0-30.0-3.0","","null","<div style='margin:auto;width: auto; font-size: 150%'><span style='font-weight: bold; font-size: 100px; color: green;'>+10 points!</span><br><br></div>","null","delaylearn","learning","feedback_image_window","5f1caff8d9003412a7748b0e","Eo0yoheKUUYejDv5nTsUPnvZ5aC3","","","","","","","","","","","","","","","","","","","","",""
"html-keyboard-response","71","129212","0.0-31.0-0.0","","null","","null","","","mood_trial_fixation","","","","","","","","","","","","","","","","","","","","","","",""
"lmdlab-html-vas-response","72","132825","0.0-31.0-1.0","","2606","How happy are you right now?","0.4788049425287627","delaylearn","learning","mood_trial","5f1caff8d9003412a7748b0e","Eo0yoheKUUYejDv5nTsUPnvZ5aC3","","","","","","","","","","","","","","","","","","","","[""Very unhappy"",""Very happy""]",""
"html-keyboard-response","73","134749","0.0-32.0","","null","<div style=""font-size:100px;"">+</div>","null","delaylearn","learning","ITI","5f1caff8d9003412a7748b0e","Eo0yoheKUUYejDv5nTsUPnvZ5aC3","","","","","","","","","","","","","","","","","","","1907","",""
"html-keyboard-response","74","136485","0.0-33.0-0.0","","1731.800000000745","<div style=""display: flex; flex-direction: column; align-items: center; margin-top: -40px;""><img src=""images/pattern_1.png"" style=""width: 234px; height: 230px; margin-top: -50px;""><div style=""display: flex; justify-content: space-between; margin-top: 33px;""><img src=""images/choice_trial_10.png"" style=""width: 408px; height: 417px; margin-right: 200px;""><img src=""images/choice_trial_3.png"" style=""width: 408px; height: 417px;""></div></div>","j","delaylearn","learning","trial","5f1caff8d9003412a7748b0e","Eo0yoheKUUYejDv5nTsUPnvZ5aC3","2","images/choice_trial_10.png","images/choice_trial_3.png","images/pattern_1.png","j","j","7000","10","3","1","1","14","1","1","3","90","","","","",""
"html-keyboard-response","75","137494","0.0-33.0-1.0","","null","<div style=""display: flex; flex-direction: column; align-items: center; margin-top: -40px;""><img src=""images/pattern_1.png"" style=""width: 234px; height: 230px; margin-top: -50px;""><div style=""display: flex; justify-content: space-between; margin-top: 33px;""><img src=""images/choice_trial_3.png"" style=""width: 408px; height: 417px; margin-left:608px;""></div></div>","null","delaylearn","learning","display_response","5f1caff8d9003412a7748b0e","Eo0yoheKUUYejDv5nTsUPnvZ5aC3","","","","","","","","","","","","","","","","","chosen stimuli: images/choice_trial_3.png","","","",""
"html-keyboard-response","76","144506","0.0-33.0-2.0","","null","","null","delaylearn","learning","feedback_duration_window","5f1caff8d9003412a7748b0e","Eo0yoheKUUYejDv5nTsUPnvZ5aC3","","","","","","","","","","","","","","","","","","7000","","",""
"html-keyboard-response","77","146012","0.0-33.0-3.0","","null","<div style='margin:auto;width: auto; font-size: 150%'><span style='font-weight: bold; font-size: 100px; color: green;'>+10 points!</span><br><br></div>","null","delaylearn","learning","feedback_image_window","5f1caff8d9003412a7748b0e","Eo0yoheKUUYejDv5nTsUPnvZ5aC3","","","","","","","","","","","","","","","","","","","","",""
"html-keyboard-response","78","148291","0.0-34.0","","null","<div style=""font-size:100px;"">+</div>","null","delaylearn","learning","ITI","5f1caff8d9003412a7748b0e","Eo0yoheKUUYejDv5nTsUPnvZ5aC3","","","","","","","","","","","","","","","","","","","2264","",""
"html-keyboard-response","79","150074","0.0-35.0-0.0","","1778.0999999977648","<div style=""display: flex; flex-direction: column; align-items: center; margin-top: -40px;""><img src=""images/pattern_3.png"" style=""width: 234px; height: 230px; margin-top: -50px;""><div style=""display: flex; justify-content: space-between; margin-top: 33px;""><img src=""images/choice_trial_14.png"" style=""width: 408px; height: 417px; margin-right: 200px;""><img src=""images/choice_trial_12.png"" style=""width: 408px; height: 417px;""></div></div>","j","delaylearn","learning","trial","5f1caff8d9003412a7748b0e","Eo0yoheKUUYejDv5nTsUPnvZ5aC3","2","images/choice_trial_14.png","images/choice_trial_12.png","images/pattern_3.png","f","j","7000","14","12","2","1","15","1","0","12","90","","","","",""
"html-keyboard-response","80","151084","0.0-35.0-1.0","","null","<div style=""display: flex; flex-direction: column; align-items: center; margin-top: -40px;""><img src=""images/pattern_3.png"" style=""width: 234px; height: 230px; margin-top: -50px;""><div style=""display: flex; justify-content: space-between; margin-top: 33px;""><img src=""images/choice_trial_12.png"" style=""width: 408px; height: 417px; margin-left:608px;""></div></div>","null","delaylearn","learning","display_response","5f1caff8d9003412a7748b0e","Eo0yoheKUUYejDv5nTsUPnvZ5aC3","","","","","","","","","","","","","","","","","chosen stimuli: images/choice_trial_12.png","","","",""
"html-keyboard-response","81","158090","0.0-35.0-2.0","","null","","null","delaylearn","learning","feedback_duration_window","5f1caff8d9003412a7748b0e","Eo0yoheKUUYejDv5nTsUPnvZ5aC3","","","","","","","","","","","","","","","","","","7000","","",""
"html-keyboard-response","82","159596","0.0-35.0-3.0","","null","<div style='margin:auto;width: auto; font-size: 150%'><span style='font-weight: bold; font-size: 100px; color: red;'>0 points!</span><br><br></div>","null","delaylearn","learning","feedback_image_window","5f1caff8d9003412a7748b0e","Eo0yoheKUUYejDv5nTsUPnvZ5aC3","","","","","","","","","","","","","","","","","","","","",""
"html-keyboard-response","83","161255","0.0-36.0","","null","<div style=""font-size:100px;"">+</div>","null","delaylearn","learning","ITI","5f1caff8d9003412a7748b0e","Eo0yoheKUUYejDv5nTsUPnvZ5aC3","","","","","","","","","","","","","","","","","","","1635","",""
"html-keyboard-response","84","163030","0.0-37.0-0.0","","1771.199999999255","<div style=""display: flex; flex-direction: column; align-items: center; margin-top: -40px;""><img src=""images/pattern_5.png"" style=""width: 234px; height: 230px; margin-top: -50px;""><div style=""display: flex; justify-content: space-between; margin-top: 33px;""><img src=""images/choice_trial_2.png"" style=""width: 408px; height: 417px; margin-right: 200px;""><img src=""images/choice_trial_9.png"" style=""width: 408px; height: 417px;""></div></div>","f","delaylearn","learning","trial","5f1caff8d9003412a7748b0e","Eo0yoheKUUYejDv5nTsUPnvZ5aC3","2","images/choice_trial_2.png","images/choice_trial_9.png","images/pattern_5.png","f","f","750","2","9","4","0","16","1","1","2","100","","","","",""
"html-keyboard-response","85","164047","0.0-37.0-1.0","","null","<div style=""display: flex; flex-direction: column; align-items: center; margin-top: -40px;""><img src=""images/pattern_5.png"" style=""width: 234px; height: 230px; margin-top: -50px;""><div style=""display: flex; justify-content: space-between; margin-top: 33px;""><img src=""images/choice_trial_2.png"" style=""width: 408px; height: 417px; margin-right: 608px;""></div></div>","null","delaylearn","learning","display_response","5f1caff8d9003412a7748b0e","Eo0yoheKUUYejDv5nTsUPnvZ5aC3","","","","","","","","","","","","","","","","","chosen stimuli: images/choice_trial_2.png","","","",""
"html-keyboard-response","86","164804","0.0-37.0-2.0","","null","","null","delaylearn","learning","feedback_duration_window","5f1caff8d9003412a7748b0e","Eo0yoheKUUYejDv5nTsUPnvZ5aC3","","","","","","","","","","","","","","","","","","750","","",""
"html-keyboard-response","87","166312","0.0-37.0-3.0","","null","<div style='margin:auto;width: auto; font-size: 150%'><span style='font-weight: bold; font-size: 100px; color: green;'>+10 points!</span><br><br></div>","null","delaylearn","learning","feedback_image_window","5f1caff8d9003412a7748b0e","Eo0yoheKUUYejDv5nTsUPnvZ5aC3","","","","","","","","","","","","","","","","","","","","",""
"html-keyboard-response","88","166830","0.0-38.0-0.0","","null","","null","","","mood_trial_fixation","","","","","","","","","","","","","","","","","","","","","","",""
"lmdlab-html-vas-response","89","171010","0.0-38.0-1.0","","3174","How happy are you right now?","0.5212432121350695","delaylearn","learning","mood_trial","5f1caff8d9003412a7748b0e","Eo0yoheKUUYejDv5nTsUPnvZ5aC3","","","","","","","","","","","","","","","","","","","","[""Very unhappy"",""Very happy""]",""
"html-keyboard-response","90","172648","0.0-39.0","","null","<div style=""font-size:100px;"">+</div>","null","delaylearn","learning","ITI","5f1caff8d9003412a7748b0e","Eo0yoheKUUYejDv5nTsUPnvZ5aC3","","","","","","","","","","","","","","","","","","","1620","",""
"html-keyboard-response","91","173750","0.0-40.0-0.0","","1098.8999999985099","<div style=""display: flex; flex-direction: column; align-items: center; margin-top: -40px;""><img src=""images/pattern_6.png"" style=""width: 234px; height: 230px; margin-top: -50px;""><div style=""display: flex; justify-content: space-between; margin-top: 33px;""><img src=""images/choice_trial_11.png"" style=""width: 408px; height: 417px; margin-right: 200px;""><img src=""images/choice_trial_5.png"" style=""width: 408px; height: 417px;""></div></div>","j","delaylearn","learning","trial","5f1caff8d9003412a7748b0e","Eo0yoheKUUYejDv5nTsUPnvZ5aC3","2","images/choice_trial_11.png","images/choice_trial_5.png","images/pattern_6.png","f","f","750","11","5","5","0","17","0","0","5","100","","","","",""
"html-keyboard-response","92","174756","0.0-40.0-1.0","","null","<div style=""display: flex; flex-direction: column; align-items: center; margin-top: -40px;""><img src=""images/pattern_6.png"" style=""width: 234px; height: 230px; margin-top: -50px;""><div style=""display: flex; justify-content: space-between; margin-top: 33px;""><img src=""images/choice_trial_5.png"" style=""width: 408px; height: 417px; margin-left:608px;""></div></div>","null","delaylearn","learning","display_response","5f1caff8d9003412a7748b0e","Eo0yoheKUUYejDv5nTsUPnvZ5aC3","","","","","","","","","","","","","","","","","chosen stimuli: images/choice_trial_5.png","","","",""
"html-keyboard-response","93","175513","0.0-40.0-2.0","","null","","null","delaylearn","learning","feedback_duration_window","5f1caff8d9003412a7748b0e","Eo0yoheKUUYejDv5nTsUPnvZ5aC3","","","","","","","","","","","","","","","","","","750","","",""
"html-keyboard-response","94","177017","0.0-40.0-3.0","","null","<div style='margin:auto;width: auto; font-size: 150%'><span style='font-weight: bold; font-size: 100px; color: red;'>0 points!</span><br><br></div>","null","delaylearn","learning","feedback_image_window","5f1caff8d9003412a7748b0e","Eo0yoheKUUYejDv5nTsUPnvZ5aC3","","","","","","","","","","","","","","","","","","","","",""
"html-keyboard-response","95","179325","0.0-41.0","","null","<div style=""font-size:100px;"">+</div>","null","delaylearn","learning","ITI","5f1caff8d9003412a7748b0e","Eo0yoheKUUYejDv5nTsUPnvZ5aC3","","","","","","","","","","","","","","","","","","","2292","",""
"html-keyboard-response","96","180071","0.0-42.0-0.0","","742.1000000014901","<div style=""display: flex; flex-direction: column; align-items: center; margin-top: -40px;""><img src=""images/pattern_4.png"" style=""width: 234px; height: 230px; margin-top: -50px;""><div style=""display: flex; justify-content: space-between; margin-top: 33px;""><img src=""images/choice_trial_16.png"" style=""width: 408px; height: 417px; margin-right: 200px;""><img src=""images/choice_trial_4.png"" style=""width: 408px; height: 417px;""></div></div>","f","delaylearn","learning","trial","5f1caff8d9003412a7748b0e","Eo0yoheKUUYejDv5nTsUPnvZ5aC3","2","images/choice_trial_16.png","images/choice_trial_4.png","images/pattern_4.png","j","j","7000","16","4","3","1","18","0","0","16","100","","","","",""
"html-keyboard-response","97","181079","0.0-42.0-1.0","","null","<div style=""display: flex; flex-direction: column; align-items: center; margin-top: -40px;""><img src=""images/pattern_4.png"" style=""width: 234px; height: 230px; margin-top: -50px;""><div style=""display: flex; justify-content: space-between; margin-top: 33px;""><img src=""images/choice_trial_16.png"" style=""width: 408px; height: 417px; margin-right: 608px;""></div></div>","null","delaylearn","learning","display_response","5f1caff8d9003412a7748b0e","Eo0yoheKUUYejDv5nTsUPnvZ5aC3","","","","","","","","","","","","","","","","","chosen stimuli: images/choice_trial_16.png","","","",""
"html-keyboard-response","98","188094","0.0-42.0-2.0","","null","","null","delaylearn","learning","feedback_duration_window","5f1caff8d9003412a7748b0e","Eo0yoheKUUYejDv5nTsUPnvZ5aC3","","","","","","","","","","","","","","","","","","7000","","",""
"html-keyboard-response","99","189600","0.0-42.0-3.0","","null","<div style='margin:auto;width: auto; font-size: 150%'><span style='font-weight: bold; font-size: 100px; color: red;'>0 points!</span><br><br></div>","null","delaylearn","learning","feedback_image_window","5f1caff8d9003412a7748b0e","Eo0yoheKUUYejDv5nTsUPnvZ5aC3","","","","","","","","","","","","","","","","","","","","",""
"html-keyboard-response","100","191913","0.0-43.0","","null","<div style=""font-size:100px;"">+</div>","null","delaylearn","learning","ITI","5f1caff8d9003412a7748b0e","Eo0yoheKUUYejDv5nTsUPnvZ5aC3","","","","","","","","","","","","","","","","","","","2310","",""
"html-keyboard-response","101","194000","0.0-44.0-0.0","","2081.199999999255","<div style=""display: flex; flex-direction: column; align-items: center; margin-top: -40px;""><img src=""images/pattern_7.png"" style=""width: 234px; height: 230px; margin-top: -50px;""><div style=""display: flex; justify-content: space-between; margin-top: 33px;""><img src=""images/choice_trial_8.png"" style=""width: 408px; height: 417px; margin-right: 200px;""><img src=""images/choice_trial_15.png"" style=""width: 408px; height: 417px;""></div></div>","j","delaylearn","learning","trial","5f1caff8d9003412a7748b0e","Eo0yoheKUUYejDv5nTsUPnvZ5aC3","2","images/choice_trial_8.png","images/choice_trial_15.png","images/pattern_7.png","j","f","750","8","15","6","0","19","0","1","15","110","","","","",""
"html-keyboard-response","102","195012","0.0-44.0-1.0","","null","<div style=""display: flex; flex-direction: column; align-items: center; margin-top: -40px;""><img src=""images/pattern_7.png"" style=""width: 234px; height: 230px; margin-top: -50px;""><div style=""display: flex; justify-content: space-between; margin-top: 33px;""><img src=""images/choice_trial_15.png"" style=""width: 408px; height: 417px; margin-left:608px;""></div></div>","null","delaylearn","learning","display_response","5f1caff8d9003412a7748b0e","Eo0yoheKUUYejDv5nTsUPnvZ5aC3","","","","","","","","","","","","","","","","","chosen stimuli: images/choice_trial_15.png","","","",""
"html-keyboard-response","103","195777","0.0-44.0-2.0","","null","","null","delaylearn","learning","feedback_duration_window","5f1caff8d9003412a7748b0e","Eo0yoheKUUYejDv5nTsUPnvZ5aC3","","","","","","","","","","","","","","","","","","750","","",""
"html-keyboard-response","104","197285","0.0-44.0-3.0","","null","<div style='margin:auto;width: auto; font-size: 150%'><span style='font-weight: bold; font-size: 100px; color: green;'>+10 points!</span><br><br></div>","null","delaylearn","learning","feedback_image_window","5f1caff8d9003412a7748b0e","Eo0yoheKUUYejDv5nTsUPnvZ5aC3","","","","","","","","","","","","","","","","","","","","",""
"html-keyboard-response","105","199079","0.0-45.0","","null","<div style=""font-size:100px;"">+</div>","null","delaylearn","learning","ITI","5f1caff8d9003412a7748b0e","Eo0yoheKUUYejDv5nTsUPnvZ5aC3","","","","","","","","","","","","","","","","","","","1791","",""
"html-keyboard-response","106","201086","0.0-46.0-0.0","","2003.2999999970198","<div style=""display: flex; flex-direction: column; align-items: center; margin-top: -40px;""><img src=""images/pattern_1.png"" style=""width: 234px; height: 230px; margin-top: -50px;""><div style=""display: flex; justify-content: space-between; margin-top: 33px;""><img src=""images/choice_trial_3.png"" style=""width: 408px; height: 417px; margin-right: 200px;""><img src=""images/choice_trial_10.png"" style=""width: 408px; height: 417px;""></div></div>","j","delaylearn","learning","trial","5f1caff8d9003412a7748b0e","Eo0yoheKUUYejDv5nTsUPnvZ5aC3","2","images/choice_trial_3.png","images/choice_trial_10.png","images/pattern_1.png","f","f","7000","3","10","1","0","20","0","0","10","110","","","","",""
"html-keyboard-response","107","202096","0.0-46.0-1.0","","null","<div style=""display: flex; flex-direction: column; align-items: center; margin-top: -40px;""><img src=""images/pattern_1.png"" style=""width: 234px; height: 230px; margin-top: -50px;""><div style=""display: flex; justify-content: space-between; margin-top: 33px;""><img src=""images/choice_trial_10.png"" style=""width: 408px; height: 417px; margin-left:608px;""></div></div>","null","delaylearn","learning","display_response","5f1caff8d9003412a7748b0e","Eo0yoheKUUYejDv5nTsUPnvZ5aC3","","","","","","","","","","","","","","","","","chosen stimuli: images/choice_trial_10.png","","","",""
"html-keyboard-response","108","209128","0.0-46.0-2.0","","null","","null","delaylearn","learning","feedback_duration_window","5f1caff8d9003412a7748b0e","Eo0yoheKUUYejDv5nTsUPnvZ5aC3","","","","","","","","","","","","","","","","","","7000","","",""
"html-keyboard-response","109","210631","0.0-46.0-3.0","","null","<div style='margin:auto;width: auto; font-size: 150%'><span style='font-weight: bold; font-size: 100px; color: red;'>0 points!</span><br><br></div>","null","delaylearn","learning","feedback_image_window","5f1caff8d9003412a7748b0e","Eo0yoheKUUYejDv5nTsUPnvZ5aC3","","","","","","","","","","","","","","","","","","","","",""
"html-keyboard-response","110","213080","0.0-47.0","","null","<div style=""font-size:100px;"">+</div>","null","delaylearn","learning","ITI","5f1caff8d9003412a7748b0e","Eo0yoheKUUYejDv5nTsUPnvZ5aC3","","","","","","","","","","","","","","","","","","","2441","",""
"html-keyboard-response","111","214968","0.0-48.0-0.0","","1884.199999999255","<div style=""display: flex; flex-direction: column; align-items: center; margin-top: -40px;""><img src=""images/pattern_6.png"" style=""width: 234px; height: 230px; margin-top: -50px;""><div style=""display: flex; justify-content: space-between; margin-top: 33px;""><img src=""images/choice_trial_5.png"" style=""width: 408px; height: 417px; margin-right: 200px;""><img src=""images/choice_trial_11.png"" style=""width: 408px; height: 417px;""></div></div>","j","delaylearn","learning","trial","5f1caff8d9003412a7748b0e","Eo0yoheKUUYejDv5nTsUPnvZ5aC3","2","images/choice_trial_5.png","images/choice_trial_11.png","images/pattern_6.png","j","j","750","5","11","5","1","21","1","1","11","120","","","","",""
"html-keyboard-response","112","215971","0.0-48.0-1.0","","null","<div style=""display: flex; flex-direction: column; align-items: center; margin-top: -40px;""><img src=""images/pattern_6.png"" style=""width: 234px; height: 230px; margin-top: -50px;""><div style=""display: flex; justify-content: space-between; margin-top: 33px;""><img src=""images/choice_trial_11.png"" style=""width: 408px; height: 417px; margin-left:608px;""></div></div>","null","delaylearn","learning","display_response","5f1caff8d9003412a7748b0e","Eo0yoheKUUYejDv5nTsUPnvZ5aC3","","","","","","","","","","","","","","","","","chosen stimuli: images/choice_trial_11.png","","","",""
"html-keyboard-response","113","216727","0.0-48.0-2.0","","null","","null","delaylearn","learning","feedback_duration_window","5f1caff8d9003412a7748b0e","Eo0yoheKUUYejDv5nTsUPnvZ5aC3","","","","","","","","","","","","","","","","","","750","","",""
"html-keyboard-response","114","218234","0.0-48.0-3.0","","null","<div style='margin:auto;width: auto; font-size: 150%'><span style='font-weight: bold; font-size: 100px; color: green;'>+10 points!</span><br><br></div>","null","delaylearn","learning","feedback_image_window","5f1caff8d9003412a7748b0e","Eo0yoheKUUYejDv5nTsUPnvZ5aC3","","","","","","","","","","","","","","","","","","","","",""
"html-keyboard-response","115","220693","0.0-49.0","","null","<div style=""font-size:100px;"">+</div>","null","delaylearn","learning","ITI","5f1caff8d9003412a7748b0e","Eo0yoheKUUYejDv5nTsUPnvZ5aC3","","","","","","","","","","","","","","","","","","","2451","",""
"html-keyboard-response","116","221905","0.0-50.0-0.0","","1208.3999999985099","<div style=""display: flex; flex-direction: column; align-items: center; margin-top: -40px;""><img src=""images/pattern_4.png"" style=""width: 234px; height: 230px; margin-top: -50px;""><div style=""display: flex; justify-content: space-between; margin-top: 33px;""><img src=""images/choice_trial_4.png"" style=""width: 408px; height: 417px; margin-right: 200px;""><img src=""images/choice_trial_16.png"" style=""width: 408px; height: 417px;""></div></div>","f","delaylearn","learning","trial","5f1caff8d9003412a7748b0e","Eo0yoheKUUYejDv5nTsUPnvZ5aC3","2","images/choice_trial_4.png","images/choice_trial_16.png","images/pattern_4.png","f","f","7000","4","16","3","0","22","1","1","4","130","","","","",""
"html-keyboard-response","117","222928","0.0-50.0-1.0","","null","<div style=""display: flex; flex-direction: column; align-items: center; margin-top: -40px;""><img src=""images/pattern_4.png"" style=""width: 234px; height: 230px; margin-top: -50px;""><div style=""display: flex; justify-content: space-between; margin-top: 33px;""><img src=""images/choice_trial_4.png"" style=""width: 408px; height: 417px; margin-right: 608px;""></div></div>","null","delaylearn","learning","display_response","5f1caff8d9003412a7748b0e","Eo0yoheKUUYejDv5nTsUPnvZ5aC3","","","","","","","","","","","","","","","","","chosen stimuli: images/choice_trial_4.png","","","",""
"html-keyboard-response","118","229938","0.0-50.0-2.0","","null","","null","delaylearn","learning","feedback_duration_window","5f1caff8d9003412a7748b0e","Eo0yoheKUUYejDv5nTsUPnvZ5aC3","","","","","","","","","","","","","","","","","","7000","","",""
"html-keyboard-response","119","231446","0.0-50.0-3.0","","null","<div style='margin:auto;width: auto; font-size: 150%'><span style='font-weight: bold; font-size: 100px; color: green;'>+10 points!</span><br><br></div>","null","delaylearn","learning","feedback_image_window","5f1caff8d9003412a7748b0e","Eo0yoheKUUYejDv5nTsUPnvZ5aC3","","","","","","","","","","","","","","","","","","","","",""
"html-keyboard-response","120","231949","0.0-51.0-0.0","","null","","null","","","mood_trial_fixation","","","","","","","","","","","","","","","","","","","","","","",""
"lmdlab-html-vas-response","121","235657","0.0-51.0-1.0","","2701","How happy are you right now?","0.681351229286136","delaylearn","learning","mood_trial","5f1caff8d9003412a7748b0e","Eo0yoheKUUYejDv5nTsUPnvZ5aC3","","","","","","","","","","","","","","","","","","","","[""Very unhappy"",""Very happy""]",""
"html-keyboard-response","122","237540","0.0-52.0","","null","<div style=""font-size:100px;"">+</div>","null","delaylearn","learning","ITI","5f1caff8d9003412a7748b0e","Eo0yoheKUUYejDv5nTsUPnvZ5aC3","","","","","","","","","","","","","","","","","","","1878","",""
"html-keyboard-response","123","239100","0.0-53.0-0.0","","1558.199999999255","<div style=""display: flex; flex-direction: column; align-items: center; margin-top: -40px;""><img src=""images/pattern_7.png"" style=""width: 234px; height: 230px; margin-top: -50px;""><div style=""display: flex; justify-content: space-between; margin-top: 33px;""><img src=""images/choice_trial_15.png"" style=""width: 408px; height: 417px; margin-right: 200px;""><img src=""images/choice_trial_8.png"" style=""width: 408px; height: 417px;""></div></div>","f","delaylearn","learning","trial","5f1caff8d9003412a7748b0e","Eo0yoheKUUYejDv5nTsUPnvZ5aC3","2","images/choice_trial_15.png","images/choice_trial_8.png","images/pattern_7.png","j","j","750","15","8","6","1","23","0","0","15","130","","","","",""
"html-keyboard-response","124","240122","0.0-53.0-1.0","","null","<div style=""display: flex; flex-direction: column; align-items: center; margin-top: -40px;""><img src=""images/pattern_7.png"" style=""width: 234px; height: 230px; margin-top: -50px;""><div style=""display: flex; justify-content: space-between; margin-top: 33px;""><img src=""images/choice_trial_15.png"" style=""width: 408px; height: 417px; margin-right: 608px;""></div></div>","null","delaylearn","learning","display_response","5f1caff8d9003412a7748b0e","Eo0yoheKUUYejDv5nTsUPnvZ5aC3","","","","","","","","","","","","","","","","","chosen stimuli: images/choice_trial_15.png","","","",""
"html-keyboard-response","125","240887","0.0-53.0-2.0","","null","","null","delaylearn","learning","feedback_duration_window","5f1caff8d9003412a7748b0e","Eo0yoheKUUYejDv5nTsUPnvZ5aC3","","","","","","","","","","","","","","","","","","750","","",""
"html-keyboard-response","126","242395","0.0-53.0-3.0","","null","<div style='margin:auto;width: auto; font-size: 150%'><span style='font-weight: bold; font-size: 100px; color: red;'>0 points!</span><br><br></div>","null","delaylearn","learning","feedback_image_window","5f1caff8d9003412a7748b0e","Eo0yoheKUUYejDv5nTsUPnvZ5aC3","","","","","","","","","","","","","","","","","","","","",""
"html-keyboard-response","127","244240","0.0-54.0","","null","<div style=""font-size:100px;"">+</div>","null","delaylearn","learning","ITI","5f1caff8d9003412a7748b0e","Eo0yoheKUUYejDv5nTsUPnvZ5aC3","","","","","","","","","","","","","","","","","","","1839","",""
"html-keyboard-response","128","246019","0.0-55.0-0.0","","1775","<div style=""display: flex; flex-direction: column; align-items: center; margin-top: -40px;""><img src=""images/pattern_1.png"" style=""width: 234px; height: 230px; margin-top: -50px;""><div style=""display: flex; justify-content: space-between; margin-top: 33px;""><img src=""images/choice_trial_10.png"" style=""width: 408px; height: 417px; margin-right: 200px;""><img src=""images/choice_trial_3.png"" style=""width: 408px; height: 417px;""></div></div>","f","delaylearn","learning","trial","5f1caff8d9003412a7748b0e","Eo0yoheKUUYejDv5nTsUPnvZ5aC3","2","images/choice_trial_10.png","images/choice_trial_3.png","images/pattern_1.png","f","j","7000","10","3","1","1","24","0","1","10","140","","","","",""
"html-keyboard-response","129","247031","0.0-55.0-1.0","","null","<div style=""display: flex; flex-direction: column; align-items: center; margin-top: -40px;""><img src=""images/pattern_1.png"" style=""width: 234px; height: 230px; margin-top: -50px;""><div style=""display: flex; justify-content: space-between; margin-top: 33px;""><img src=""images/choice_trial_10.png"" style=""width: 408px; height: 417px; margin-right: 608px;""></div></div>","null","delaylearn","learning","display_response","5f1caff8d9003412a7748b0e","Eo0yoheKUUYejDv5nTsUPnvZ5aC3","","","","","","","","","","","","","","","","","chosen stimuli: images/choice_trial_10.png","","","",""
"html-keyboard-response","130","254034","0.0-55.0-2.0","","null","","null","delaylearn","learning","feedback_duration_window","5f1caff8d9003412a7748b0e","Eo0yoheKUUYejDv5nTsUPnvZ5aC3","","","","","","","","","","","","","","","","","","7000","","",""
"html-keyboard-response","131","255540","0.0-55.0-3.0","","null","<div style='margin:auto;width: auto; font-size: 150%'><span style='font-weight: bold; font-size: 100px; color: green;'>+10 points!</span><br><br></div>","null","delaylearn","learning","feedback_image_window","5f1caff8d9003412a7748b0e","Eo0yoheKUUYejDv5nTsUPnvZ5aC3","","","","","","","","","","","","","","","","","","","","",""
"html-keyboard-response","132","257303","0.0-56.0","","null","<div style=""font-size:100px;"">+</div>","null","delaylearn","learning","ITI","5f1caff8d9003412a7748b0e","Eo0yoheKUUYejDv5nTsUPnvZ5aC3","","","","","","","","","","","","","","","","","","","1740","",""
"html-keyboard-response","133","258888","0.0-57.0-0.0","","1580.199999999255","<div style=""display: flex; flex-direction: column; align-items: center; margin-top: -40px;""><img src=""images/pattern_5.png"" style=""width: 234px; height: 230px; margin-top: -50px;""><div style=""display: flex; justify-content: space-between; margin-top: 33px;""><img src=""images/choice_trial_9.png"" style=""width: 408px; height: 417px; margin-right: 200px;""><img src=""images/choice_trial_2.png"" style=""width: 408px; height: 417px;""></div></div>","j","delaylearn","learning","trial","5f1caff8d9003412a7748b0e","Eo0yoheKUUYejDv5nTsUPnvZ5aC3","2","images/choice_trial_9.png","images/choice_trial_2.png","images/pattern_5.png","j","j","750","9","2","4","1","25","1","1","2","150","","","","",""
"html-keyboard-response","134","259894","0.0-57.0-1.0","","null","<div style=""display: flex; flex-direction: column; align-items: center; margin-top: -40px;""><img src=""images/pattern_5.png"" style=""width: 234px; height: 230px; margin-top: -50px;""><div style=""display: flex; justify-content: space-between; margin-top: 33px;""><img src=""images/choice_trial_2.png"" style=""width: 408px; height: 417px; margin-left:608px;""></div></div>","null","delaylearn","learning","display_response","5f1caff8d9003412a7748b0e","Eo0yoheKUUYejDv5nTsUPnvZ5aC3","","","","","","","","","","","","","","","","","chosen stimuli: images/choice_trial_2.png","","","",""
"html-keyboard-response","135","260652","0.0-57.0-2.0","","null","","null","delaylearn","learning","feedback_duration_window","5f1caff8d9003412a7748b0e","Eo0yoheKUUYejDv5nTsUPnvZ5aC3","","","","","","","","","","","","","","","","","","750","","",""
"html-keyboard-response","136","262160","0.0-57.0-3.0","","null","<div style='margin:auto;width: auto; font-size: 150%'><span style='font-weight: bold; font-size: 100px; color: green;'>+10 points!</span><br><br></div>","null","delaylearn","learning","feedback_image_window","5f1caff8d9003412a7748b0e","Eo0yoheKUUYejDv5nTsUPnvZ5aC3","","","","","","","","","","","","","","","","","","","","",""
"html-keyboard-response","137","264542","0.0-58.0","","null","<div style=""font-size:100px;"">+</div>","null","delaylearn","learning","ITI","5f1caff8d9003412a7748b0e","Eo0yoheKUUYejDv5nTsUPnvZ5aC3","","","","","","","","","","","","","","","","","","","2358","",""
"html-keyboard-response","138","266927","0.0-59.0-0.0","","2381.39999999851","<div style=""display: flex; flex-direction: column; align-items: center; margin-top: -40px;""><img src=""images/pattern_3.png"" style=""width: 234px; height: 230px; margin-top: -50px;""><div style=""display: flex; justify-content: space-between; margin-top: 33px;""><img src=""images/choice_trial_14.png"" style=""width: 408px; height: 417px; margin-right: 200px;""><img src=""images/choice_trial_12.png"" style=""width: 408px; height: 417px;""></div></div>","j","delaylearn","learning","trial","5f1caff8d9003412a7748b0e","Eo0yoheKUUYejDv5nTsUPnvZ5aC3","2","images/choice_trial_14.png","images/choice_trial_12.png","images/pattern_3.png","j","j","7000","14","12","2","1","26","1","1","12","160","","","","",""
"html-keyboard-response","139","267935","0.0-59.0-1.0","","null","<div style=""display: flex; flex-direction: column; align-items: center; margin-top: -40px;""><img src=""images/pattern_3.png"" style=""width: 234px; height: 230px; margin-top: -50px;""><div style=""display: flex; justify-content: space-between; margin-top: 33px;""><img src=""images/choice_trial_12.png"" style=""width: 408px; height: 417px; margin-left:608px;""></div></div>","null","delaylearn","learning","display_response","5f1caff8d9003412a7748b0e","Eo0yoheKUUYejDv5nTsUPnvZ5aC3","","","","","","","","","","","","","","","","","chosen stimuli: images/choice_trial_12.png","","","",""
"html-keyboard-response","140","274949","0.0-59.0-2.0","","null","","null","delaylearn","learning","feedback_duration_window","5f1caff8d9003412a7748b0e","Eo0yoheKUUYejDv5nTsUPnvZ5aC3","","","","","","","","","","","","","","","","","","7000","","",""
"html-keyboard-response","141","276457","0.0-59.0-3.0","","null","<div style='margin:auto;width: auto; font-size: 150%'><span style='font-weight: bold; font-size: 100px; color: green;'>+10 points!</span><br><br></div>","null","delaylearn","learning","feedback_image_window","5f1caff8d9003412a7748b0e","Eo0yoheKUUYejDv5nTsUPnvZ5aC3","","","","","","","","","","","","","","","","","","","","",""
"lmdlab-html-vas-response","142","281876","0.0-60.0-0.0","","3890","*How <b><u>confident</u></b> are you feeling about your answers at this moment?*","0.532793149463364","rewlearn","rate_confidence","","5f1caff8d9003412a7748b0e","Eo0yoheKUUYejDv5nTsUPnvZ5aC3","","","","","","","","","","","","","","","","","","","","[""No confidence"",""Complete confidence""]",""
"lmdlab-rest-trial-limit","143","291794","0.0-60.0-1.0","","8410.199999999255","<div style=""font-size:40px;""><b>Please take a break!</b><br><br><br><br><p>Great work: you earned 160 points.<br><br><br><p>You have completed part(s) 1 of 5.<br><br><br><br>When you are ready to continue<br><br><br>please click the button.</p><br><br>","0","delaylearn","learning","break","5f1caff8d9003412a7748b0e","Eo0yoheKUUYejDv5nTsUPnvZ5aC3","","","","","","","","","","","","","","","","","","","","","0"
"html-keyboard-response","144","294797","0.0-60.0-2.0","","null","<div style=""font-size:100px;"">+</div>","null","delaylearn","learning","pre_fixation","5f1caff8d9003412a7748b0e","","","","","","","","","","","","","","","","","","","","","",""
"lmdlab-html-vas-response","145","298401","0.0-60.0-3.0-0.0","","2597","How happy are you right now?","0.5019530895867482","delaylearn","learning","mood_baseline","5f1caff8d9003412a7748b0e","Eo0yoheKUUYejDv5nTsUPnvZ5aC3","","","","","","","","","","","","","","","","","","","","[""Very unhappy"",""Very happy""]",""
"html-keyboard-response","146","299916","0.0-60.0-3.0-1.0","","null","","null","","","mood_baseline_fixation","","","","","","","","","","","","","","","","","","","","","","",""
"html-keyboard-response","147","301673","0.0-61.0","","null","<div style=""font-size:100px;"">+</div>","null","delaylearn","learning","ITI","5f1caff8d9003412a7748b0e","Eo0yoheKUUYejDv5nTsUPnvZ5aC3","","","","","","","","","","","","","","","","","","","1747","",""
"html-keyboard-response","148","303152","0.0-62.0-0.0","","1473.8999999985099","<div style=""display: flex; flex-direction: column; align-items: center; margin-top: -40px;""><img src=""images/pattern_7.png"" style=""width: 234px; height: 230px; margin-top: -50px;""><div style=""display: flex; justify-content: space-between; margin-top: 33px;""><img src=""images/choice_trial_15.png"" style=""width: 408px; height: 417px; margin-right: 200px;""><img src=""images/choice_trial_8.png"" style=""width: 408px; height: 417px;""></div></div>","j","delaylearn","learning","trial","5f1caff8d9003412a7748b0e","Eo0yoheKUUYejDv5nTsUPnvZ5aC3","2","images/choice_trial_15.png","images/choice_trial_8.png","images/pattern_7.png","j","j","750","15","8","6","1","27","1","1","8","170","","","","",""
"html-keyboard-response","149","304168","0.0-62.0-1.0","","null","<div style=""display: flex; flex-direction: column; align-items: center; margin-top: -40px;""><img src=""images/pattern_7.png"" style=""width: 234px; height: 230px; margin-top: -50px;""><div style=""display: flex; justify-content: space-between; margin-top: 33px;""><img src=""images/choice_trial_8.png"" style=""width: 408px; height: 417px; margin-left:608px;""></div></div>","null","delaylearn","learning","display_response","5f1caff8d9003412a7748b0e","Eo0yoheKUUYejDv5nTsUPnvZ5aC3","","","","","","","","","","","","","","","","","chosen stimuli: images/choice_trial_8.png","","","",""
"html-keyboard-response","150","304923","0.0-62.0-2.0","","null","","null","delaylearn","learning","feedback_duration_window","5f1caff8d9003412a7748b0e","Eo0yoheKUUYejDv5nTsUPnvZ5aC3","","","","","","","","","","","","","","","","","","750","","",""
"html-keyboard-response","151","306430","0.0-62.0-3.0","","null","<div style='margin:auto;width: auto; font-size: 150%'><span style='font-weight: bold; font-size: 100px; color: green;'>+10 points!</span><br><br></div>","null","delaylearn","learning","feedback_image_window","5f1caff8d9003412a7748b0e","Eo0yoheKUUYejDv5nTsUPnvZ5aC3","","","","","","","","","","","","","","","","","","","","",""
"html-keyboard-response","152","306933","0.0-63.0-0.0","","null","","null","","","mood_trial_fixation","","","","","","","","","","","","","","","","","","","","","","",""
"lmdlab-html-vas-response","153","310616","0.0-63.0-1.0","","2679","How happy are you right now?","0.941767883688473","delaylearn","learning","mood_trial","5f1caff8d9003412a7748b0e","Eo0yoheKUUYejDv5nTsUPnvZ5aC3","","","","","","","","","","","","","","","","","","","","[""Very unhappy"",""Very happy""]",""
"html-keyboard-response","154","312941","0.0-64.0","","null","<div style=""font-size:100px;"">+</div>","null","delaylearn","learning","ITI","5f1caff8d9003412a7748b0e","Eo0yoheKUUYejDv5nTsUPnvZ5aC3","","","","","","","","","","","","","","","","","","","2312","",""
"html-keyboard-response","155","315200","0.0-65.0-0.0","","2254.699999999255","<div style=""display: flex; flex-direction: column; align-items: center; margin-top: -40px;""><img src=""images/pattern_1.png"" style=""width: 234px; height: 230px; margin-top: -50px;""><div style=""display: flex; justify-content: space-between; margin-top: 33px;""><img src=""images/choice_trial_3.png"" style=""width: 408px; height: 417px; margin-right: 200px;""><img src=""images/choice_trial_10.png"" style=""width: 408px; height: 417px;""></div></div>","j","delaylearn","learning","trial","5f1caff8d9003412a7748b0e","Eo0yoheKUUYejDv5nTsUPnvZ5aC3","2","images/choice_trial_3.png","images/choice_trial_10.png","images/pattern_1.png","f","f","7000","3","10","1","0","28","0","0","10","170","","","","",""
"html-keyboard-response","156","316205","0.0-65.0-1.0","","null","<div style=""display: flex; flex-direction: column; align-items: center; margin-top: -40px;""><img src=""images/pattern_1.png"" style=""width: 234px; height: 230px; margin-top: -50px;""><div style=""display: flex; justify-content: space-between; margin-top: 33px;""><img src=""images/choice_trial_10.png"" style=""width: 408px; height: 417px; margin-left:608px;""></div></div>","null","delaylearn","learning","display_response","5f1caff8d9003412a7748b0e","Eo0yoheKUUYejDv5nTsUPnvZ5aC3","","","","","","","","","","","","","","","","","chosen stimuli: images/choice_trial_10.png","","","",""
"html-keyboard-response","157","323211","0.0-65.0-2.0","","null","","null","delaylearn","learning","feedback_duration_window","5f1caff8d9003412a7748b0e","Eo0yoheKUUYejDv5nTsUPnvZ5aC3","","","","","","","","","","","","","","","","","","7000","","",""
"html-keyboard-response","158","324716","0.0-65.0-3.0","","null","<div style='margin:auto;width: auto; font-size: 150%'><span style='font-weight: bold; font-size: 100px; color: red;'>0 points!</span><br><br></div>","null","delaylearn","learning","feedback_image_window","5f1caff8d9003412a7748b0e","Eo0yoheKUUYejDv5nTsUPnvZ5aC3","","","","","","","","","","","","","","","","","","","","",""
"html-keyboard-response","159","326960","0.0-66.0","","null","<div style=""font-size:100px;"">+</div>","null","delaylearn","learning","ITI","5f1caff8d9003412a7748b0e","Eo0yoheKUUYejDv5nTsUPnvZ5aC3","","","","","","","","","","","","","","","","","","","2241","",""
"html-keyboard-response","160","328995","0.0-67.0-0.0","","2030.8999999985099","<div style=""display: flex; flex-direction: column; align-items: center; margin-top: -40px;""><img src=""images/pattern_5.png"" style=""width: 234px; height: 230px; margin-top: -50px;""><div style=""display: flex; justify-content: space-between; margin-top: 33px;""><img src=""images/choice_trial_2.png"" style=""width: 408px; height: 417px; margin-right: 200px;""><img src=""images/choice_trial_9.png"" style=""width: 408px; height: 417px;""></div></div>","f","delaylearn","learning","trial","5f1caff8d9003412a7748b0e","Eo0yoheKUUYejDv5nTsUPnvZ5aC3","2","images/choice_trial_2.png","images/choice_trial_9.png","images/pattern_5.png","f","f","750","2","9","4","0","29","1","1","2","180","","","","",""
"html-keyboard-response","161","330007","0.0-67.0-1.0","","null","<div style=""display: flex; flex-direction: column; align-items: center; margin-top: -40px;""><img src=""images/pattern_5.png"" style=""width: 234px; height: 230px; margin-top: -50px;""><div style=""display: flex; justify-content: space-between; margin-top: 33px;""><img src=""images/choice_trial_2.png"" style=""width: 408px; height: 417px; margin-right: 608px;""></div></div>","null","delaylearn","learning","display_response","5f1caff8d9003412a7748b0e","Eo0yoheKUUYejDv5nTsUPnvZ5aC3","","","","","","","","","","","","","","","","","chosen stimuli: images/choice_trial_2.png","","","",""
"html-keyboard-response","162","330763","0.0-67.0-2.0","","null","","null","delaylearn","learning","feedback_duration_window","5f1caff8d9003412a7748b0e","Eo0yoheKUUYejDv5nTsUPnvZ5aC3","","","","","","","","","","","","","","","","","","750","","",""
"html-keyboard-response","163","332271","0.0-67.0-3.0","","null","<div style='margin:auto;width: auto; font-size: 150%'><span style='font-weight: bold; font-size: 100px; color: green;'>+10 points!</span><br><br></div>","null","delaylearn","learning","feedback_image_window","5f1caff8d9003412a7748b0e","Eo0yoheKUUYejDv5nTsUPnvZ5aC3","","","","","","","","","","","","","","","","","","","","",""
"html-keyboard-response","164","333926","0.0-68.0","","null","<div style=""font-size:100px;"">+</div>","null","delaylearn","learning","ITI","5f1caff8d9003412a7748b0e","Eo0yoheKUUYejDv5nTsUPnvZ5aC3","","","","","","","","","","","","","","","","","","","1641","",""
"html-keyboard-response","165","336410","0.0-69.0-0.0","","2480","<div style=""display: flex; flex-direction: column; align-items: center; margin-top: -40px;""><img src=""images/pattern_6.png"" style=""width: 234px; height: 230px; margin-top: -50px;""><div style=""display: flex; justify-content: space-between; margin-top: 33px;""><img src=""images/choice_trial_5.png"" style=""width: 408px; height: 417px; margin-right: 200px;""><img src=""images/choice_trial_11.png"" style=""width: 408px; height: 417px;""></div></div>","j","delaylearn","learning","trial","5f1caff8d9003412a7748b0e","Eo0yoheKUUYejDv5nTsUPnvZ5aC3","2","images/choice_trial_5.png","images/choice_trial_11.png","images/pattern_6.png","j","j","750","5","11","5","1","30","1","1","11","190","","","","",""
"html-keyboard-response","166","337428","0.0-69.0-1.0","","null","<div style=""display: flex; flex-direction: column; align-items: center; margin-top: -40px;""><img src=""images/pattern_6.png"" style=""width: 234px; height: 230px; margin-top: -50px;""><div style=""display: flex; justify-content: space-between; margin-top: 33px;""><img src=""images/choice_trial_11.png"" style=""width: 408px; height: 417px; margin-left:608px;""></div></div>","null","delaylearn","learning","display_response","5f1caff8d9003412a7748b0e","Eo0yoheKUUYejDv5nTsUPnvZ5aC3","","","","","","","","","","","","","","","","","chosen stimuli: images/choice_trial_11.png","","","",""
"html-keyboard-response","167","338185","0.0-69.0-2.0","","null","","null","delaylearn","learning","feedback_duration_window","5f1caff8d9003412a7748b0e","Eo0yoheKUUYejDv5nTsUPnvZ5aC3","","","","","","","","","","","","","","","","","","750","","",""
"html-keyboard-response","168","339692","0.0-69.0-3.0","","null","<div style='margin:auto;width: auto; font-size: 150%'><span style='font-weight: bold; font-size: 100px; color: green;'>+10 points!</span><br><br></div>","null","delaylearn","learning","feedback_image_window","5f1caff8d9003412a7748b0e","Eo0yoheKUUYejDv5nTsUPnvZ5aC3","","","","","","","","","","","","","","","","","","","","",""
"html-keyboard-response","169","340209","0.0-70.0-0.0","","null","","null","","","mood_trial_fixation","","","","","","","","","","","","","","","","","","","","","","",""
"lmdlab-html-vas-response","170","343817","0.0-70.0-1.0","","2601","How happy are you right now?","0.8163820871243848","delaylearn","learning","mood_trial","5f1caff8d9003412a7748b0e","Eo0yoheKUUYejDv5nTsUPnvZ5aC3","","","","","","","","","","","","","","","","","","","","[""Very unhappy"",""Very happy""]",""
"html-keyboard-response","171","345331","0.0-71.0","","null","<div style=""font-size:100px;"">+</div>","null","delaylearn","learning","ITI","5f1caff8d9003412a7748b0e","Eo0yoheKUUYejDv5nTsUPnvZ5aC3","","","","","","","","","","","","","","","","","","","1506","",""
"html-keyboard-response","172","347632","0.0-72.0-0.0","","2295.400000002235","<div style=""display: flex; flex-direction: column; align-items: center; margin-top: -40px;""><img src=""images/pattern_4.png"" style=""width: 234px; height: 230px; margin-top: -50px;""><div style=""display: flex; justify-content: space-between; margin-top: 33px;""><img src=""images/choice_trial_16.png"" style=""width: 408px; height: 417px; margin-right: 200px;""><img src=""images/choice_trial_4.png"" style=""width: 408px; height: 417px;""></div></div>","j","delaylearn","learning","trial","5f1caff8d9003412a7748b0e","Eo0yoheKUUYejDv5nTsUPnvZ5aC3","2","images/choice_trial_16.png","images/choice_trial_4.png","images/pattern_4.png","j","j","7000","16","4","3","1","31","1","1","4","200","","","","",""
"html-keyboard-response","173","348646","0.0-72.0-1.0","","null","<div style=""display: flex; flex-direction: column; align-items: center; margin-top: -40px;""><img src=""images/pattern_4.png"" style=""width: 234px; height: 230px; margin-top: -50px;""><div style=""display: flex; justify-content: space-between; margin-top: 33px;""><img src=""images/choice_trial_4.png"" style=""width: 408px; height: 417px; margin-left:608px;""></div></div>","null","delaylearn","learning","display_response","5f1caff8d9003412a7748b0e","Eo0yoheKUUYejDv5nTsUPnvZ5aC3","","","","","","","","","","","","","","","","","chosen stimuli: images/choice_trial_4.png","","","",""
"html-keyboard-response","174","355650","0.0-72.0-2.0","","null","","null","delaylearn","learning","feedback_duration_window","5f1caff8d9003412a7748b0e","Eo0yoheKUUYejDv5nTsUPnvZ5aC3","","","","","","","","","","","","","","","","","","7000","","",""
"html-keyboard-response","175","357156","0.0-72.0-3.0","","null","<div style='margin:auto;width: auto; font-size: 150%'><span style='font-weight: bold; font-size: 100px; color: green;'>+10 points!</span><br><br></div>","null","delaylearn","learning","feedback_image_window","5f1caff8d9003412a7748b0e","Eo0yoheKUUYejDv5nTsUPnvZ5aC3","","","","","","","","","","","","","","","","","","","","",""
"html-keyboard-response","176","358810","0.0-73.0","","null","<div style=""font-size:100px;"">+</div>","null","delaylearn","learning","ITI","5f1caff8d9003412a7748b0e","Eo0yoheKUUYejDv5nTsUPnvZ5aC3","","","","","","","","","","","","","","","","","","","1646","",""
"html-keyboard-response","177","360714","0.0-74.0-0.0","","1900.6000000014901","<div style=""display: flex; flex-direction: column; align-items: center; margin-top: -40px;""><img src=""images/pattern_3.png"" style=""width: 234px; height: 230px; margin-top: -50px;""><div style=""display: flex; justify-content: space-between; margin-top: 33px;""><img src=""images/choice_trial_14.png"" style=""width: 408px; height: 417px; margin-right: 200px;""><img src=""images/choice_trial_12.png"" style=""width: 408px; height: 417px;""></div></div>","f","delaylearn","learning","trial","5f1caff8d9003412a7748b0e","Eo0yoheKUUYejDv5nTsUPnvZ5aC3","2","images/choice_trial_14.png","images/choice_trial_12.png","images/pattern_3.png","j","j","7000","14","12","2","1","32","0","0","14","200","","","","",""
"html-keyboard-response","178","361727","0.0-74.0-1.0","","null","<div style=""display: flex; flex-direction: column; align-items: center; margin-top: -40px;""><img src=""images/pattern_3.png"" style=""width: 234px; height: 230px; margin-top: -50px;""><div style=""display: flex; justify-content: space-between; margin-top: 33px;""><img src=""images/choice_trial_14.png"" style=""width: 408px; height: 417px; margin-right: 608px;""></div></div>","null","delaylearn","learning","display_response","5f1caff8d9003412a7748b0e","Eo0yoheKUUYejDv5nTsUPnvZ5aC3","","","","","","","","","","","","","","","","","chosen stimuli: images/choice_trial_14.png","","","",""
"html-keyboard-response","179","368741","0.0-74.0-2.0","","null","","null","delaylearn","learning","feedback_duration_window","5f1caff8d9003412a7748b0e","Eo0yoheKUUYejDv5nTsUPnvZ5aC3","","","","","","","","","","","","","","","","","","7000","","",""
"html-keyboard-response","180","370247","0.0-74.0-3.0","","null","<div style='margin:auto;width: auto; font-size: 150%'><span style='font-weight: bold; font-size: 100px; color: red;'>0 points!</span><br><br></div>","null","delaylearn","learning","feedback_image_window","5f1caff8d9003412a7748b0e","Eo0yoheKUUYejDv5nTsUPnvZ5aC3","","","","","","","","","","","","","","","","","","","","",""
"html-keyboard-response","181","372241","0.0-75.0","","null","<div style=""font-size:100px;"">+</div>","null","delaylearn","learning","ITI","5f1caff8d9003412a7748b0e","Eo0yoheKUUYejDv5nTsUPnvZ5aC3","","","","","","","","","","","","","","","","","","","1980","",""
"html-keyboard-response","182","374427","0.0-76.0-0.0","","2181.900000002235","<div style=""display: flex; flex-direction: column; align-items: center; margin-top: -40px;""><img src=""images/pattern_5.png"" style=""width: 234px; height: 230px; margin-top: -50px;""><div style=""display: flex; justify-content: space-between; margin-top: 33px;""><img src=""images/choice_trial_2.png"" style=""width: 408px; height: 417px; margin-right: 200px;""><img src=""images/choice_trial_9.png"" style=""width: 408px; height: 417px;""></div></div>","f","delaylearn","learning","trial","5f1caff8d9003412a7748b0e","Eo0yoheKUUYejDv5nTsUPnvZ5aC3","2","images/choice_trial_2.png","images/choice_trial_9.png","images/pattern_5.png","j","f","750","2","9","4","0","33","1","0","2","200","","","","",""
"html-keyboard-response","183","375443","0.0-76.0-1.0","","null","<div style=""display: flex; flex-direction: column; align-items: center; margin-top: -40px;""><img src=""images/pattern_5.png"" style=""width: 234px; height: 230px; margin-top: -50px;""><div style=""display: flex; justify-content: space-between; margin-top: 33px;""><img src=""images/choice_trial_2.png"" style=""width: 408px; height: 417px; margin-right: 608px;""></div></div>","null","delaylearn","learning","display_response","5f1caff8d9003412a7748b0e","Eo0yoheKUUYejDv5nTsUPnvZ5aC3","","","","","","","","","","","","","","","","","chosen stimuli: images/choice_trial_2.png","","","",""
"html-keyboard-response","184","376208","0.0-76.0-2.0","","null","","null","delaylearn","learning","feedback_duration_window","5f1caff8d9003412a7748b0e","Eo0yoheKUUYejDv5nTsUPnvZ5aC3","","","","","","","","","","","","","","","","","","750","","",""
"html-keyboard-response","185","377715","0.0-76.0-3.0","","null","<div style='margin:auto;width: auto; font-size: 150%'><span style='font-weight: bold; font-size: 100px; color: red;'>0 points!</span><br><br></div>","null","delaylearn","learning","feedback_image_window","5f1caff8d9003412a7748b0e","Eo0yoheKUUYejDv5nTsUPnvZ5aC3","","","","","","","","","","","","","","","","","","","","",""
"html-keyboard-response","186","379295","0.0-77.0","","null","<div style=""font-size:100px;"">+</div>","null","delaylearn","learning","ITI","5f1caff8d9003412a7748b0e","Eo0yoheKUUYejDv5nTsUPnvZ5aC3","","","","","","","","","","","","","","","","","","","1564","",""
"html-keyboard-response","187","381192","0.0-78.0-0.0","","1892.4000000022352","<div style=""display: flex; flex-direction: column; align-items: center; margin-top: -40px;""><img src=""images/pattern_1.png"" style=""width: 234px; height: 230px; margin-top: -50px;""><div style=""display: flex; justify-content: space-between; margin-top: 33px;""><img src=""images/choice_trial_3.png"" style=""width: 408px; height: 417px; margin-right: 200px;""><img src=""images/choice_trial_10.png"" style=""width: 408px; height: 417px;""></div></div>","f","delaylearn","learning","trial","5f1caff8d9003412a7748b0e","Eo0yoheKUUYejDv5nTsUPnvZ5aC3","2","images/choice_trial_3.png","images/choice_trial_10.png","images/pattern_1.png","f","f","7000","3","10","1","0","34","1","1","3","210","","","","",""
"html-keyboard-response","188","382207","0.0-78.0-1.0","","null","<div style=""display: flex; flex-direction: column; align-items: center; margin-top: -40px;""><img src=""images/pattern_1.png"" style=""width: 234px; height: 230px; margin-top: -50px;""><div style=""display: flex; justify-content: space-between; margin-top: 33px;""><img src=""images/choice_trial_3.png"" style=""width: 408px; height: 417px; margin-right: 608px;""></div></div>","null","delaylearn","learning","display_response","5f1caff8d9003412a7748b0e","Eo0yoheKUUYejDv5nTsUPnvZ5aC3","","","","","","","","","","","","","","","","","chosen stimuli: images/choice_trial_3.png","","","",""
"html-keyboard-response","189","389211","0.0-78.0-2.0","","null","","null","delaylearn","learning","feedback_duration_window","5f1caff8d9003412a7748b0e","Eo0yoheKUUYejDv5nTsUPnvZ5aC3","","","","","","","","","","","","","","","","","","7000","","",""
"html-keyboard-response","190","390719","0.0-78.0-3.0","","null","<div style='margin:auto;width: auto; font-size: 150%'><span style='font-weight: bold; font-size: 100px; color: green;'>+10 points!</span><br><br></div>","null","delaylearn","learning","feedback_image_window","5f1caff8d9003412a7748b0e","Eo0yoheKUUYejDv5nTsUPnvZ5aC3","","","","","","","","","","","","","","","","","","","","",""
"html-keyboard-response","191","391223","0.0-79.0-0.0","","null","","null","","","mood_trial_fixation","","","","","","","","","","","","","","","","","","","","","","",""
"lmdlab-html-vas-response","192","394770","0.0-79.0-1.0","","2537","How happy are you right now?","0.6389129596798292","delaylearn","learning","mood_trial","5f1caff8d9003412a7748b0e","Eo0yoheKUUYejDv5nTsUPnvZ5aC3","","","","","","","","","","","","","","","","","","","","[""Very unhappy"",""Very happy""]",""
"html-keyboard-response","193","396593","0.0-80.0","","null","<div style=""font-size:100px;"">+</div>","null","delaylearn","learning","ITI","5f1caff8d9003412a7748b0e","Eo0yoheKUUYejDv5nTsUPnvZ5aC3","","","","","","","","","","","","","","","","","","","1814","",""
"html-keyboard-response","194","399232","0.0-81.0-0.0","","2636.89999999851","<div style=""display: flex; flex-direction: column; align-items: center; margin-top: -40px;""><img src=""images/pattern_6.png"" style=""width: 234px; height: 230px; margin-top: -50px;""><div style=""display: flex; justify-content: space-between; margin-top: 33px;""><img src=""images/choice_trial_11.png"" style=""width: 408px; height: 417px; margin-right: 200px;""><img src=""images/choice_trial_5.png"" style=""width: 408px; height: 417px;""></div></div>","j","delaylearn","learning","trial","5f1caff8d9003412a7748b0e","Eo0yoheKUUYejDv5nTsUPnvZ5aC3","2","images/choice_trial_11.png","images/choice_trial_5.png","images/pattern_6.png","j","f","750","11","5","5","0","35","0","1","5","220","","","","",""
"html-keyboard-response","195","400246","0.0-81.0-1.0","","null","<div style=""display: flex; flex-direction: column; align-items: center; margin-top: -40px;""><img src=""images/pattern_6.png"" style=""width: 234px; height: 230px; margin-top: -50px;""><div style=""display: flex; justify-content: space-between; margin-top: 33px;""><img src=""images/choice_trial_5.png"" style=""width: 408px; height: 417px; margin-left:608px;""></div></div>","null","delaylearn","learning","display_response","5f1caff8d9003412a7748b0e","Eo0yoheKUUYejDv5nTsUPnvZ5aC3","","","","","","","","","","","","","","","","","chosen stimuli: images/choice_trial_5.png","","","",""
"html-keyboard-response","196","401012","0.0-81.0-2.0","","null","","null","delaylearn","learning","feedback_duration_window","5f1caff8d9003412a7748b0e","Eo0yoheKUUYejDv5nTsUPnvZ5aC3","","","","","","","","","","","","","","","","","","750","","",""
"html-keyboard-response","197","402520","0.0-81.0-3.0","","null","<div style='margin:auto;width: auto; font-size: 150%'><span style='font-weight: bold; font-size: 100px; color: green;'>+10 points!</span><br><br></div>","null","delaylearn","learning","feedback_image_window","5f1caff8d9003412a7748b0e","Eo0yoheKUUYejDv5nTsUPnvZ5aC3","","","","","","","","","","","","","","","","","","","","",""
"html-keyboard-response","198","404816","0.0-82.0","","null","<div style=""font-size:100px;"">+</div>","null","delaylearn","learning","ITI","5f1caff8d9003412a7748b0e","Eo0yoheKUUYejDv5nTsUPnvZ5aC3","","","","","","","","","","","","","","","","","","","2293","",""
"html-keyboard-response","199","407162","0.0-83.0-0.0","","2340","<div style=""display: flex; flex-direction: column; align-items: center; margin-top: -40px;""><img src=""images/pattern_3.png"" style=""width: 234px; height: 230px; margin-top: -50px;""><div style=""display: flex; justify-content: space-between; margin-top: 33px;""><img src=""images/choice_trial_14.png"" style=""width: 408px; height: 417px; margin-right: 200px;""><img src=""images/choice_trial_12.png"" style=""width: 408px; height: 417px;""></div></div>","f","delaylearn","learning","trial","5f1caff8d9003412a7748b0e","Eo0yoheKUUYejDv5nTsUPnvZ5aC3","2","images/choice_trial_14.png","images/choice_trial_12.png","images/pattern_3.png","j","j","7000","14","12","2","1","36","0","0","14","220","","","","",""
"html-keyboard-response","200","408184","0.0-83.0-1.0","","null","<div style=""display: flex; flex-direction: column; align-items: center; margin-top: -40px;""><img src=""images/pattern_3.png"" style=""width: 234px; height: 230px; margin-top: -50px;""><div style=""display: flex; justify-content: space-between; margin-top: 33px;""><img src=""images/choice_trial_14.png"" style=""width: 408px; height: 417px; margin-right: 608px;""></div></div>","null","delaylearn","learning","display_response","5f1caff8d9003412a7748b0e","Eo0yoheKUUYejDv5nTsUPnvZ5aC3","","","","","","","","","","","","","","","","","chosen stimuli: images/choice_trial_14.png","","","",""
"html-keyboard-response","201","415197","0.0-83.0-2.0","","null","","null","delaylearn","learning","feedback_duration_window","5f1caff8d9003412a7748b0e","Eo0yoheKUUYejDv5nTsUPnvZ5aC3","","","","","","","","","","","","","","","","","","7000","","",""
"html-keyboard-response","202","416703","0.0-83.0-3.0","","null","<div style='margin:auto;width: auto; font-size: 150%'><span style='font-weight: bold; font-size: 100px; color: red;'>0 points!</span><br><br></div>","null","delaylearn","learning","feedback_image_window","5f1caff8d9003412a7748b0e","Eo0yoheKUUYejDv5nTsUPnvZ5aC3","","","","","","","","","","","","","","","","","","","","",""
"html-keyboard-response","203","418248","0.0-84.0","","null","<div style=""font-size:100px;"">+</div>","null","delaylearn","learning","ITI","5f1caff8d9003412a7748b0e","Eo0yoheKUUYejDv5nTsUPnvZ5aC3","","","","","","","","","","","","","","","","","","","1532","",""
"html-keyboard-response","204","420503","0.0-85.0-0.0","","2250.699999999255","<div style=""display: flex; flex-direction: column; align-items: center; margin-top: -40px;""><img src=""images/pattern_4.png"" style=""width: 234px; height: 230px; margin-top: -50px;""><div style=""display: flex; justify-content: space-between; margin-top: 33px;""><img src=""images/choice_trial_16.png"" style=""width: 408px; height: 417px; margin-right: 200px;""><img src=""images/choice_trial_4.png"" style=""width: 408px; height: 417px;""></div></div>","j","delaylearn","learning","trial","5f1caff8d9003412a7748b0e","Eo0yoheKUUYejDv5nTsUPnvZ5aC3","2","images/choice_trial_16.png","images/choice_trial_4.png","images/pattern_4.png","f","j","7000","16","4","3","1","37","1","0","4","220","","","","",""
"html-keyboard-response","205","421510","0.0-85.0-1.0","","null","<div style=""display: flex; flex-direction: column; align-items: center; margin-top: -40px;""><img src=""images/pattern_4.png"" style=""width: 234px; height: 230px; margin-top: -50px;""><div style=""display: flex; justify-content: space-between; margin-top: 33px;""><img src=""images/choice_trial_4.png"" style=""width: 408px; height: 417px; margin-left:608px;""></div></div>","null","delaylearn","learning","display_response","5f1caff8d9003412a7748b0e","Eo0yoheKUUYejDv5nTsUPnvZ5aC3","","","","","","","","","","","","","","","","","chosen stimuli: images/choice_trial_4.png","","","",""
"html-keyboard-response","206","428527","0.0-85.0-2.0","","null","","null","delaylearn","learning","feedback_duration_window","5f1caff8d9003412a7748b0e","Eo0yoheKUUYejDv5nTsUPnvZ5aC3","","","","","","","","","","","","","","","","","","7000","","",""
"html-keyboard-response","207","430034","0.0-85.0-3.0","","null","<div style='margin:auto;width: auto; font-size: 150%'><span style='font-weight: bold; font-size: 100px; color: red;'>0 points!</span><br><br></div>","null","delaylearn","learning","feedback_image_window","5f1caff8d9003412a7748b0e","Eo0yoheKUUYejDv5nTsUPnvZ5aC3","","","","","","","","","","","","","","","","","","","","",""
"html-keyboard-response","208","432261","0.0-86.0","","null","<div style=""font-size:100px;"">+</div>","null","delaylearn","learning","ITI","5f1caff8d9003412a7748b0e","Eo0yoheKUUYejDv5nTsUPnvZ5aC3","","","","","","","","","","","","","","","","","","","2223","",""
"html-keyboard-response","209","434795","0.0-87.0-0.0","","2529.099999997765","<div style=""display: flex; flex-direction: column; align-items: center; margin-top: -40px;""><img src=""images/pattern_7.png"" style=""width: 234px; height: 230px; margin-top: -50px;""><div style=""display: flex; justify-content: space-between; margin-top: 33px;""><img src=""images/choice_trial_8.png"" style=""width: 408px; height: 417px; margin-right: 200px;""><img src=""images/choice_trial_15.png"" style=""width: 408px; height: 417px;""></div></div>","j","delaylearn","learning","trial","5f1caff8d9003412a7748b0e","Eo0yoheKUUYejDv5nTsUPnvZ5aC3","2","images/choice_trial_8.png","images/choice_trial_15.png","images/pattern_7.png","f","f","750","8","15","6","0","38","0","0","15","220","","","","",""
"html-keyboard-response","210","435819","0.0-87.0-1.0","","null","<div style=""display: flex; flex-direction: column; align-items: center; margin-top: -40px;""><img src=""images/pattern_7.png"" style=""width: 234px; height: 230px; margin-top: -50px;""><div style=""display: flex; justify-content: space-between; margin-top: 33px;""><img src=""images/choice_trial_15.png"" style=""width: 408px; height: 417px; margin-left:608px;""></div></div>","null","delaylearn","learning","display_response","5f1caff8d9003412a7748b0e","Eo0yoheKUUYejDv5nTsUPnvZ5aC3","","","","","","","","","","","","","","","","","chosen stimuli: images/choice_trial_15.png","","","",""
"html-keyboard-response","211","436585","0.0-87.0-2.0","","null","","null","delaylearn","learning","feedback_duration_window","5f1caff8d9003412a7748b0e","Eo0yoheKUUYejDv5nTsUPnvZ5aC3","","","","","","","","","","","","","","","","","","750","","",""
"html-keyboard-response","212","438091","0.0-87.0-3.0","","null","<div style='margin:auto;width: auto; font-size: 150%'><span style='font-weight: bold; font-size: 100px; color: red;'>0 points!</span><br><br></div>","null","delaylearn","learning","feedback_image_window","5f1caff8d9003412a7748b0e","Eo0yoheKUUYejDv5nTsUPnvZ5aC3","","","","","","","","","","","","","","","","","","","","",""
"html-keyboard-response","213","439752","0.0-88.0","","null","<div style=""font-size:100px;"">+</div>","null","delaylearn","learning","ITI","5f1caff8d9003412a7748b0e","Eo0yoheKUUYejDv5nTsUPnvZ5aC3","","","","","","","","","","","","","","","","","","","1658","",""
"html-keyboard-response","214","441484","0.0-89.0-0.0","","1728","<div style=""display: flex; flex-direction: column; align-items: center; margin-top: -40px;""><img src=""images/pattern_1.png"" style=""width: 234px; height: 230px; margin-top: -50px;""><div style=""display: flex; justify-content: space-between; margin-top: 33px;""><img src=""images/choice_trial_3.png"" style=""width: 408px; height: 417px; margin-right: 200px;""><img src=""images/choice_trial_10.png"" style=""width: 408px; height: 417px;""></div></div>","f","delaylearn","learning","trial","5f1caff8d9003412a7748b0e","Eo0yoheKUUYejDv5nTsUPnvZ5aC3","2","images/choice_trial_3.png","images/choice_trial_10.png","images/pattern_1.png","f","f","7000","3","10","1","0","39","1","1","3","230","","","","",""
"html-keyboard-response","215","442495","0.0-89.0-1.0","","null","<div style=""display: flex; flex-direction: column; align-items: center; margin-top: -40px;""><img src=""images/pattern_1.png"" style=""width: 234px; height: 230px; margin-top: -50px;""><div style=""display: flex; justify-content: space-between; margin-top: 33px;""><img src=""images/choice_trial_3.png"" style=""width: 408px; height: 417px; margin-right: 608px;""></div></div>","null","delaylearn","learning","display_response","5f1caff8d9003412a7748b0e","Eo0yoheKUUYejDv5nTsUPnvZ5aC3","","","","","","","","","","","","","","","","","chosen stimuli: images/choice_trial_3.png","","","",""
"html-keyboard-response","216","449512","0.0-89.0-2.0","","null","","null","delaylearn","learning","feedback_duration_window","5f1caff8d9003412a7748b0e","Eo0yoheKUUYejDv5nTsUPnvZ5aC3","","","","","","","","","","","","","","","","","","7000","","",""
"html-keyboard-response","217","451018","0.0-89.0-3.0","","null","<div style='margin:auto;width: auto; font-size: 150%'><span style='font-weight: bold; font-size: 100px; color: green;'>+10 points!</span><br><br></div>","null","delaylearn","learning","feedback_image_window","5f1caff8d9003412a7748b0e","Eo0yoheKUUYejDv5nTsUPnvZ5aC3","","","","","","","","","","","","","","","","","","","","",""
"html-keyboard-response","218","451520","0.0-90.0-0.0","","null","","null","","","mood_trial_fixation","","","","","","","","","","","","","","","","","","","","","","",""
"lmdlab-html-vas-response","219","454753","0.0-90.0-1.0","","2228","How happy are you right now?","0.29169075381004644","delaylearn","learning","mood_trial","5f1caff8d9003412a7748b0e","Eo0yoheKUUYejDv5nTsUPnvZ5aC3","","","","","","","","","","","","","","","","","","","","[""Very unhappy"",""Very happy""]",""
"html-keyboard-response","220","457242","0.0-91.0","","null","<div style=""font-size:100px;"">+</div>","null","delaylearn","learning","ITI","5f1caff8d9003412a7748b0e","Eo0yoheKUUYejDv5nTsUPnvZ5aC3","","","","","","","","","","","","","","","","","","","2475","",""
