"trial_type","trial_index","time_elapsed","internal_node_id","participant","rt","stimulus","response","exp_name","exp_stage","test_part","subjectID","databaseID","counterbal","choice_stimuli_1","choice_stimuli_2","pattern_stimuli","rewarded_answer","correct_answer","feedback_duration_times","stim_left","stim_right","pair","leftright_counter","trial","response_correct","response_rewarded","chosen_stim","counter","displayed_choice","feedback_durations","ITI_duration","labels","rest_warning"
"pavlovia","0","692","0.0-0.0","","","","","","","","","","","","","","","","","","","","","","","","","","","","","",""
"html-keyboard-response","1","3703","0.0-1.0","","null","<div style=""font-size:100px;"">+</div>","null","delaylearn","learning","pre_fixation","57732cfcda75d30001487571","","","","","","","","","","","","","","","","","","","","","",""
"html-keyboard-response","2","4601","0.0-2.0-0.0","","894.5999999999767","<div style=""display: flex; flex-direction: column; align-items: center; margin-top: -40px;""><img src=""images/demo_images/pattern_1.png"" style=""width: 234px; height: 230px; margin-top: -50px;""><div style=""display: flex; justify-content: space-between; margin-top: 33px;""><img src=""images/demo_images/choice_trial_2.png"" style=""width: 408px; height: 417px; margin-right: 200px;""><img src=""images/demo_images/choice_trial_1.png"" style=""width: 408px; height: 417px;""></div></div>","j","delaylearn","learning","trial","57732cfcda75d30001487571","8LNliSX9IlW9ovpF9WaWlzRTCIJ3","5","images/demo_images/choice_trial_2.png","images/demo_images/choice_trial_1.png","images/demo_images/pattern_1.png","j","j","3000","2","1","20","1","1","1","1","1","10","","","","",""
"html-keyboard-response","3","5619","0.0-2.0-1.0","","null","<div style=""display: flex; flex-direction: column; align-items: center; margin-top: -40px;""><img src=""images/demo_images/pattern_1.png"" style=""width: 234px; height: 230px; margin-top: -50px;""><div style=""display: flex; justify-content: space-between; margin-top: 33px;""><img src=""images/demo_images/choice_trial_1.png"" style=""width: 408px; height: 417px; margin-left:608px;""></div></div>","null","delaylearn","learning","display_response","57732cfcda75d30001487571","8LNliSX9IlW9ovpF9WaWlzRTCIJ3","","","","","","","","","","","","","","","","","chosen stimuli: images/demo_images/choice_trial_1.png","","","",""
"html-keyboard-response","4","8628","0.0-2.0-2.0","","null","","null","delaylearn","learning","feedback_duration_window","57732cfcda75d30001487571","8LNliSX9IlW9ovpF9WaWlzRTCIJ3","","","","","","","","","","","","","","","","","","3000","","",""
"html-keyboard-response","5","10137","0.0-2.0-3.0","","null","<div style='margin:auto;width: auto; font-size: 150%'><span style='font-weight: bold; font-size: 100px; color: green;'>+10 points!</span><br><br></div>","null","delaylearn","learning","feedback_image_window","57732cfcda75d30001487571","8LNliSX9IlW9ovpF9WaWlzRTCIJ3","","","","","","","","","","","","","","","","","","","","",""
"html-keyboard-response","6","11980","0.0-3.0","","null","<div style=""font-size:100px;"">+</div>","null","delaylearn","learning","ITI","57732cfcda75d30001487571","8LNliSX9IlW9ovpF9WaWlzRTCIJ3","","","","","","","","","","","","","","","","","","","1832","",""
"html-keyboard-response","7","12517","0.0-4.0-0.0","","533.9000000000233","<div style=""display: flex; flex-direction: column; align-items: center; margin-top: -40px;""><img src=""images/demo_images/pattern_1.png"" style=""width: 234px; height: 230px; margin-top: -50px;""><div style=""display: flex; justify-content: space-between; margin-top: 33px;""><img src=""images/demo_images/choice_trial_2.png"" style=""width: 408px; height: 417px; margin-right: 200px;""><img src=""images/demo_images/choice_trial_1.png"" style=""width: 408px; height: 417px;""></div></div>","f","delaylearn","learning","trial","57732cfcda75d30001487571","8LNliSX9IlW9ovpF9WaWlzRTCIJ3","5","images/demo_images/choice_trial_2.png","images/demo_images/choice_trial_1.png","images/demo_images/pattern_1.png","j","j","3000","2","1","20","1","2","0","0","2","10","","","","",""
"html-keyboard-response","8","13528","0.0-4.0-1.0","","null","<div style=""display: flex; flex-direction: column; align-items: center; margin-top: -40px;""><img src=""images/demo_images/pattern_1.png"" style=""width: 234px; height: 230px; margin-top: -50px;""><div style=""display: flex; justify-content: space-between; margin-top: 33px;""><img src=""images/demo_images/choice_trial_2.png"" style=""width: 408px; height: 417px; margin-right: 608px;""></div></div>","null","delaylearn","learning","display_response","57732cfcda75d30001487571","8LNliSX9IlW9ovpF9WaWlzRTCIJ3","","","","","","","","","","","","","","","","","chosen stimuli: images/demo_images/choice_trial_2.png","","","",""
"html-keyboard-response","9","16544","0.0-4.0-2.0","","null","","null","delaylearn","learning","feedback_duration_window","57732cfcda75d30001487571","8LNliSX9IlW9ovpF9WaWlzRTCIJ3","","","","","","","","","","","","","","","","","","3000","","",""
"html-keyboard-response","10","18047","0.0-4.0-3.0","","null","<div style='margin:auto;width: auto; font-size: 150%'><span style='font-weight: bold; font-size: 100px; color: red;'>0 points!</span><br><br></div>","null","delaylearn","learning","feedback_image_window","57732cfcda75d30001487571","8LNliSX9IlW9ovpF9WaWlzRTCIJ3","","","","","","","","","","","","","","","","","","","","",""
"html-keyboard-response","11","20109","0.0-5.0","","null","<div style=""font-size:100px;"">+</div>","null","delaylearn","learning","ITI","57732cfcda75d30001487571","8LNliSX9IlW9ovpF9WaWlzRTCIJ3","","","","","","","","","","","","","","","","","","","2052","",""
"html-keyboard-response","12","20890","0.0-6.0-0.0","","778.5999999999767","<div style=""display: flex; flex-direction: column; align-items: center; margin-top: -40px;""><img src=""images/demo_images/pattern_1.png"" style=""width: 234px; height: 230px; margin-top: -50px;""><div style=""display: flex; justify-content: space-between; margin-top: 33px;""><img src=""images/demo_images/choice_trial_1.png"" style=""width: 408px; height: 417px; margin-right: 200px;""><img src=""images/demo_images/choice_trial_2.png"" style=""width: 408px; height: 417px;""></div></div>","f","delaylearn","learning","trial","57732cfcda75d30001487571","8LNliSX9IlW9ovpF9WaWlzRTCIJ3","5","images/demo_images/choice_trial_1.png","images/demo_images/choice_trial_2.png","images/demo_images/pattern_1.png","j","f","3000","1","2","20","0","3","1","0","1","10","","","","",""
"html-keyboard-response","13","21896","0.0-6.0-1.0","","null","<div style=""display: flex; flex-direction: column; align-items: center; margin-top: -40px;""><img src=""images/demo_images/pattern_1.png"" style=""width: 234px; height: 230px; margin-top: -50px;""><div style=""display: flex; justify-content: space-between; margin-top: 33px;""><img src=""images/demo_images/choice_trial_1.png"" style=""width: 408px; height: 417px; margin-right: 608px;""></div></div>","null","delaylearn","learning","display_response","57732cfcda75d30001487571","8LNliSX9IlW9ovpF9WaWlzRTCIJ3","","","","","","","","","","","","","","","","","chosen stimuli: images/demo_images/choice_trial_1.png","","","",""
"html-keyboard-response","14","24911","0.0-6.0-2.0","","null","","null","delaylearn","learning","feedback_duration_window","57732cfcda75d30001487571","8LNliSX9IlW9ovpF9WaWlzRTCIJ3","","","","","","","","","","","","","","","","","","3000","","",""
"html-keyboard-response","15","26420","0.0-6.0-3.0","","null","<div style='margin:auto;width: auto; font-size: 150%'><span style='font-weight: bold; font-size: 100px; color: red;'>0 points!</span><br><br></div>","null","delaylearn","learning","feedback_image_window","57732cfcda75d30001487571","8LNliSX9IlW9ovpF9WaWlzRTCIJ3","","","","","","","","","","","","","","","","","","","","",""
"html-keyboard-response","16","28766","0.0-7.0","","null","<div style=""font-size:100px;"">+</div>","null","delaylearn","learning","ITI","57732cfcda75d30001487571","8LNliSX9IlW9ovpF9WaWlzRTCIJ3","","","","","","","","","","","","","","","","","","","2330","",""
"html-keyboard-response","17","29980","0.0-8.0-0.0","","1211.5","<div style=""display: flex; flex-direction: column; align-items: center; margin-top: -40px;""><img src=""images/demo_images/pattern_1.png"" style=""width: 234px; height: 230px; margin-top: -50px;""><div style=""display: flex; justify-content: space-between; margin-top: 33px;""><img src=""images/demo_images/choice_trial_1.png"" style=""width: 408px; height: 417px; margin-right: 200px;""><img src=""images/demo_images/choice_trial_2.png"" style=""width: 408px; height: 417px;""></div></div>","j","delaylearn","learning","trial","57732cfcda75d30001487571","8LNliSX9IlW9ovpF9WaWlzRTCIJ3","5","images/demo_images/choice_trial_1.png","images/demo_images/choice_trial_2.png","images/demo_images/pattern_1.png","f","f","3000","1","2","20","0","4","0","0","2","10","","","","",""
"html-keyboard-response","18","30997","0.0-8.0-1.0","","null","<div style=""display: flex; flex-direction: column; align-items: center; margin-top: -40px;""><img src=""images/demo_images/pattern_1.png"" style=""width: 234px; height: 230px; margin-top: -50px;""><div style=""display: flex; justify-content: space-between; margin-top: 33px;""><img src=""images/demo_images/choice_trial_2.png"" style=""width: 408px; height: 417px; margin-left:608px;""></div></div>","null","delaylearn","learning","display_response","57732cfcda75d30001487571","8LNliSX9IlW9ovpF9WaWlzRTCIJ3","","","","","","","","","","","","","","","","","chosen stimuli: images/demo_images/choice_trial_2.png","","","",""
"html-keyboard-response","19","34012","0.0-8.0-2.0","","null","","null","delaylearn","learning","feedback_duration_window","57732cfcda75d30001487571","8LNliSX9IlW9ovpF9WaWlzRTCIJ3","","","","","","","","","","","","","","","","","","3000","","",""
"html-keyboard-response","20","35522","0.0-8.0-3.0","","null","<div style='margin:auto;width: auto; font-size: 150%'><span style='font-weight: bold; font-size: 100px; color: red;'>0 points!</span><br><br></div>","null","delaylearn","learning","feedback_image_window","57732cfcda75d30001487571","8LNliSX9IlW9ovpF9WaWlzRTCIJ3","","","","","","","","","","","","","","","","","","","","",""
"html-keyboard-response","21","36030","0.0-9.0-0.0","","null","","null","","","mood_trial_fixation","","","","","","","","","","","","","","","","","","","","","","",""
"lmdlab-html-vas-response","22","41211","0.0-9.0-1.0","","4154","How happy are you right now?","0.4653066705774378","delaylearn","learning","mood_trial","57732cfcda75d30001487571","8LNliSX9IlW9ovpF9WaWlzRTCIJ3","","","","","","","","","","","","","","","","","","","","[""Very unhappy"",""Very happy""]",""
"html-keyboard-response","23","43246","0.0-10.0","","null","<div style=""font-size:100px;"">+</div>","null","delaylearn","learning","ITI","57732cfcda75d30001487571","8LNliSX9IlW9ovpF9WaWlzRTCIJ3","","","","","","","","","","","","","","","","","","","2028","",""
"html-keyboard-response","24","44009","0.0-11.0-0.0","","760.1999999999534","<div style=""display: flex; flex-direction: column; align-items: center; margin-top: -40px;""><img src=""images/demo_images/pattern_1.png"" style=""width: 234px; height: 230px; margin-top: -50px;""><div style=""display: flex; justify-content: space-between; margin-top: 33px;""><img src=""images/demo_images/choice_trial_2.png"" style=""width: 408px; height: 417px; margin-right: 200px;""><img src=""images/demo_images/choice_trial_1.png"" style=""width: 408px; height: 417px;""></div></div>","j","delaylearn","learning","trial","57732cfcda75d30001487571","8LNliSX9IlW9ovpF9WaWlzRTCIJ3","5","images/demo_images/choice_trial_2.png","images/demo_images/choice_trial_1.png","images/demo_images/pattern_1.png","j","j","3000","2","1","20","1","5","1","1","1","20","","","","",""
"html-keyboard-response","25","45014","0.0-11.0-1.0","","null","<div style=""display: flex; flex-direction: column; align-items: center; margin-top: -40px;""><img src=""images/demo_images/pattern_1.png"" style=""width: 234px; height: 230px; margin-top: -50px;""><div style=""display: flex; justify-content: space-between; margin-top: 33px;""><img src=""images/demo_images/choice_trial_1.png"" style=""width: 408px; height: 417px; margin-left:608px;""></div></div>","null","delaylearn","learning","display_response","57732cfcda75d30001487571","8LNliSX9IlW9ovpF9WaWlzRTCIJ3","","","","","","","","","","","","","","","","","chosen stimuli: images/demo_images/choice_trial_1.png","","","",""
"html-keyboard-response","26","48023","0.0-11.0-2.0","","null","","null","delaylearn","learning","feedback_duration_window","57732cfcda75d30001487571","8LNliSX9IlW9ovpF9WaWlzRTCIJ3","","","","","","","","","","","","","","","","","","3000","","",""
"html-keyboard-response","27","49531","0.0-11.0-3.0","","null","<div style='margin:auto;width: auto; font-size: 150%'><span style='font-weight: bold; font-size: 100px; color: green;'>+10 points!</span><br><br></div>","null","delaylearn","learning","feedback_image_window","57732cfcda75d30001487571","8LNliSX9IlW9ovpF9WaWlzRTCIJ3","","","","","","","","","","","","","","","","","","","","",""
"html-keyboard-response","28","51586","0.0-12.0","","null","<div style=""font-size:100px;"">+</div>","null","delaylearn","learning","ITI","57732cfcda75d30001487571","8LNliSX9IlW9ovpF9WaWlzRTCIJ3","","","","","","","","","","","","","","","","","","","2042","",""
"html-keyboard-response","29","53385","0.0-13.0-0.0","","1795.9000000000233","<div style=""display: flex; flex-direction: column; align-items: center; margin-top: -40px;""><img src=""images/demo_images/pattern_1.png"" style=""width: 234px; height: 230px; margin-top: -50px;""><div style=""display: flex; justify-content: space-between; margin-top: 33px;""><img src=""images/demo_images/choice_trial_1.png"" style=""width: 408px; height: 417px; margin-right: 200px;""><img src=""images/demo_images/choice_trial_2.png"" style=""width: 408px; height: 417px;""></div></div>","j","delaylearn","learning","trial","57732cfcda75d30001487571","8LNliSX9IlW9ovpF9WaWlzRTCIJ3","5","images/demo_images/choice_trial_1.png","images/demo_images/choice_trial_2.png","images/demo_images/pattern_1.png","f","f","3000","1","2","20","0","6","0","0","2","20","","","","",""
"html-keyboard-response","30","54399","0.0-13.0-1.0","","null","<div style=""display: flex; flex-direction: column; align-items: center; margin-top: -40px;""><img src=""images/demo_images/pattern_1.png"" style=""width: 234px; height: 230px; margin-top: -50px;""><div style=""display: flex; justify-content: space-between; margin-top: 33px;""><img src=""images/demo_images/choice_trial_2.png"" style=""width: 408px; height: 417px; margin-left:608px;""></div></div>","null","delaylearn","learning","display_response","57732cfcda75d30001487571","8LNliSX9IlW9ovpF9WaWlzRTCIJ3","","","","","","","","","","","","","","","","","chosen stimuli: images/demo_images/choice_trial_2.png","","","",""
"html-keyboard-response","31","57414","0.0-13.0-2.0","","null","","null","delaylearn","learning","feedback_duration_window","57732cfcda75d30001487571","8LNliSX9IlW9ovpF9WaWlzRTCIJ3","","","","","","","","","","","","","","","","","","3000","","",""
"html-keyboard-response","32","58923","0.0-13.0-3.0","","null","<div style='margin:auto;width: auto; font-size: 150%'><span style='font-weight: bold; font-size: 100px; color: red;'>0 points!</span><br><br></div>","null","delaylearn","learning","feedback_image_window","57732cfcda75d30001487571","8LNliSX9IlW9ovpF9WaWlzRTCIJ3","","","","","","","","","","","","","","","","","","","","",""
"html-keyboard-response","33","60815","0.0-14.0","","null","<div style=""font-size:100px;"">+</div>","null","delaylearn","learning","ITI","57732cfcda75d30001487571","8LNliSX9IlW9ovpF9WaWlzRTCIJ3","","","","","","","","","","","","","","","","","","","1886","",""
"html-keyboard-response","34","62038","0.0-15.0-0.0","","1220.3999999999069","<div style=""display: flex; flex-direction: column; align-items: center; margin-top: -40px;""><img src=""images/demo_images/pattern_1.png"" style=""width: 234px; height: 230px; margin-top: -50px;""><div style=""display: flex; justify-content: space-between; margin-top: 33px;""><img src=""images/demo_images/choice_trial_2.png"" style=""width: 408px; height: 417px; margin-right: 200px;""><img src=""images/demo_images/choice_trial_1.png"" style=""width: 408px; height: 417px;""></div></div>","j","delaylearn","learning","trial","57732cfcda75d30001487571","8LNliSX9IlW9ovpF9WaWlzRTCIJ3","5","images/demo_images/choice_trial_2.png","images/demo_images/choice_trial_1.png","images/demo_images/pattern_1.png","j","j","3000","2","1","20","1","7","1","1","1","30","","","","",""
"html-keyboard-response","35","63049","0.0-15.0-1.0","","null","<div style=""display: flex; flex-direction: column; align-items: center; margin-top: -40px;""><img src=""images/demo_images/pattern_1.png"" style=""width: 234px; height: 230px; margin-top: -50px;""><div style=""display: flex; justify-content: space-between; margin-top: 33px;""><img src=""images/demo_images/choice_trial_1.png"" style=""width: 408px; height: 417px; margin-left:608px;""></div></div>","null","delaylearn","learning","display_response","57732cfcda75d30001487571","8LNliSX9IlW9ovpF9WaWlzRTCIJ3","","","","","","","","","","","","","","","","","chosen stimuli: images/demo_images/choice_trial_1.png","","","",""
"html-keyboard-response","36","66065","0.0-15.0-2.0","","null","","null","delaylearn","learning","feedback_duration_window","57732cfcda75d30001487571","8LNliSX9IlW9ovpF9WaWlzRTCIJ3","","","","","","","","","","","","","","","","","","3000","","",""
"html-keyboard-response","37","67573","0.0-15.0-3.0","","null","<div style='margin:auto;width: auto; font-size: 150%'><span style='font-weight: bold; font-size: 100px; color: green;'>+10 points!</span><br><br></div>","null","delaylearn","learning","feedback_image_window","57732cfcda75d30001487571","8LNliSX9IlW9ovpF9WaWlzRTCIJ3","","","","","","","","","","","","","","","","","","","","",""
"html-keyboard-response","38","69099","0.0-16.0","","null","<div style=""font-size:100px;"">+</div>","null","delaylearn","learning","ITI","57732cfcda75d30001487571","8LNliSX9IlW9ovpF9WaWlzRTCIJ3","","","","","","","","","","","","","","","","","","","1522","",""
"html-keyboard-response","39","70936","0.0-17.0-0.0","","1834.5","<div style=""display: flex; flex-direction: column; align-items: center; margin-top: -40px;""><img src=""images/demo_images/pattern_1.png"" style=""width: 234px; height: 230px; margin-top: -50px;""><div style=""display: flex; justify-content: space-between; margin-top: 33px;""><img src=""images/demo_images/choice_trial_1.png"" style=""width: 408px; height: 417px; margin-right: 200px;""><img src=""images/demo_images/choice_trial_2.png"" style=""width: 408px; height: 417px;""></div></div>","j","delaylearn","learning","trial","57732cfcda75d30001487571","8LNliSX9IlW9ovpF9WaWlzRTCIJ3","5","images/demo_images/choice_trial_1.png","images/demo_images/choice_trial_2.png","images/demo_images/pattern_1.png","f","f","3000","1","2","20","0","8","0","0","2","30","","","","",""
"html-keyboard-response","40","71943","0.0-17.0-1.0","","null","<div style=""display: flex; flex-direction: column; align-items: center; margin-top: -40px;""><img src=""images/demo_images/pattern_1.png"" style=""width: 234px; height: 230px; margin-top: -50px;""><div style=""display: flex; justify-content: space-between; margin-top: 33px;""><img src=""images/demo_images/choice_trial_2.png"" style=""width: 408px; height: 417px; margin-left:608px;""></div></div>","null","delaylearn","learning","display_response","57732cfcda75d30001487571","8LNliSX9IlW9ovpF9WaWlzRTCIJ3","","","","","","","","","","","","","","","","","chosen stimuli: images/demo_images/choice_trial_2.png","","","",""
"html-keyboard-response","41","74950","0.0-17.0-2.0","","null","","null","delaylearn","learning","feedback_duration_window","57732cfcda75d30001487571","8LNliSX9IlW9ovpF9WaWlzRTCIJ3","","","","","","","","","","","","","","","","","","3000","","",""
"html-keyboard-response","42","76458","0.0-17.0-3.0","","null","<div style='margin:auto;width: auto; font-size: 150%'><span style='font-weight: bold; font-size: 100px; color: red;'>0 points!</span><br><br></div>","null","delaylearn","learning","feedback_image_window","57732cfcda75d30001487571","8LNliSX9IlW9ovpF9WaWlzRTCIJ3","","","","","","","","","","","","","","","","","","","","",""
"html-button-response","43","78835","0.0-18.0","","2375.29999999993","
  <div style=""display: flex; align-items: center; justify-content: center; height: 80vh;"">
  <div>
          <img src=""images/inst_demo_finish.png"" style=""width: 80vw; height:auto;"">
          <br><br>
      </div>
      <br><br>
  </div>","0","","","","","","","","","","","","","","","","","","","","","","","","","",""
"html-keyboard-response","44","83650","0.0-19.0","","4814.599999999977","
  <div style=""display: flex; align-items: center; justify-content: center; height: 80vh;"">
  <div>
          <img src=""images/inst_6.png"" style=""width: 80vw; height:auto;"">
          <br><br>
      </div>
      <br><br>
  </div>","j","","","","","","","","","","","","","","","","","","","","","","","","","",""
"html-keyboard-response","45","86659","0.0-20.0","","null","<div style=""font-size:100px;"">+</div>","null","delaylearn","learning","pre_fixation","57732cfcda75d30001487571","","","","","","","","","","","","","","","","","","","","","",""
"html-keyboard-response","46","89028","0.0-21.0","","null","<div style=""font-size:100px;"">+</div>","null","delaylearn","learning","ITI","57732cfcda75d30001487571","8LNliSX9IlW9ovpF9WaWlzRTCIJ3","","","","","","","","","","","","","","","","","","","2366","",""
"html-keyboard-response","47","90337","0.0-22.0-0.0","","1306.5999999999767","<div style=""display: flex; flex-direction: column; align-items: center; margin-top: -40px;""><img src=""images/pattern_3.png"" style=""width: 234px; height: 230px; margin-top: -50px;""><div style=""display: flex; justify-content: space-between; margin-top: 33px;""><img src=""images/choice_trial_16.png"" style=""width: 408px; height: 417px; margin-right: 200px;""><img src=""images/choice_trial_2.png"" style=""width: 408px; height: 417px;""></div></div>","j","delaylearn","learning","trial","57732cfcda75d30001487571","8LNliSX9IlW9ovpF9WaWlzRTCIJ3","5","images/choice_trial_16.png","images/choice_trial_2.png","images/pattern_3.png","f","f","7000","16","2","2","0","9","0","0","2","30","","","","",""
"html-keyboard-response","48","91344","0.0-22.0-1.0","","null","<div style=""display: flex; flex-direction: column; align-items: center; margin-top: -40px;""><img src=""images/pattern_3.png"" style=""width: 234px; height: 230px; margin-top: -50px;""><div style=""display: flex; justify-content: space-between; margin-top: 33px;""><img src=""images/choice_trial_2.png"" style=""width: 408px; height: 417px; margin-left:608px;""></div></div>","null","delaylearn","learning","display_response","57732cfcda75d30001487571","8LNliSX9IlW9ovpF9WaWlzRTCIJ3","","","","","","","","","","","","","","","","","chosen stimuli: images/choice_trial_2.png","","","",""
"html-keyboard-response","49","98352","0.0-22.0-2.0","","null","","null","delaylearn","learning","feedback_duration_window","57732cfcda75d30001487571","8LNliSX9IlW9ovpF9WaWlzRTCIJ3","","","","","","","","","","","","","","","","","","7000","","",""
"html-keyboard-response","50","99861","0.0-22.0-3.0","","null","<div style='margin:auto;width: auto; font-size: 150%'><span style='font-weight: bold; font-size: 100px; color: red;'>0 points!</span><br><br></div>","null","delaylearn","learning","feedback_image_window","57732cfcda75d30001487571","8LNliSX9IlW9ovpF9WaWlzRTCIJ3","","","","","","","","","","","","","","","","","","","","",""
"html-keyboard-response","51","101580","0.0-23.0","","null","<div style=""font-size:100px;"">+</div>","null","delaylearn","learning","ITI","57732cfcda75d30001487571","8LNliSX9IlW9ovpF9WaWlzRTCIJ3","","","","","","","","","","","","","","","","","","","1718","",""
"html-keyboard-response","52","102926","0.0-24.0-0.0","","1343.5999999999767","<div style=""display: flex; flex-direction: column; align-items: center; margin-top: -40px;""><img src=""images/pattern_7.png"" style=""width: 234px; height: 230px; margin-top: -50px;""><div style=""display: flex; justify-content: space-between; margin-top: 33px;""><img src=""images/choice_trial_10.png"" style=""width: 408px; height: 417px; margin-right: 200px;""><img src=""images/choice_trial_8.png"" style=""width: 408px; height: 417px;""></div></div>","f","delaylearn","learning","trial","57732cfcda75d30001487571","8LNliSX9IlW9ovpF9WaWlzRTCIJ3","5","images/choice_trial_10.png","images/choice_trial_8.png","images/pattern_7.png","j","j","750","10","8","6","1","10","0","0","10","30","","","","",""
"html-keyboard-response","53","103945","0.0-24.0-1.0","","null","<div style=""display: flex; flex-direction: column; align-items: center; margin-top: -40px;""><img src=""images/pattern_7.png"" style=""width: 234px; height: 230px; margin-top: -50px;""><div style=""display: flex; justify-content: space-between; margin-top: 33px;""><img src=""images/choice_trial_10.png"" style=""width: 408px; height: 417px; margin-right: 608px;""></div></div>","null","delaylearn","learning","display_response","57732cfcda75d30001487571","8LNliSX9IlW9ovpF9WaWlzRTCIJ3","","","","","","","","","","","","","","","","","chosen stimuli: images/choice_trial_10.png","","","",""
"html-keyboard-response","54","104711","0.0-24.0-2.0","","null","","null","delaylearn","learning","feedback_duration_window","57732cfcda75d30001487571","8LNliSX9IlW9ovpF9WaWlzRTCIJ3","","","","","","","","","","","","","","","","","","750","","",""
"html-keyboard-response","55","106220","0.0-24.0-3.0","","null","<div style='margin:auto;width: auto; font-size: 150%'><span style='font-weight: bold; font-size: 100px; color: red;'>0 points!</span><br><br></div>","null","delaylearn","learning","feedback_image_window","57732cfcda75d30001487571","8LNliSX9IlW9ovpF9WaWlzRTCIJ3","","","","","","","","","","","","","","","","","","","","",""
"html-keyboard-response","56","107728","0.0-25.0","","null","<div style=""font-size:100px;"">+</div>","null","delaylearn","learning","ITI","57732cfcda75d30001487571","8LNliSX9IlW9ovpF9WaWlzRTCIJ3","","","","","","","","","","","","","","","","","","","1503","",""
"html-keyboard-response","57","108850","0.0-26.0-0.0","","1119.4000000000233","<div style=""display: flex; flex-direction: column; align-items: center; margin-top: -40px;""><img src=""images/pattern_4.png"" style=""width: 234px; height: 230px; margin-top: -50px;""><div style=""display: flex; justify-content: space-between; margin-top: 33px;""><img src=""images/choice_trial_11.png"" style=""width: 408px; height: 417px; margin-right: 200px;""><img src=""images/choice_trial_4.png"" style=""width: 408px; height: 417px;""></div></div>","j","delaylearn","learning","trial","57732cfcda75d30001487571","8LNliSX9IlW9ovpF9WaWlzRTCIJ3","5","images/choice_trial_11.png","images/choice_trial_4.png","images/pattern_4.png","f","f","7000","11","4","3","0","11","0","0","4","30","","","","",""
"html-keyboard-response","58","109862","0.0-26.0-1.0","","null","<div style=""display: flex; flex-direction: column; align-items: center; margin-top: -40px;""><img src=""images/pattern_4.png"" style=""width: 234px; height: 230px; margin-top: -50px;""><div style=""display: flex; justify-content: space-between; margin-top: 33px;""><img src=""images/choice_trial_4.png"" style=""width: 408px; height: 417px; margin-left:608px;""></div></div>","null","delaylearn","learning","display_response","57732cfcda75d30001487571","8LNliSX9IlW9ovpF9WaWlzRTCIJ3","","","","","","","","","","","","","","","","","chosen stimuli: images/choice_trial_4.png","","","",""
"html-keyboard-response","59","116871","0.0-26.0-2.0","","null","","null","delaylearn","learning","feedback_duration_window","57732cfcda75d30001487571","8LNliSX9IlW9ovpF9WaWlzRTCIJ3","","","","","","","","","","","","","","","","","","7000","","",""
"html-keyboard-response","60","118379","0.0-26.0-3.0","","null","<div style='margin:auto;width: auto; font-size: 150%'><span style='font-weight: bold; font-size: 100px; color: red;'>0 points!</span><br><br></div>","null","delaylearn","learning","feedback_image_window","57732cfcda75d30001487571","8LNliSX9IlW9ovpF9WaWlzRTCIJ3","","","","","","","","","","","","","","","","","","","","",""
"html-keyboard-response","61","120662","0.0-27.0","","null","<div style=""font-size:100px;"">+</div>","null","delaylearn","learning","ITI","57732cfcda75d30001487571","8LNliSX9IlW9ovpF9WaWlzRTCIJ3","","","","","","","","","","","","","","","","","","","2277","",""
"html-keyboard-response","62","121896","0.0-28.0-0.0","","1232.2000000000698","<div style=""display: flex; flex-direction: column; align-items: center; margin-top: -40px;""><img src=""images/pattern_5.png"" style=""width: 234px; height: 230px; margin-top: -50px;""><div style=""display: flex; justify-content: space-between; margin-top: 33px;""><img src=""images/choice_trial_13.png"" style=""width: 408px; height: 417px; margin-right: 200px;""><img src=""images/choice_trial_7.png"" style=""width: 408px; height: 417px;""></div></div>","j","delaylearn","learning","trial","57732cfcda75d30001487571","8LNliSX9IlW9ovpF9WaWlzRTCIJ3","5","images/choice_trial_13.png","images/choice_trial_7.png","images/pattern_5.png","j","j","750","13","7","4","1","12","1","1","7","40","","","","",""
"html-keyboard-response","63","122913","0.0-28.0-1.0","","null","<div style=""display: flex; flex-direction: column; align-items: center; margin-top: -40px;""><img src=""images/pattern_5.png"" style=""width: 234px; height: 230px; margin-top: -50px;""><div style=""display: flex; justify-content: space-between; margin-top: 33px;""><img src=""images/choice_trial_7.png"" style=""width: 408px; height: 417px; margin-left:608px;""></div></div>","null","delaylearn","learning","display_response","57732cfcda75d30001487571","8LNliSX9IlW9ovpF9WaWlzRTCIJ3","","","","","","","","","","","","","","","","","chosen stimuli: images/choice_trial_7.png","","","",""
"html-keyboard-response","64","123672","0.0-28.0-2.0","","null","","null","delaylearn","learning","feedback_duration_window","57732cfcda75d30001487571","8LNliSX9IlW9ovpF9WaWlzRTCIJ3","","","","","","","","","","","","","","","","","","750","","",""
"html-keyboard-response","65","125180","0.0-28.0-3.0","","null","<div style='margin:auto;width: auto; font-size: 150%'><span style='font-weight: bold; font-size: 100px; color: green;'>+10 points!</span><br><br></div>","null","delaylearn","learning","feedback_image_window","57732cfcda75d30001487571","8LNliSX9IlW9ovpF9WaWlzRTCIJ3","","","","","","","","","","","","","","","","","","","","",""
"html-keyboard-response","66","126783","0.0-29.0","","null","<div style=""font-size:100px;"">+</div>","null","delaylearn","learning","ITI","57732cfcda75d30001487571","8LNliSX9IlW9ovpF9WaWlzRTCIJ3","","","","","","","","","","","","","","","","","","","1599","",""
"html-keyboard-response","67","127785","0.0-30.0-0.0","","1000","<div style=""display: flex; flex-direction: column; align-items: center; margin-top: -40px;""><img src=""images/pattern_6.png"" style=""width: 234px; height: 230px; margin-top: -50px;""><div style=""display: flex; justify-content: space-between; margin-top: 33px;""><img src=""images/choice_trial_14.png"" style=""width: 408px; height: 417px; margin-right: 200px;""><img src=""images/choice_trial_9.png"" style=""width: 408px; height: 417px;""></div></div>","j","delaylearn","learning","trial","57732cfcda75d30001487571","8LNliSX9IlW9ovpF9WaWlzRTCIJ3","5","images/choice_trial_14.png","images/choice_trial_9.png","images/pattern_6.png","j","f","750","14","9","5","0","13","0","1","9","50","","","","",""
"html-keyboard-response","68","128797","0.0-30.0-1.0","","null","<div style=""display: flex; flex-direction: column; align-items: center; margin-top: -40px;""><img src=""images/pattern_6.png"" style=""width: 234px; height: 230px; margin-top: -50px;""><div style=""display: flex; justify-content: space-between; margin-top: 33px;""><img src=""images/choice_trial_9.png"" style=""width: 408px; height: 417px; margin-left:608px;""></div></div>","null","delaylearn","learning","display_response","57732cfcda75d30001487571","8LNliSX9IlW9ovpF9WaWlzRTCIJ3","","","","","","","","","","","","","","","","","chosen stimuli: images/choice_trial_9.png","","","",""
"html-keyboard-response","69","129555","0.0-30.0-2.0","","null","","null","delaylearn","learning","feedback_duration_window","57732cfcda75d30001487571","8LNliSX9IlW9ovpF9WaWlzRTCIJ3","","","","","","","","","","","","","","","","","","750","","",""
"html-keyboard-response","70","131064","0.0-30.0-3.0","","null","<div style='margin:auto;width: auto; font-size: 150%'><span style='font-weight: bold; font-size: 100px; color: green;'>+10 points!</span><br><br></div>","null","delaylearn","learning","feedback_image_window","57732cfcda75d30001487571","8LNliSX9IlW9ovpF9WaWlzRTCIJ3","","","","","","","","","","","","","","","","","","","","",""
"html-keyboard-response","71","131573","0.0-31.0-0.0","","null","","null","","","mood_trial_fixation","","","","","","","","","","","","","","","","","","","","","","",""
"lmdlab-html-vas-response","72","135866","0.0-31.0-1.0","","3283","How happy are you right now?","0.5185474113181785","delaylearn","learning","mood_trial","57732cfcda75d30001487571","8LNliSX9IlW9ovpF9WaWlzRTCIJ3","","","","","","","","","","","","","","","","","","","","[""Very unhappy"",""Very happy""]",""
"html-keyboard-response","73","137593","0.0-32.0","","null","<div style=""font-size:100px;"">+</div>","null","delaylearn","learning","ITI","57732cfcda75d30001487571","8LNliSX9IlW9ovpF9WaWlzRTCIJ3","","","","","","","","","","","","","","","","","","","1718","",""
"html-keyboard-response","74","138606","0.0-33.0-0.0","","1010.6999999999534","<div style=""display: flex; flex-direction: column; align-items: center; margin-top: -40px;""><img src=""images/pattern_1.png"" style=""width: 234px; height: 230px; margin-top: -50px;""><div style=""display: flex; justify-content: space-between; margin-top: 33px;""><img src=""images/choice_trial_15.png"" style=""width: 408px; height: 417px; margin-right: 200px;""><img src=""images/choice_trial_6.png"" style=""width: 408px; height: 417px;""></div></div>","j","delaylearn","learning","trial","57732cfcda75d30001487571","8LNliSX9IlW9ovpF9WaWlzRTCIJ3","5","images/choice_trial_15.png","images/choice_trial_6.png","images/pattern_1.png","j","j","7000","15","6","1","1","14","1","1","6","60","","","","",""
"html-keyboard-response","75","139624","0.0-33.0-1.0","","null","<div style=""display: flex; flex-direction: column; align-items: center; margin-top: -40px;""><img src=""images/pattern_1.png"" style=""width: 234px; height: 230px; margin-top: -50px;""><div style=""display: flex; justify-content: space-between; margin-top: 33px;""><img src=""images/choice_trial_6.png"" style=""width: 408px; height: 417px; margin-left:608px;""></div></div>","null","delaylearn","learning","display_response","57732cfcda75d30001487571","8LNliSX9IlW9ovpF9WaWlzRTCIJ3","","","","","","","","","","","","","","","","","chosen stimuli: images/choice_trial_6.png","","","",""
"html-keyboard-response","76","146635","0.0-33.0-2.0","","null","","null","delaylearn","learning","feedback_duration_window","57732cfcda75d30001487571","8LNliSX9IlW9ovpF9WaWlzRTCIJ3","","","","","","","","","","","","","","","","","","7000","","",""
"html-keyboard-response","77","148149","0.0-33.0-3.0","","null","<div style='margin:auto;width: auto; font-size: 150%'><span style='font-weight: bold; font-size: 100px; color: green;'>+10 points!</span><br><br></div>","null","delaylearn","learning","feedback_image_window","57732cfcda75d30001487571","8LNliSX9IlW9ovpF9WaWlzRTCIJ3","","","","","","","","","","","","","","","","","","","","",""
"html-keyboard-response","78","150165","0.0-34.0","","null","<div style=""font-size:100px;"">+</div>","null","delaylearn","learning","ITI","57732cfcda75d30001487571","8LNliSX9IlW9ovpF9WaWlzRTCIJ3","","","","","","","","","","","","","","","","","","","2002","",""
"html-keyboard-response","79","151483","0.0-35.0-0.0","","1314.8000000000466","<div style=""display: flex; flex-direction: column; align-items: center; margin-top: -40px;""><img src=""images/pattern_3.png"" style=""width: 234px; height: 230px; margin-top: -50px;""><div style=""display: flex; justify-content: space-between; margin-top: 33px;""><img src=""images/choice_trial_2.png"" style=""width: 408px; height: 417px; margin-right: 200px;""><img src=""images/choice_trial_16.png"" style=""width: 408px; height: 417px;""></div></div>","f","delaylearn","learning","trial","57732cfcda75d30001487571","8LNliSX9IlW9ovpF9WaWlzRTCIJ3","5","images/choice_trial_2.png","images/choice_trial_16.png","images/pattern_3.png","f","j","7000","2","16","2","1","15","0","1","2","70","","","","",""
"html-keyboard-response","80","152499","0.0-35.0-1.0","","null","<div style=""display: flex; flex-direction: column; align-items: center; margin-top: -40px;""><img src=""images/pattern_3.png"" style=""width: 234px; height: 230px; margin-top: -50px;""><div style=""display: flex; justify-content: space-between; margin-top: 33px;""><img src=""images/choice_trial_2.png"" style=""width: 408px; height: 417px; margin-right: 608px;""></div></div>","null","delaylearn","learning","display_response","57732cfcda75d30001487571","8LNliSX9IlW9ovpF9WaWlzRTCIJ3","","","","","","","","","","","","","","","","","chosen stimuli: images/choice_trial_2.png","","","",""
"html-keyboard-response","81","159508","0.0-35.0-2.0","","null","","null","delaylearn","learning","feedback_duration_window","57732cfcda75d30001487571","8LNliSX9IlW9ovpF9WaWlzRTCIJ3","","","","","","","","","","","","","","","","","","7000","","",""
"html-keyboard-response","82","161017","0.0-35.0-3.0","","null","<div style='margin:auto;width: auto; font-size: 150%'><span style='font-weight: bold; font-size: 100px; color: green;'>+10 points!</span><br><br></div>","null","delaylearn","learning","feedback_image_window","57732cfcda75d30001487571","8LNliSX9IlW9ovpF9WaWlzRTCIJ3","","","","","","","","","","","","","","","","","","","","",""
"html-keyboard-response","83","163471","0.0-36.0","","null","<div style=""font-size:100px;"">+</div>","null","delaylearn","learning","ITI","57732cfcda75d30001487571","8LNliSX9IlW9ovpF9WaWlzRTCIJ3","","","","","","","","","","","","","","","","","","","2447","",""
"html-keyboard-response","84","164976","0.0-37.0-0.0","","1502.9000000000233","<div style=""display: flex; flex-direction: column; align-items: center; margin-top: -40px;""><img src=""images/pattern_5.png"" style=""width: 234px; height: 230px; margin-top: -50px;""><div style=""display: flex; justify-content: space-between; margin-top: 33px;""><img src=""images/choice_trial_7.png"" style=""width: 408px; height: 417px; margin-right: 200px;""><img src=""images/choice_trial_13.png"" style=""width: 408px; height: 417px;""></div></div>","f","delaylearn","learning","trial","57732cfcda75d30001487571","8LNliSX9IlW9ovpF9WaWlzRTCIJ3","5","images/choice_trial_7.png","images/choice_trial_13.png","images/pattern_5.png","f","f","750","7","13","4","0","16","1","1","7","80","","","","",""
"html-keyboard-response","85","165986","0.0-37.0-1.0","","null","<div style=""display: flex; flex-direction: column; align-items: center; margin-top: -40px;""><img src=""images/pattern_5.png"" style=""width: 234px; height: 230px; margin-top: -50px;""><div style=""display: flex; justify-content: space-between; margin-top: 33px;""><img src=""images/choice_trial_7.png"" style=""width: 408px; height: 417px; margin-right: 608px;""></div></div>","null","delaylearn","learning","display_response","57732cfcda75d30001487571","8LNliSX9IlW9ovpF9WaWlzRTCIJ3","","","","","","","","","","","","","","","","","chosen stimuli: images/choice_trial_7.png","","","",""
"html-keyboard-response","86","166743","0.0-37.0-2.0","","null","","null","delaylearn","learning","feedback_duration_window","57732cfcda75d30001487571","8LNliSX9IlW9ovpF9WaWlzRTCIJ3","","","","","","","","","","","","","","","","","","750","","",""
"html-keyboard-response","87","168250","0.0-37.0-3.0","","null","<div style='margin:auto;width: auto; font-size: 150%'><span style='font-weight: bold; font-size: 100px; color: green;'>+10 points!</span><br><br></div>","null","delaylearn","learning","feedback_image_window","57732cfcda75d30001487571","8LNliSX9IlW9ovpF9WaWlzRTCIJ3","","","","","","","","","","","","","","","","","","","","",""
"html-keyboard-response","88","168760","0.0-38.0-0.0","","null","","null","","","mood_trial_fixation","","","","","","","","","","","","","","","","","","","","","","",""
"lmdlab-html-vas-response","89","173604","0.0-38.0-1.0","","3834","How happy are you right now?","0.5926214853922526","delaylearn","learning","mood_trial","57732cfcda75d30001487571","8LNliSX9IlW9ovpF9WaWlzRTCIJ3","","","","","","","","","","","","","","","","","","","","[""Very unhappy"",""Very happy""]",""
"html-keyboard-response","90","175534","0.0-39.0","","null","<div style=""font-size:100px;"">+</div>","null","delaylearn","learning","ITI","57732cfcda75d30001487571","8LNliSX9IlW9ovpF9WaWlzRTCIJ3","","","","","","","","","","","","","","","","","","","1925","",""
"html-keyboard-response","91","176576","0.0-40.0-0.0","","1039.1999999999534","<div style=""display: flex; flex-direction: column; align-items: center; margin-top: -40px;""><img src=""images/pattern_6.png"" style=""width: 234px; height: 230px; margin-top: -50px;""><div style=""display: flex; justify-content: space-between; margin-top: 33px;""><img src=""images/choice_trial_14.png"" style=""width: 408px; height: 417px; margin-right: 200px;""><img src=""images/choice_trial_9.png"" style=""width: 408px; height: 417px;""></div></div>","j","delaylearn","learning","trial","57732cfcda75d30001487571","8LNliSX9IlW9ovpF9WaWlzRTCIJ3","5","images/choice_trial_14.png","images/choice_trial_9.png","images/pattern_6.png","f","f","750","14","9","5","0","17","0","0","9","80","","","","",""
"html-keyboard-response","92","177585","0.0-40.0-1.0","","null","<div style=""display: flex; flex-direction: column; align-items: center; margin-top: -40px;""><img src=""images/pattern_6.png"" style=""width: 234px; height: 230px; margin-top: -50px;""><div style=""display: flex; justify-content: space-between; margin-top: 33px;""><img src=""images/choice_trial_9.png"" style=""width: 408px; height: 417px; margin-left:608px;""></div></div>","null","delaylearn","learning","display_response","57732cfcda75d30001487571","8LNliSX9IlW9ovpF9WaWlzRTCIJ3","","","","","","","","","","","","","","","","","chosen stimuli: images/choice_trial_9.png","","","",""
"html-keyboard-response","93","178344","0.0-40.0-2.0","","null","","null","delaylearn","learning","feedback_duration_window","57732cfcda75d30001487571","8LNliSX9IlW9ovpF9WaWlzRTCIJ3","","","","","","","","","","","","","","","","","","750","","",""
"html-keyboard-response","94","179852","0.0-40.0-3.0","","null","<div style='margin:auto;width: auto; font-size: 150%'><span style='font-weight: bold; font-size: 100px; color: red;'>0 points!</span><br><br></div>","null","delaylearn","learning","feedback_image_window","57732cfcda75d30001487571","8LNliSX9IlW9ovpF9WaWlzRTCIJ3","","","","","","","","","","","","","","","","","","","","",""
"html-keyboard-response","95","182290","0.0-41.0","","null","<div style=""font-size:100px;"">+</div>","null","delaylearn","learning","ITI","57732cfcda75d30001487571","8LNliSX9IlW9ovpF9WaWlzRTCIJ3","","","","","","","","","","","","","","","","","","","2422","",""
"html-keyboard-response","96","183517","0.0-42.0-0.0","","1224.1999999999534","<div style=""display: flex; flex-direction: column; align-items: center; margin-top: -40px;""><img src=""images/pattern_4.png"" style=""width: 234px; height: 230px; margin-top: -50px;""><div style=""display: flex; justify-content: space-between; margin-top: 33px;""><img src=""images/choice_trial_4.png"" style=""width: 408px; height: 417px; margin-right: 200px;""><img src=""images/choice_trial_11.png"" style=""width: 408px; height: 417px;""></div></div>","j","delaylearn","learning","trial","57732cfcda75d30001487571","8LNliSX9IlW9ovpF9WaWlzRTCIJ3","5","images/choice_trial_4.png","images/choice_trial_11.png","images/pattern_4.png","j","j","7000","4","11","3","1","18","1","1","11","90","","","","",""
"html-keyboard-response","97","184528","0.0-42.0-1.0","","null","<div style=""display: flex; flex-direction: column; align-items: center; margin-top: -40px;""><img src=""images/pattern_4.png"" style=""width: 234px; height: 230px; margin-top: -50px;""><div style=""display: flex; justify-content: space-between; margin-top: 33px;""><img src=""images/choice_trial_11.png"" style=""width: 408px; height: 417px; margin-left:608px;""></div></div>","null","delaylearn","learning","display_response","57732cfcda75d30001487571","8LNliSX9IlW9ovpF9WaWlzRTCIJ3","","","","","","","","","","","","","","","","","chosen stimuli: images/choice_trial_11.png","","","",""
"html-keyboard-response","98","191544","0.0-42.0-2.0","","null","","null","delaylearn","learning","feedback_duration_window","57732cfcda75d30001487571","8LNliSX9IlW9ovpF9WaWlzRTCIJ3","","","","","","","","","","","","","","","","","","7000","","",""
"html-keyboard-response","99","193053","0.0-42.0-3.0","","null","<div style='margin:auto;width: auto; font-size: 150%'><span style='font-weight: bold; font-size: 100px; color: green;'>+10 points!</span><br><br></div>","null","delaylearn","learning","feedback_image_window","57732cfcda75d30001487571","8LNliSX9IlW9ovpF9WaWlzRTCIJ3","","","","","","","","","","","","","","","","","","","","",""
"html-keyboard-response","100","195195","0.0-43.0","","null","<div style=""font-size:100px;"">+</div>","null","delaylearn","learning","ITI","57732cfcda75d30001487571","8LNliSX9IlW9ovpF9WaWlzRTCIJ3","","","","","","","","","","","","","","","","","","","2136","",""
"html-keyboard-response","101","196560","0.0-44.0-0.0","","1362.8000000000466","<div style=""display: flex; flex-direction: column; align-items: center; margin-top: -40px;""><img src=""images/pattern_7.png"" style=""width: 234px; height: 230px; margin-top: -50px;""><div style=""display: flex; justify-content: space-between; margin-top: 33px;""><img src=""images/choice_trial_8.png"" style=""width: 408px; height: 417px; margin-right: 200px;""><img src=""images/choice_trial_10.png"" style=""width: 408px; height: 417px;""></div></div>","f","delaylearn","learning","trial","57732cfcda75d30001487571","8LNliSX9IlW9ovpF9WaWlzRTCIJ3","5","images/choice_trial_8.png","images/choice_trial_10.png","images/pattern_7.png","j","f","750","8","10","6","0","19","1","0","8","90","","","","",""
"html-keyboard-response","102","197570","0.0-44.0-1.0","","null","<div style=""display: flex; flex-direction: column; align-items: center; margin-top: -40px;""><img src=""images/pattern_7.png"" style=""width: 234px; height: 230px; margin-top: -50px;""><div style=""display: flex; justify-content: space-between; margin-top: 33px;""><img src=""images/choice_trial_8.png"" style=""width: 408px; height: 417px; margin-right: 608px;""></div></div>","null","delaylearn","learning","display_response","57732cfcda75d30001487571","8LNliSX9IlW9ovpF9WaWlzRTCIJ3","","","","","","","","","","","","","","","","","chosen stimuli: images/choice_trial_8.png","","","",""
"html-keyboard-response","103","198322","0.0-44.0-2.0","","null","","null","delaylearn","learning","feedback_duration_window","57732cfcda75d30001487571","8LNliSX9IlW9ovpF9WaWlzRTCIJ3","","","","","","","","","","","","","","","","","","750","","",""
"html-keyboard-response","104","199830","0.0-44.0-3.0","","null","<div style='margin:auto;width: auto; font-size: 150%'><span style='font-weight: bold; font-size: 100px; color: red;'>0 points!</span><br><br></div>","null","delaylearn","learning","feedback_image_window","57732cfcda75d30001487571","8LNliSX9IlW9ovpF9WaWlzRTCIJ3","","","","","","","","","","","","","","","","","","","","",""
"html-keyboard-response","105","202259","0.0-45.0","","null","<div style=""font-size:100px;"">+</div>","null","delaylearn","learning","ITI","57732cfcda75d30001487571","8LNliSX9IlW9ovpF9WaWlzRTCIJ3","","","","","","","","","","","","","","","","","","","2421","",""
"html-keyboard-response","106","203502","0.0-46.0-0.0","","1240.5999999999767","<div style=""display: flex; flex-direction: column; align-items: center; margin-top: -40px;""><img src=""images/pattern_1.png"" style=""width: 234px; height: 230px; margin-top: -50px;""><div style=""display: flex; justify-content: space-between; margin-top: 33px;""><img src=""images/choice_trial_6.png"" style=""width: 408px; height: 417px; margin-right: 200px;""><img src=""images/choice_trial_15.png"" style=""width: 408px; height: 417px;""></div></div>","f","delaylearn","learning","trial","57732cfcda75d30001487571","8LNliSX9IlW9ovpF9WaWlzRTCIJ3","5","images/choice_trial_6.png","images/choice_trial_15.png","images/pattern_1.png","f","f","7000","6","15","1","0","20","1","1","6","100","","","","",""
"html-keyboard-response","107","204513","0.0-46.0-1.0","","null","<div style=""display: flex; flex-direction: column; align-items: center; margin-top: -40px;""><img src=""images/pattern_1.png"" style=""width: 234px; height: 230px; margin-top: -50px;""><div style=""display: flex; justify-content: space-between; margin-top: 33px;""><img src=""images/choice_trial_6.png"" style=""width: 408px; height: 417px; margin-right: 608px;""></div></div>","null","delaylearn","learning","display_response","57732cfcda75d30001487571","8LNliSX9IlW9ovpF9WaWlzRTCIJ3","","","","","","","","","","","","","","","","","chosen stimuli: images/choice_trial_6.png","","","",""
"html-keyboard-response","108","211529","0.0-46.0-2.0","","null","","null","delaylearn","learning","feedback_duration_window","57732cfcda75d30001487571","8LNliSX9IlW9ovpF9WaWlzRTCIJ3","","","","","","","","","","","","","","","","","","7000","","",""
"html-keyboard-response","109","213038","0.0-46.0-3.0","","null","<div style='margin:auto;width: auto; font-size: 150%'><span style='font-weight: bold; font-size: 100px; color: green;'>+10 points!</span><br><br></div>","null","delaylearn","learning","feedback_image_window","57732cfcda75d30001487571","8LNliSX9IlW9ovpF9WaWlzRTCIJ3","","","","","","","","","","","","","","","","","","","","",""
"html-keyboard-response","110","215195","0.0-47.0","","null","<div style=""font-size:100px;"">+</div>","null","delaylearn","learning","ITI","57732cfcda75d30001487571","8LNliSX9IlW9ovpF9WaWlzRTCIJ3","","","","","","","","","","","","","","","","","","","2153","",""
"html-keyboard-response","111","216487","0.0-48.0-0.0","","1289.0999999999767","<div style=""display: flex; flex-direction: column; align-items: center; margin-top: -40px;""><img src=""images/pattern_6.png"" style=""width: 234px; height: 230px; margin-top: -50px;""><div style=""display: flex; justify-content: space-between; margin-top: 33px;""><img src=""images/choice_trial_9.png"" style=""width: 408px; height: 417px; margin-right: 200px;""><img src=""images/choice_trial_14.png"" style=""width: 408px; height: 417px;""></div></div>","f","delaylearn","learning","trial","57732cfcda75d30001487571","8LNliSX9IlW9ovpF9WaWlzRTCIJ3","5","images/choice_trial_9.png","images/choice_trial_14.png","images/pattern_6.png","j","j","750","9","14","5","1","21","0","0","9","100","","","","",""
"html-keyboard-response","112","217498","0.0-48.0-1.0","","null","<div style=""display: flex; flex-direction: column; align-items: center; margin-top: -40px;""><img src=""images/pattern_6.png"" style=""width: 234px; height: 230px; margin-top: -50px;""><div style=""display: flex; justify-content: space-between; margin-top: 33px;""><img src=""images/choice_trial_9.png"" style=""width: 408px; height: 417px; margin-right: 608px;""></div></div>","null","delaylearn","learning","display_response","57732cfcda75d30001487571","8LNliSX9IlW9ovpF9WaWlzRTCIJ3","","","","","","","","","","","","","","","","","chosen stimuli: images/choice_trial_9.png","","","",""
"html-keyboard-response","113","218263","0.0-48.0-2.0","","null","","null","delaylearn","learning","feedback_duration_window","57732cfcda75d30001487571","8LNliSX9IlW9ovpF9WaWlzRTCIJ3","","","","","","","","","","","","","","","","","","750","","",""
"html-keyboard-response","114","219772","0.0-48.0-3.0","","null","<div style='margin:auto;width: auto; font-size: 150%'><span style='font-weight: bold; font-size: 100px; color: red;'>0 points!</span><br><br></div>","null","delaylearn","learning","feedback_image_window","57732cfcda75d30001487571","8LNliSX9IlW9ovpF9WaWlzRTCIJ3","","","","","","","","","","","","","","","","","","","","",""
"html-keyboard-response","115","222266","0.0-49.0","","null","<div style=""font-size:100px;"">+</div>","null","delaylearn","learning","ITI","57732cfcda75d30001487571","8LNliSX9IlW9ovpF9WaWlzRTCIJ3","","","","","","","","","","","","","","","","","","","2483","",""
"html-keyboard-response","116","223415","0.0-50.0-0.0","","1146.3000000000466","<div style=""display: flex; flex-direction: column; align-items: center; margin-top: -40px;""><img src=""images/pattern_4.png"" style=""width: 234px; height: 230px; margin-top: -50px;""><div style=""display: flex; justify-content: space-between; margin-top: 33px;""><img src=""images/choice_trial_11.png"" style=""width: 408px; height: 417px; margin-right: 200px;""><img src=""images/choice_trial_4.png"" style=""width: 408px; height: 417px;""></div></div>","f","delaylearn","learning","trial","57732cfcda75d30001487571","8LNliSX9IlW9ovpF9WaWlzRTCIJ3","5","images/choice_trial_11.png","images/choice_trial_4.png","images/pattern_4.png","f","f","7000","11","4","3","0","22","1","1","11","110","","","","",""
"html-keyboard-response","117","224425","0.0-50.0-1.0","","null","<div style=""display: flex; flex-direction: column; align-items: center; margin-top: -40px;""><img src=""images/pattern_4.png"" style=""width: 234px; height: 230px; margin-top: -50px;""><div style=""display: flex; justify-content: space-between; margin-top: 33px;""><img src=""images/choice_trial_11.png"" style=""width: 408px; height: 417px; margin-right: 608px;""></div></div>","null","delaylearn","learning","display_response","57732cfcda75d30001487571","8LNliSX9IlW9ovpF9WaWlzRTCIJ3","","","","","","","","","","","","","","","","","chosen stimuli: images/choice_trial_11.png","","","",""
"html-keyboard-response","118","231432","0.0-50.0-2.0","","null","","null","delaylearn","learning","feedback_duration_window","57732cfcda75d30001487571","8LNliSX9IlW9ovpF9WaWlzRTCIJ3","","","","","","","","","","","","","","","","","","7000","","",""
"html-keyboard-response","119","232949","0.0-50.0-3.0","","null","<div style='margin:auto;width: auto; font-size: 150%'><span style='font-weight: bold; font-size: 100px; color: green;'>+10 points!</span><br><br></div>","null","delaylearn","learning","feedback_image_window","57732cfcda75d30001487571","8LNliSX9IlW9ovpF9WaWlzRTCIJ3","","","","","","","","","","","","","","","","","","","","",""
"html-keyboard-response","120","233465","0.0-51.0-0.0","","null","","null","","","mood_trial_fixation","","","","","","","","","","","","","","","","","","","","","","",""
"lmdlab-html-vas-response","121","242897","0.0-51.0-1.0","","8421","How happy are you right now?","0.5092881520589193","delaylearn","learning","mood_trial","57732cfcda75d30001487571","8LNliSX9IlW9ovpF9WaWlzRTCIJ3","","","","","","","","","","","","","","","","","","","","[""Very unhappy"",""Very happy""]",""
"html-keyboard-response","122","244479","0.0-52.0","","null","<div style=""font-size:100px;"">+</div>","null","delaylearn","learning","ITI","57732cfcda75d30001487571","8LNliSX9IlW9ovpF9WaWlzRTCIJ3","","","","","","","","","","","","","","","","","","","1572","",""
"html-keyboard-response","123","245786","0.0-53.0-0.0","","1303.5","<div style=""display: flex; flex-direction: column; align-items: center; margin-top: -40px;""><img src=""images/pattern_7.png"" style=""width: 234px; height: 230px; margin-top: -50px;""><div style=""display: flex; justify-content: space-between; margin-top: 33px;""><img src=""images/choice_trial_10.png"" style=""width: 408px; height: 417px; margin-right: 200px;""><img src=""images/choice_trial_8.png"" style=""width: 408px; height: 417px;""></div></div>","f","delaylearn","learning","trial","57732cfcda75d30001487571","8LNliSX9IlW9ovpF9WaWlzRTCIJ3","5","images/choice_trial_10.png","images/choice_trial_8.png","images/pattern_7.png","j","j","750","10","8","6","1","23","0","0","10","110","","","","",""
"html-keyboard-response","124","246801","0.0-53.0-1.0","","null","<div style=""display: flex; flex-direction: column; align-items: center; margin-top: -40px;""><img src=""images/pattern_7.png"" style=""width: 234px; height: 230px; margin-top: -50px;""><div style=""display: flex; justify-content: space-between; margin-top: 33px;""><img src=""images/choice_trial_10.png"" style=""width: 408px; height: 417px; margin-right: 608px;""></div></div>","null","delaylearn","learning","display_response","57732cfcda75d30001487571","8LNliSX9IlW9ovpF9WaWlzRTCIJ3","","","","","","","","","","","","","","","","","chosen stimuli: images/choice_trial_10.png","","","",""
"html-keyboard-response","125","247560","0.0-53.0-2.0","","null","","null","delaylearn","learning","feedback_duration_window","57732cfcda75d30001487571","8LNliSX9IlW9ovpF9WaWlzRTCIJ3","","","","","","","","","","","","","","","","","","750","","",""
"html-keyboard-response","126","249075","0.0-53.0-3.0","","null","<div style='margin:auto;width: auto; font-size: 150%'><span style='font-weight: bold; font-size: 100px; color: red;'>0 points!</span><br><br></div>","null","delaylearn","learning","feedback_image_window","57732cfcda75d30001487571","8LNliSX9IlW9ovpF9WaWlzRTCIJ3","","","","","","","","","","","","","","","","","","","","",""
"html-keyboard-response","127","250890","0.0-54.0","","null","<div style=""font-size:100px;"">+</div>","null","delaylearn","learning","ITI","57732cfcda75d30001487571","8LNliSX9IlW9ovpF9WaWlzRTCIJ3","","","","","","","","","","","","","","","","","","","1800","",""
"html-keyboard-response","128","252215","0.0-55.0-0.0","","1322.3000000000466","<div style=""display: flex; flex-direction: column; align-items: center; margin-top: -40px;""><img src=""images/pattern_1.png"" style=""width: 234px; height: 230px; margin-top: -50px;""><div style=""display: flex; justify-content: space-between; margin-top: 33px;""><img src=""images/choice_trial_15.png"" style=""width: 408px; height: 417px; margin-right: 200px;""><img src=""images/choice_trial_6.png"" style=""width: 408px; height: 417px;""></div></div>","j","delaylearn","learning","trial","57732cfcda75d30001487571","8LNliSX9IlW9ovpF9WaWlzRTCIJ3","5","images/choice_trial_15.png","images/choice_trial_6.png","images/pattern_1.png","f","j","7000","15","6","1","1","24","1","0","6","110","","","","",""
"html-keyboard-response","129","253226","0.0-55.0-1.0","","null","<div style=""display: flex; flex-direction: column; align-items: center; margin-top: -40px;""><img src=""images/pattern_1.png"" style=""width: 234px; height: 230px; margin-top: -50px;""><div style=""display: flex; justify-content: space-between; margin-top: 33px;""><img src=""images/choice_trial_6.png"" style=""width: 408px; height: 417px; margin-left:608px;""></div></div>","null","delaylearn","learning","display_response","57732cfcda75d30001487571","8LNliSX9IlW9ovpF9WaWlzRTCIJ3","","","","","","","","","","","","","","","","","chosen stimuli: images/choice_trial_6.png","","","",""
"html-keyboard-response","130","260243","0.0-55.0-2.0","","null","","null","delaylearn","learning","feedback_duration_window","57732cfcda75d30001487571","8LNliSX9IlW9ovpF9WaWlzRTCIJ3","","","","","","","","","","","","","","","","","","7000","","",""
"html-keyboard-response","131","261745","0.0-55.0-3.0","","null","<div style='margin:auto;width: auto; font-size: 150%'><span style='font-weight: bold; font-size: 100px; color: red;'>0 points!</span><br><br></div>","null","delaylearn","learning","feedback_image_window","57732cfcda75d30001487571","8LNliSX9IlW9ovpF9WaWlzRTCIJ3","","","","","","","","","","","","","","","","","","","","",""
"html-keyboard-response","132","264228","0.0-56.0","","null","<div style=""font-size:100px;"">+</div>","null","delaylearn","learning","ITI","57732cfcda75d30001487571","8LNliSX9IlW9ovpF9WaWlzRTCIJ3","","","","","","","","","","","","","","","","","","","2474","",""
"html-keyboard-response","133","265681","0.0-57.0-0.0","","1449.8000000000466","<div style=""display: flex; flex-direction: column; align-items: center; margin-top: -40px;""><img src=""images/pattern_5.png"" style=""width: 234px; height: 230px; margin-top: -50px;""><div style=""display: flex; justify-content: space-between; margin-top: 33px;""><img src=""images/choice_trial_13.png"" style=""width: 408px; height: 417px; margin-right: 200px;""><img src=""images/choice_trial_7.png"" style=""width: 408px; height: 417px;""></div></div>","j","delaylearn","learning","trial","57732cfcda75d30001487571","8LNliSX9IlW9ovpF9WaWlzRTCIJ3","5","images/choice_trial_13.png","images/choice_trial_7.png","images/pattern_5.png","j","j","750","13","7","4","1","25","1","1","7","120","","","","",""
"html-keyboard-response","134","266694","0.0-57.0-1.0","","null","<div style=""display: flex; flex-direction: column; align-items: center; margin-top: -40px;""><img src=""images/pattern_5.png"" style=""width: 234px; height: 230px; margin-top: -50px;""><div style=""display: flex; justify-content: space-between; margin-top: 33px;""><img src=""images/choice_trial_7.png"" style=""width: 408px; height: 417px; margin-left:608px;""></div></div>","null","delaylearn","learning","display_response","57732cfcda75d30001487571","8LNliSX9IlW9ovpF9WaWlzRTCIJ3","","","","","","","","","","","","","","","","","chosen stimuli: images/choice_trial_7.png","","","",""
"html-keyboard-response","135","267452","0.0-57.0-2.0","","null","","null","delaylearn","learning","feedback_duration_window","57732cfcda75d30001487571","8LNliSX9IlW9ovpF9WaWlzRTCIJ3","","","","","","","","","","","","","","","","","","750","","",""
"html-keyboard-response","136","268960","0.0-57.0-3.0","","null","<div style='margin:auto;width: auto; font-size: 150%'><span style='font-weight: bold; font-size: 100px; color: green;'>+10 points!</span><br><br></div>","null","delaylearn","learning","feedback_image_window","57732cfcda75d30001487571","8LNliSX9IlW9ovpF9WaWlzRTCIJ3","","","","","","","","","","","","","","","","","","","","",""
"html-keyboard-response","137","270555","0.0-58.0","","null","<div style=""font-size:100px;"">+</div>","null","delaylearn","learning","ITI","57732cfcda75d30001487571","8LNliSX9IlW9ovpF9WaWlzRTCIJ3","","","","","","","","","","","","","","","","","","","1580","",""
"html-keyboard-response","138","271551","0.0-59.0-0.0","","992.4000000000233","<div style=""display: flex; flex-direction: column; align-items: center; margin-top: -40px;""><img src=""images/pattern_3.png"" style=""width: 234px; height: 230px; margin-top: -50px;""><div style=""display: flex; justify-content: space-between; margin-top: 33px;""><img src=""images/choice_trial_2.png"" style=""width: 408px; height: 417px; margin-right: 200px;""><img src=""images/choice_trial_16.png"" style=""width: 408px; height: 417px;""></div></div>","f","delaylearn","learning","trial","57732cfcda75d30001487571","8LNliSX9IlW9ovpF9WaWlzRTCIJ3","5","images/choice_trial_2.png","images/choice_trial_16.png","images/pattern_3.png","j","j","7000","2","16","2","1","26","0","0","2","120","","","","",""
"html-keyboard-response","139","272560","0.0-59.0-1.0","","null","<div style=""display: flex; flex-direction: column; align-items: center; margin-top: -40px;""><img src=""images/pattern_3.png"" style=""width: 234px; height: 230px; margin-top: -50px;""><div style=""display: flex; justify-content: space-between; margin-top: 33px;""><img src=""images/choice_trial_2.png"" style=""width: 408px; height: 417px; margin-right: 608px;""></div></div>","null","delaylearn","learning","display_response","57732cfcda75d30001487571","8LNliSX9IlW9ovpF9WaWlzRTCIJ3","","","","","","","","","","","","","","","","","chosen stimuli: images/choice_trial_2.png","","","",""
"html-keyboard-response","140","279570","0.0-59.0-2.0","","null","","null","delaylearn","learning","feedback_duration_window","57732cfcda75d30001487571","8LNliSX9IlW9ovpF9WaWlzRTCIJ3","","","","","","","","","","","","","","","","","","7000","","",""
"html-keyboard-response","141","281078","0.0-59.0-3.0","","null","<div style='margin:auto;width: auto; font-size: 150%'><span style='font-weight: bold; font-size: 100px; color: red;'>0 points!</span><br><br></div>","null","delaylearn","learning","feedback_image_window","57732cfcda75d30001487571","8LNliSX9IlW9ovpF9WaWlzRTCIJ3","","","","","","","","","","","","","","","","","","","","",""
"lmdlab-html-vas-response","142","287663","0.0-60.0-0.0","","5058","*How <b><u>confident</u></b> are you feeling about your answers at this moment?*","0.25462962962962965","rewlearn","rate_confidence","","57732cfcda75d30001487571","8LNliSX9IlW9ovpF9WaWlzRTCIJ3","","","","","","","","","","","","","","","","","","","","[""No confidence"",""Complete confidence""]",""
"lmdlab-rest-trial-limit","143","348723","0.0-60.0-1.0","","59543.89999999991","<div style=""font-size:40px;""><b>Please take a break!</b><br><br><br><br><p>Great work: you earned 120 points.<br><br><br><p>You have completed part(s) 1 of 5.<br><br><br><br>When you are ready to continue<br><br><br>please click the button.</p><br><br>","0","delaylearn","learning","break","57732cfcda75d30001487571","8LNliSX9IlW9ovpF9WaWlzRTCIJ3","","","","","","","","","","","","","","","","","","","","","0"
"html-keyboard-response","144","351735","0.0-60.0-2.0","","null","<div style=""font-size:100px;"">+</div>","null","delaylearn","learning","pre_fixation","57732cfcda75d30001487571","","","","","","","","","","","","","","","","","","","","","",""
"lmdlab-html-vas-response","145","356242","0.0-60.0-3.0-0.0","","3494","How happy are you right now?","0.4815103742811415","delaylearn","learning","mood_baseline","57732cfcda75d30001487571","8LNliSX9IlW9ovpF9WaWlzRTCIJ3","","","","","","","","","","","","","","","","","","","","[""Very unhappy"",""Very happy""]",""
"html-keyboard-response","146","357753","0.0-60.0-3.0-1.0","","null","","null","","","mood_baseline_fixation","","","","","","","","","","","","","","","","","","","","","","",""
"html-keyboard-response","147","360209","0.0-61.0","","null","<div style=""font-size:100px;"">+</div>","null","delaylearn","learning","ITI","57732cfcda75d30001487571","8LNliSX9IlW9ovpF9WaWlzRTCIJ3","","","","","","","","","","","","","","","","","","","2449","",""
"html-keyboard-response","148","361316","0.0-62.0-0.0","","1103.6999999999534","<div style=""display: flex; flex-direction: column; align-items: center; margin-top: -40px;""><img src=""images/pattern_7.png"" style=""width: 234px; height: 230px; margin-top: -50px;""><div style=""display: flex; justify-content: space-between; margin-top: 33px;""><img src=""images/choice_trial_10.png"" style=""width: 408px; height: 417px; margin-right: 200px;""><img src=""images/choice_trial_8.png"" style=""width: 408px; height: 417px;""></div></div>","f","delaylearn","learning","trial","57732cfcda75d30001487571","8LNliSX9IlW9ovpF9WaWlzRTCIJ3","5","images/choice_trial_10.png","images/choice_trial_8.png","images/pattern_7.png","j","j","750","10","8","6","1","27","0","0","10","120","","","","",""
"html-keyboard-response","149","362326","0.0-62.0-1.0","","null","<div style=""display: flex; flex-direction: column; align-items: center; margin-top: -40px;""><img src=""images/pattern_7.png"" style=""width: 234px; height: 230px; margin-top: -50px;""><div style=""display: flex; justify-content: space-between; margin-top: 33px;""><img src=""images/choice_trial_10.png"" style=""width: 408px; height: 417px; margin-right: 608px;""></div></div>","null","delaylearn","learning","display_response","57732cfcda75d30001487571","8LNliSX9IlW9ovpF9WaWlzRTCIJ3","","","","","","","","","","","","","","","","","chosen stimuli: images/choice_trial_10.png","","","",""
"html-keyboard-response","150","363079","0.0-62.0-2.0","","null","","null","delaylearn","learning","feedback_duration_window","57732cfcda75d30001487571","8LNliSX9IlW9ovpF9WaWlzRTCIJ3","","","","","","","","","","","","","","","","","","750","","",""
"html-keyboard-response","151","364586","0.0-62.0-3.0","","null","<div style='margin:auto;width: auto; font-size: 150%'><span style='font-weight: bold; font-size: 100px; color: red;'>0 points!</span><br><br></div>","null","delaylearn","learning","feedback_image_window","57732cfcda75d30001487571","8LNliSX9IlW9ovpF9WaWlzRTCIJ3","","","","","","","","","","","","","","","","","","","","",""
"html-keyboard-response","152","365096","0.0-63.0-0.0","","null","","null","","","mood_trial_fixation","","","","","","","","","","","","","","","","","","","","","","",""
"lmdlab-html-vas-response","153","368852","0.0-63.0-1.0","","2746","How happy are you right now?","0.39817704094780815","delaylearn","learning","mood_trial","57732cfcda75d30001487571","8LNliSX9IlW9ovpF9WaWlzRTCIJ3","","","","","","","","","","","","","","","","","","","","[""Very unhappy"",""Very happy""]",""
"html-keyboard-response","154","371342","0.0-64.0","","null","<div style=""font-size:100px;"">+</div>","null","delaylearn","learning","ITI","57732cfcda75d30001487571","8LNliSX9IlW9ovpF9WaWlzRTCIJ3","","","","","","","","","","","","","","","","","","","2474","",""
"html-keyboard-response","155","373700","0.0-65.0-0.0","","2355.399999999907","<div style=""display: flex; flex-direction: column; align-items: center; margin-top: -40px;""><img src=""images/pattern_1.png"" style=""width: 234px; height: 230px; margin-top: -50px;""><div style=""display: flex; justify-content: space-between; margin-top: 33px;""><img src=""images/choice_trial_6.png"" style=""width: 408px; height: 417px; margin-right: 200px;""><img src=""images/choice_trial_15.png"" style=""width: 408px; height: 417px;""></div></div>","j","delaylearn","learning","trial","57732cfcda75d30001487571","8LNliSX9IlW9ovpF9WaWlzRTCIJ3","5","images/choice_trial_6.png","images/choice_trial_15.png","images/pattern_1.png","f","f","7000","6","15","1","0","28","0","0","15","120","","","","",""
"html-keyboard-response","156","374706","0.0-65.0-1.0","","null","<div style=""display: flex; flex-direction: column; align-items: center; margin-top: -40px;""><img src=""images/pattern_1.png"" style=""width: 234px; height: 230px; margin-top: -50px;""><div style=""display: flex; justify-content: space-between; margin-top: 33px;""><img src=""images/choice_trial_15.png"" style=""width: 408px; height: 417px; margin-left:608px;""></div></div>","null","delaylearn","learning","display_response","57732cfcda75d30001487571","8LNliSX9IlW9ovpF9WaWlzRTCIJ3","","","","","","","","","","","","","","","","","chosen stimuli: images/choice_trial_15.png","","","",""
"html-keyboard-response","157","381713","0.0-65.0-2.0","","null","","null","delaylearn","learning","feedback_duration_window","57732cfcda75d30001487571","8LNliSX9IlW9ovpF9WaWlzRTCIJ3","","","","","","","","","","","","","","","","","","7000","","",""
"html-keyboard-response","158","383222","0.0-65.0-3.0","","null","<div style='margin:auto;width: auto; font-size: 150%'><span style='font-weight: bold; font-size: 100px; color: red;'>0 points!</span><br><br></div>","null","delaylearn","learning","feedback_image_window","57732cfcda75d30001487571","8LNliSX9IlW9ovpF9WaWlzRTCIJ3","","","","","","","","","","","","","","","","","","","","",""
"html-keyboard-response","159","385067","0.0-66.0","","null","<div style=""font-size:100px;"">+</div>","null","delaylearn","learning","ITI","57732cfcda75d30001487571","8LNliSX9IlW9ovpF9WaWlzRTCIJ3","","","","","","","","","","","","","","","","","","","1842","",""
"html-keyboard-response","160","386427","0.0-67.0-0.0","","1357.3000000000466","<div style=""display: flex; flex-direction: column; align-items: center; margin-top: -40px;""><img src=""images/pattern_5.png"" style=""width: 234px; height: 230px; margin-top: -50px;""><div style=""display: flex; justify-content: space-between; margin-top: 33px;""><img src=""images/choice_trial_7.png"" style=""width: 408px; height: 417px; margin-right: 200px;""><img src=""images/choice_trial_13.png"" style=""width: 408px; height: 417px;""></div></div>","f","delaylearn","learning","trial","57732cfcda75d30001487571","8LNliSX9IlW9ovpF9WaWlzRTCIJ3","5","images/choice_trial_7.png","images/choice_trial_13.png","images/pattern_5.png","f","f","750","7","13","4","0","29","1","1","7","130","","","","",""
"html-keyboard-response","161","387439","0.0-67.0-1.0","","null","<div style=""display: flex; flex-direction: column; align-items: center; margin-top: -40px;""><img src=""images/pattern_5.png"" style=""width: 234px; height: 230px; margin-top: -50px;""><div style=""display: flex; justify-content: space-between; margin-top: 33px;""><img src=""images/choice_trial_7.png"" style=""width: 408px; height: 417px; margin-right: 608px;""></div></div>","null","delaylearn","learning","display_response","57732cfcda75d30001487571","8LNliSX9IlW9ovpF9WaWlzRTCIJ3","","","","","","","","","","","","","","","","","chosen stimuli: images/choice_trial_7.png","","","",""
"html-keyboard-response","162","388198","0.0-67.0-2.0","","null","","null","delaylearn","learning","feedback_duration_window","57732cfcda75d30001487571","8LNliSX9IlW9ovpF9WaWlzRTCIJ3","","","","","","","","","","","","","","","","","","750","","",""
"html-keyboard-response","163","389705","0.0-67.0-3.0","","null","<div style='margin:auto;width: auto; font-size: 150%'><span style='font-weight: bold; font-size: 100px; color: green;'>+10 points!</span><br><br></div>","null","delaylearn","learning","feedback_image_window","57732cfcda75d30001487571","8LNliSX9IlW9ovpF9WaWlzRTCIJ3","","","","","","","","","","","","","","","","","","","","",""
"html-keyboard-response","164","392200","0.0-68.0","","null","<div style=""font-size:100px;"">+</div>","null","delaylearn","learning","ITI","57732cfcda75d30001487571","8LNliSX9IlW9ovpF9WaWlzRTCIJ3","","","","","","","","","","","","","","","","","","","2478","",""
"html-keyboard-response","165","393257","0.0-69.0-0.0","","1053.6000000000931","<div style=""display: flex; flex-direction: column; align-items: center; margin-top: -40px;""><img src=""images/pattern_6.png"" style=""width: 234px; height: 230px; margin-top: -50px;""><div style=""display: flex; justify-content: space-between; margin-top: 33px;""><img src=""images/choice_trial_9.png"" style=""width: 408px; height: 417px; margin-right: 200px;""><img src=""images/choice_trial_14.png"" style=""width: 408px; height: 417px;""></div></div>","f","delaylearn","learning","trial","57732cfcda75d30001487571","8LNliSX9IlW9ovpF9WaWlzRTCIJ3","5","images/choice_trial_9.png","images/choice_trial_14.png","images/pattern_6.png","j","j","750","9","14","5","1","30","0","0","9","130","","","","",""
"html-keyboard-response","166","394273","0.0-69.0-1.0","","null","<div style=""display: flex; flex-direction: column; align-items: center; margin-top: -40px;""><img src=""images/pattern_6.png"" style=""width: 234px; height: 230px; margin-top: -50px;""><div style=""display: flex; justify-content: space-between; margin-top: 33px;""><img src=""images/choice_trial_9.png"" style=""width: 408px; height: 417px; margin-right: 608px;""></div></div>","null","delaylearn","learning","display_response","57732cfcda75d30001487571","8LNliSX9IlW9ovpF9WaWlzRTCIJ3","","","","","","","","","","","","","","","","","chosen stimuli: images/choice_trial_9.png","","","",""
"html-keyboard-response","167","395025","0.0-69.0-2.0","","null","","null","delaylearn","learning","feedback_duration_window","57732cfcda75d30001487571","8LNliSX9IlW9ovpF9WaWlzRTCIJ3","","","","","","","","","","","","","","","","","","750","","",""
"html-keyboard-response","168","396541","0.0-69.0-3.0","","null","<div style='margin:auto;width: auto; font-size: 150%'><span style='font-weight: bold; font-size: 100px; color: red;'>0 points!</span><br><br></div>","null","delaylearn","learning","feedback_image_window","57732cfcda75d30001487571","8LNliSX9IlW9ovpF9WaWlzRTCIJ3","","","","","","","","","","","","","","","","","","","","",""
"html-keyboard-response","169","397049","0.0-70.0-0.0","","null","","null","","","mood_trial_fixation","","","","","","","","","","","","","","","","","","","","","","",""
"lmdlab-html-vas-response","170","402310","0.0-70.0-1.0","","4251","How happy are you right now?","0.3426214853922526","delaylearn","learning","mood_trial","57732cfcda75d30001487571","8LNliSX9IlW9ovpF9WaWlzRTCIJ3","","","","","","","","","","","","","","","","","","","","[""Very unhappy"",""Very happy""]",""
"html-keyboard-response","171","404348","0.0-71.0","","null","<div style=""font-size:100px;"">+</div>","null","delaylearn","learning","ITI","57732cfcda75d30001487571","8LNliSX9IlW9ovpF9WaWlzRTCIJ3","","","","","","","","","","","","","","","","","","","2032","",""
"html-keyboard-response","172","405687","0.0-72.0-0.0","","1336.0999999998603","<div style=""display: flex; flex-direction: column; align-items: center; margin-top: -40px;""><img src=""images/pattern_4.png"" style=""width: 234px; height: 230px; margin-top: -50px;""><div style=""display: flex; justify-content: space-between; margin-top: 33px;""><img src=""images/choice_trial_4.png"" style=""width: 408px; height: 417px; margin-right: 200px;""><img src=""images/choice_trial_11.png"" style=""width: 408px; height: 417px;""></div></div>","j","delaylearn","learning","trial","57732cfcda75d30001487571","8LNliSX9IlW9ovpF9WaWlzRTCIJ3","5","images/choice_trial_4.png","images/choice_trial_11.png","images/pattern_4.png","j","j","7000","4","11","3","1","31","1","1","11","140","","","","",""
"html-keyboard-response","173","406692","0.0-72.0-1.0","","null","<div style=""display: flex; flex-direction: column; align-items: center; margin-top: -40px;""><img src=""images/pattern_4.png"" style=""width: 234px; height: 230px; margin-top: -50px;""><div style=""display: flex; justify-content: space-between; margin-top: 33px;""><img src=""images/choice_trial_11.png"" style=""width: 408px; height: 417px; margin-left:608px;""></div></div>","null","delaylearn","learning","display_response","57732cfcda75d30001487571","8LNliSX9IlW9ovpF9WaWlzRTCIJ3","","","","","","","","","","","","","","","","","chosen stimuli: images/choice_trial_11.png","","","",""
"html-keyboard-response","174","413700","0.0-72.0-2.0","","null","","null","delaylearn","learning","feedback_duration_window","57732cfcda75d30001487571","8LNliSX9IlW9ovpF9WaWlzRTCIJ3","","","","","","","","","","","","","","","","","","7000","","",""
"html-keyboard-response","175","415217","0.0-72.0-3.0","","null","<div style='margin:auto;width: auto; font-size: 150%'><span style='font-weight: bold; font-size: 100px; color: green;'>+10 points!</span><br><br></div>","null","delaylearn","learning","feedback_image_window","57732cfcda75d30001487571","8LNliSX9IlW9ovpF9WaWlzRTCIJ3","","","","","","","","","","","","","","","","","","","","",""
"html-keyboard-response","176","417006","0.0-73.0","","null","<div style=""font-size:100px;"">+</div>","null","delaylearn","learning","ITI","57732cfcda75d30001487571","8LNliSX9IlW9ovpF9WaWlzRTCIJ3","","","","","","","","","","","","","","","","","","","1773","",""
"html-keyboard-response","177","418997","0.0-74.0-0.0","","1986.7000000001863","<div style=""display: flex; flex-direction: column; align-items: center; margin-top: -40px;""><img src=""images/pattern_3.png"" style=""width: 234px; height: 230px; margin-top: -50px;""><div style=""display: flex; justify-content: space-between; margin-top: 33px;""><img src=""images/choice_trial_2.png"" style=""width: 408px; height: 417px; margin-right: 200px;""><img src=""images/choice_trial_16.png"" style=""width: 408px; height: 417px;""></div></div>","f","delaylearn","learning","trial","57732cfcda75d30001487571","8LNliSX9IlW9ovpF9WaWlzRTCIJ3","5","images/choice_trial_2.png","images/choice_trial_16.png","images/pattern_3.png","j","j","7000","2","16","2","1","32","0","0","2","140","","","","",""
"html-keyboard-response","178","420009","0.0-74.0-1.0","","null","<div style=""display: flex; flex-direction: column; align-items: center; margin-top: -40px;""><img src=""images/pattern_3.png"" style=""width: 234px; height: 230px; margin-top: -50px;""><div style=""display: flex; justify-content: space-between; margin-top: 33px;""><img src=""images/choice_trial_2.png"" style=""width: 408px; height: 417px; margin-right: 608px;""></div></div>","null","delaylearn","learning","display_response","57732cfcda75d30001487571","8LNliSX9IlW9ovpF9WaWlzRTCIJ3","","","","","","","","","","","","","","","","","chosen stimuli: images/choice_trial_2.png","","","",""
"html-keyboard-response","179","427018","0.0-74.0-2.0","","null","","null","delaylearn","learning","feedback_duration_window","57732cfcda75d30001487571","8LNliSX9IlW9ovpF9WaWlzRTCIJ3","","","","","","","","","","","","","","","","","","7000","","",""
"html-keyboard-response","180","428526","0.0-74.0-3.0","","null","<div style='margin:auto;width: auto; font-size: 150%'><span style='font-weight: bold; font-size: 100px; color: red;'>0 points!</span><br><br></div>","null","delaylearn","learning","feedback_image_window","57732cfcda75d30001487571","8LNliSX9IlW9ovpF9WaWlzRTCIJ3","","","","","","","","","","","","","","","","","","","","",""
"html-keyboard-response","181","430683","0.0-75.0","","null","<div style=""font-size:100px;"">+</div>","null","delaylearn","learning","ITI","57732cfcda75d30001487571","8LNliSX9IlW9ovpF9WaWlzRTCIJ3","","","","","","","","","","","","","","","","","","","2148","",""
"html-keyboard-response","182","432999","0.0-76.0-0.0","","2312.899999999907","<div style=""display: flex; flex-direction: column; align-items: center; margin-top: -40px;""><img src=""images/pattern_5.png"" style=""width: 234px; height: 230px; margin-top: -50px;""><div style=""display: flex; justify-content: space-between; margin-top: 33px;""><img src=""images/choice_trial_7.png"" style=""width: 408px; height: 417px; margin-right: 200px;""><img src=""images/choice_trial_13.png"" style=""width: 408px; height: 417px;""></div></div>","f","delaylearn","learning","trial","57732cfcda75d30001487571","8LNliSX9IlW9ovpF9WaWlzRTCIJ3","5","images/choice_trial_7.png","images/choice_trial_13.png","images/pattern_5.png","j","f","750","7","13","4","0","33","1","0","7","140","","","","",""
"html-keyboard-response","183","434010","0.0-76.0-1.0","","null","<div style=""display: flex; flex-direction: column; align-items: center; margin-top: -40px;""><img src=""images/pattern_5.png"" style=""width: 234px; height: 230px; margin-top: -50px;""><div style=""display: flex; justify-content: space-between; margin-top: 33px;""><img src=""images/choice_trial_7.png"" style=""width: 408px; height: 417px; margin-right: 608px;""></div></div>","null","delaylearn","learning","display_response","57732cfcda75d30001487571","8LNliSX9IlW9ovpF9WaWlzRTCIJ3","","","","","","","","","","","","","","","","","chosen stimuli: images/choice_trial_7.png","","","",""
"html-keyboard-response","184","434769","0.0-76.0-2.0","","null","","null","delaylearn","learning","feedback_duration_window","57732cfcda75d30001487571","8LNliSX9IlW9ovpF9WaWlzRTCIJ3","","","","","","","","","","","","","","","","","","750","","",""
"html-keyboard-response","185","436277","0.0-76.0-3.0","","null","<div style='margin:auto;width: auto; font-size: 150%'><span style='font-weight: bold; font-size: 100px; color: red;'>0 points!</span><br><br></div>","null","delaylearn","learning","feedback_image_window","57732cfcda75d30001487571","8LNliSX9IlW9ovpF9WaWlzRTCIJ3","","","","","","","","","","","","","","","","","","","","",""
"html-keyboard-response","186","438473","0.0-77.0","","null","<div style=""font-size:100px;"">+</div>","null","delaylearn","learning","ITI","57732cfcda75d30001487571","8LNliSX9IlW9ovpF9WaWlzRTCIJ3","","","","","","","","","","","","","","","","","","","2190","",""
"html-keyboard-response","187","439955","0.0-78.0-0.0","","1478.3000000000466","<div style=""display: flex; flex-direction: column; align-items: center; margin-top: -40px;""><img src=""images/pattern_1.png"" style=""width: 234px; height: 230px; margin-top: -50px;""><div style=""display: flex; justify-content: space-between; margin-top: 33px;""><img src=""images/choice_trial_6.png"" style=""width: 408px; height: 417px; margin-right: 200px;""><img src=""images/choice_trial_15.png"" style=""width: 408px; height: 417px;""></div></div>","f","delaylearn","learning","trial","57732cfcda75d30001487571","8LNliSX9IlW9ovpF9WaWlzRTCIJ3","5","images/choice_trial_6.png","images/choice_trial_15.png","images/pattern_1.png","f","f","7000","6","15","1","0","34","1","1","6","150","","","","",""
"html-keyboard-response","188","440970","0.0-78.0-1.0","","null","<div style=""display: flex; flex-direction: column; align-items: center; margin-top: -40px;""><img src=""images/pattern_1.png"" style=""width: 234px; height: 230px; margin-top: -50px;""><div style=""display: flex; justify-content: space-between; margin-top: 33px;""><img src=""images/choice_trial_6.png"" style=""width: 408px; height: 417px; margin-right: 608px;""></div></div>","null","delaylearn","learning","display_response","57732cfcda75d30001487571","8LNliSX9IlW9ovpF9WaWlzRTCIJ3","","","","","","","","","","","","","","","","","chosen stimuli: images/choice_trial_6.png","","","",""
"html-keyboard-response","189","447986","0.0-78.0-2.0","","null","","null","delaylearn","learning","feedback_duration_window","57732cfcda75d30001487571","8LNliSX9IlW9ovpF9WaWlzRTCIJ3","","","","","","","","","","","","","","","","","","7000","","",""
"html-keyboard-response","190","449494","0.0-78.0-3.0","","null","<div style='margin:auto;width: auto; font-size: 150%'><span style='font-weight: bold; font-size: 100px; color: green;'>+10 points!</span><br><br></div>","null","delaylearn","learning","feedback_image_window","57732cfcda75d30001487571","8LNliSX9IlW9ovpF9WaWlzRTCIJ3","","","","","","","","","","","","","","","","","","","","",""
"html-keyboard-response","191","450004","0.0-79.0-0.0","","null","","null","","","mood_trial_fixation","","","","","","","","","","","","","","","","","","","","","","",""
"lmdlab-html-vas-response","192","453910","0.0-79.0-1.0","","2896","How happy are you right now?","0.44215852242928966","delaylearn","learning","mood_trial","57732cfcda75d30001487571","8LNliSX9IlW9ovpF9WaWlzRTCIJ3","","","","","","","","","","","","","","","","","","","","[""Very unhappy"",""Very happy""]",""
"html-keyboard-response","193","456177","0.0-80.0","","null","<div style=""font-size:100px;"">+</div>","null","delaylearn","learning","ITI","57732cfcda75d30001487571","8LNliSX9IlW9ovpF9WaWlzRTCIJ3","","","","","","","","","","","","","","","","","","","2259","",""
"html-keyboard-response","194","457863","0.0-81.0-0.0","","1683.3000000000466","<div style=""display: flex; flex-direction: column; align-items: center; margin-top: -40px;""><img src=""images/pattern_6.png"" style=""width: 234px; height: 230px; margin-top: -50px;""><div style=""display: flex; justify-content: space-between; margin-top: 33px;""><img src=""images/choice_trial_14.png"" style=""width: 408px; height: 417px; margin-right: 200px;""><img src=""images/choice_trial_9.png"" style=""width: 408px; height: 417px;""></div></div>","j","delaylearn","learning","trial","57732cfcda75d30001487571","8LNliSX9IlW9ovpF9WaWlzRTCIJ3","5","images/choice_trial_14.png","images/choice_trial_9.png","images/pattern_6.png","j","f","750","14","9","5","0","35","0","1","9","160","","","","",""
"html-keyboard-response","195","458872","0.0-81.0-1.0","","null","<div style=""display: flex; flex-direction: column; align-items: center; margin-top: -40px;""><img src=""images/pattern_6.png"" style=""width: 234px; height: 230px; margin-top: -50px;""><div style=""display: flex; justify-content: space-between; margin-top: 33px;""><img src=""images/choice_trial_9.png"" style=""width: 408px; height: 417px; margin-left:608px;""></div></div>","null","delaylearn","learning","display_response","57732cfcda75d30001487571","8LNliSX9IlW9ovpF9WaWlzRTCIJ3","","","","","","","","","","","","","","","","","chosen stimuli: images/choice_trial_9.png","","","",""
"html-keyboard-response","196","459637","0.0-81.0-2.0","","null","","null","delaylearn","learning","feedback_duration_window","57732cfcda75d30001487571","8LNliSX9IlW9ovpF9WaWlzRTCIJ3","","","","","","","","","","","","","","","","","","750","","",""
"html-keyboard-response","197","461146","0.0-81.0-3.0","","null","<div style='margin:auto;width: auto; font-size: 150%'><span style='font-weight: bold; font-size: 100px; color: green;'>+10 points!</span><br><br></div>","null","delaylearn","learning","feedback_image_window","57732cfcda75d30001487571","8LNliSX9IlW9ovpF9WaWlzRTCIJ3","","","","","","","","","","","","","","","","","","","","",""
"html-keyboard-response","198","463256","0.0-82.0","","null","<div style=""font-size:100px;"">+</div>","null","delaylearn","learning","ITI","57732cfcda75d30001487571","8LNliSX9IlW9ovpF9WaWlzRTCIJ3","","","","","","","","","","","","","","","","","","","2097","",""
"html-keyboard-response","199","464829","0.0-83.0-0.0","","1569.6999999999534","<div style=""display: flex; flex-direction: column; align-items: center; margin-top: -40px;""><img src=""images/pattern_3.png"" style=""width: 234px; height: 230px; margin-top: -50px;""><div style=""display: flex; justify-content: space-between; margin-top: 33px;""><img src=""images/choice_trial_2.png"" style=""width: 408px; height: 417px; margin-right: 200px;""><img src=""images/choice_trial_16.png"" style=""width: 408px; height: 417px;""></div></div>","j","delaylearn","learning","trial","57732cfcda75d30001487571","8LNliSX9IlW9ovpF9WaWlzRTCIJ3","5","images/choice_trial_2.png","images/choice_trial_16.png","images/pattern_3.png","j","j","7000","2","16","2","1","36","1","1","16","170","","","","",""
"html-keyboard-response","200","465839","0.0-83.0-1.0","","null","<div style=""display: flex; flex-direction: column; align-items: center; margin-top: -40px;""><img src=""images/pattern_3.png"" style=""width: 234px; height: 230px; margin-top: -50px;""><div style=""display: flex; justify-content: space-between; margin-top: 33px;""><img src=""images/choice_trial_16.png"" style=""width: 408px; height: 417px; margin-left:608px;""></div></div>","null","delaylearn","learning","display_response","57732cfcda75d30001487571","8LNliSX9IlW9ovpF9WaWlzRTCIJ3","","","","","","","","","","","","","","","","","chosen stimuli: images/choice_trial_16.png","","","",""
"html-keyboard-response","201","472854","0.0-83.0-2.0","","null","","null","delaylearn","learning","feedback_duration_window","57732cfcda75d30001487571","8LNliSX9IlW9ovpF9WaWlzRTCIJ3","","","","","","","","","","","","","","","","","","7000","","",""
"html-keyboard-response","202","474363","0.0-83.0-3.0","","null","<div style='margin:auto;width: auto; font-size: 150%'><span style='font-weight: bold; font-size: 100px; color: green;'>+10 points!</span><br><br></div>","null","delaylearn","learning","feedback_image_window","57732cfcda75d30001487571","8LNliSX9IlW9ovpF9WaWlzRTCIJ3","","","","","","","","","","","","","","","","","","","","",""
"html-keyboard-response","203","476357","0.0-84.0","","null","<div style=""font-size:100px;"">+</div>","null","delaylearn","learning","ITI","57732cfcda75d30001487571","8LNliSX9IlW9ovpF9WaWlzRTCIJ3","","","","","","","","","","","","","","","","","","","1981","",""
"html-keyboard-response","204","478343","0.0-85.0-0.0","","1982.2000000001863","<div style=""display: flex; flex-direction: column; align-items: center; margin-top: -40px;""><img src=""images/pattern_4.png"" style=""width: 234px; height: 230px; margin-top: -50px;""><div style=""display: flex; justify-content: space-between; margin-top: 33px;""><img src=""images/choice_trial_4.png"" style=""width: 408px; height: 417px; margin-right: 200px;""><img src=""images/choice_trial_11.png"" style=""width: 408px; height: 417px;""></div></div>","j","delaylearn","learning","trial","57732cfcda75d30001487571","8LNliSX9IlW9ovpF9WaWlzRTCIJ3","5","images/choice_trial_4.png","images/choice_trial_11.png","images/pattern_4.png","f","j","7000","4","11","3","1","37","1","0","11","170","","","","",""
"html-keyboard-response","205","479350","0.0-85.0-1.0","","null","<div style=""display: flex; flex-direction: column; align-items: center; margin-top: -40px;""><img src=""images/pattern_4.png"" style=""width: 234px; height: 230px; margin-top: -50px;""><div style=""display: flex; justify-content: space-between; margin-top: 33px;""><img src=""images/choice_trial_11.png"" style=""width: 408px; height: 417px; margin-left:608px;""></div></div>","null","delaylearn","learning","display_response","57732cfcda75d30001487571","8LNliSX9IlW9ovpF9WaWlzRTCIJ3","","","","","","","","","","","","","","","","","chosen stimuli: images/choice_trial_11.png","","","",""
"html-keyboard-response","206","486365","0.0-85.0-2.0","","null","","null","delaylearn","learning","feedback_duration_window","57732cfcda75d30001487571","8LNliSX9IlW9ovpF9WaWlzRTCIJ3","","","","","","","","","","","","","","","","","","7000","","",""
"html-keyboard-response","207","487874","0.0-85.0-3.0","","null","<div style='margin:auto;width: auto; font-size: 150%'><span style='font-weight: bold; font-size: 100px; color: red;'>0 points!</span><br><br></div>","null","delaylearn","learning","feedback_image_window","57732cfcda75d30001487571","8LNliSX9IlW9ovpF9WaWlzRTCIJ3","","","","","","","","","","","","","","","","","","","","",""
"html-keyboard-response","208","489507","0.0-86.0","","null","<div style=""font-size:100px;"">+</div>","null","delaylearn","learning","ITI","57732cfcda75d30001487571","8LNliSX9IlW9ovpF9WaWlzRTCIJ3","","","","","","","","","","","","","","","","","","","1626","",""
"html-keyboard-response","209","491255","0.0-87.0-0.0","","1745.1000000000931","<div style=""display: flex; flex-direction: column; align-items: center; margin-top: -40px;""><img src=""images/pattern_7.png"" style=""width: 234px; height: 230px; margin-top: -50px;""><div style=""display: flex; justify-content: space-between; margin-top: 33px;""><img src=""images/choice_trial_8.png"" style=""width: 408px; height: 417px; margin-right: 200px;""><img src=""images/choice_trial_10.png"" style=""width: 408px; height: 417px;""></div></div>","j","delaylearn","learning","trial","57732cfcda75d30001487571","8LNliSX9IlW9ovpF9WaWlzRTCIJ3","5","images/choice_trial_8.png","images/choice_trial_10.png","images/pattern_7.png","f","f","750","8","10","6","0","38","0","0","10","170","","","","",""
"html-keyboard-response","210","492266","0.0-87.0-1.0","","null","<div style=""display: flex; flex-direction: column; align-items: center; margin-top: -40px;""><img src=""images/pattern_7.png"" style=""width: 234px; height: 230px; margin-top: -50px;""><div style=""display: flex; justify-content: space-between; margin-top: 33px;""><img src=""images/choice_trial_10.png"" style=""width: 408px; height: 417px; margin-left:608px;""></div></div>","null","delaylearn","learning","display_response","57732cfcda75d30001487571","8LNliSX9IlW9ovpF9WaWlzRTCIJ3","","","","","","","","","","","","","","","","","chosen stimuli: images/choice_trial_10.png","","","",""
"html-keyboard-response","211","493024","0.0-87.0-2.0","","null","","null","delaylearn","learning","feedback_duration_window","57732cfcda75d30001487571","8LNliSX9IlW9ovpF9WaWlzRTCIJ3","","","","","","","","","","","","","","","","","","750","","",""
"html-keyboard-response","212","494532","0.0-87.0-3.0","","null","<div style='margin:auto;width: auto; font-size: 150%'><span style='font-weight: bold; font-size: 100px; color: red;'>0 points!</span><br><br></div>","null","delaylearn","learning","feedback_image_window","57732cfcda75d30001487571","8LNliSX9IlW9ovpF9WaWlzRTCIJ3","","","","","","","","","","","","","","","","","","","","",""
"html-keyboard-response","213","496526","0.0-88.0","","null","<div style=""font-size:100px;"">+</div>","null","delaylearn","learning","ITI","57732cfcda75d30001487571","8LNliSX9IlW9ovpF9WaWlzRTCIJ3","","","","","","","","","","","","","","","","","","","1993","",""
"html-keyboard-response","214","497864","0.0-89.0-0.0","","1334.6999999999534","<div style=""display: flex; flex-direction: column; align-items: center; margin-top: -40px;""><img src=""images/pattern_1.png"" style=""width: 234px; height: 230px; margin-top: -50px;""><div style=""display: flex; justify-content: space-between; margin-top: 33px;""><img src=""images/choice_trial_6.png"" style=""width: 408px; height: 417px; margin-right: 200px;""><img src=""images/choice_trial_15.png"" style=""width: 408px; height: 417px;""></div></div>","f","delaylearn","learning","trial","57732cfcda75d30001487571","8LNliSX9IlW9ovpF9WaWlzRTCIJ3","5","images/choice_trial_6.png","images/choice_trial_15.png","images/pattern_1.png","f","f","7000","6","15","1","0","39","1","1","6","180","","","","",""
"html-keyboard-response","215","498875","0.0-89.0-1.0","","null","<div style=""display: flex; flex-direction: column; align-items: center; margin-top: -40px;""><img src=""images/pattern_1.png"" style=""width: 234px; height: 230px; margin-top: -50px;""><div style=""display: flex; justify-content: space-between; margin-top: 33px;""><img src=""images/choice_trial_6.png"" style=""width: 408px; height: 417px; margin-right: 608px;""></div></div>","null","delaylearn","learning","display_response","57732cfcda75d30001487571","8LNliSX9IlW9ovpF9WaWlzRTCIJ3","","","","","","","","","","","","","","","","","chosen stimuli: images/choice_trial_6.png","","","",""
"html-keyboard-response","216","505891","0.0-89.0-2.0","","null","","null","delaylearn","learning","feedback_duration_window","57732cfcda75d30001487571","8LNliSX9IlW9ovpF9WaWlzRTCIJ3","","","","","","","","","","","","","","","","","","7000","","",""
"html-keyboard-response","217","507400","0.0-89.0-3.0","","null","<div style='margin:auto;width: auto; font-size: 150%'><span style='font-weight: bold; font-size: 100px; color: green;'>+10 points!</span><br><br></div>","null","delaylearn","learning","feedback_image_window","57732cfcda75d30001487571","8LNliSX9IlW9ovpF9WaWlzRTCIJ3","","","","","","","","","","","","","","","","","","","","",""
"html-keyboard-response","218","507910","0.0-90.0-0.0","","null","","null","","","mood_trial_fixation","","","","","","","","","","","","","","","","","","","","","","",""
"lmdlab-html-vas-response","219","511646","0.0-90.0-1.0","","2727","How happy are you right now?","0.49076963354040076","delaylearn","learning","mood_trial","57732cfcda75d30001487571","8LNliSX9IlW9ovpF9WaWlzRTCIJ3","","","","","","","","","","","","","","","","","","","","[""Very unhappy"",""Very happy""]",""
"html-keyboard-response","220","513368","0.0-91.0","","null","<div style=""font-size:100px;"">+</div>","null","delaylearn","learning","ITI","57732cfcda75d30001487571","8LNliSX9IlW9ovpF9WaWlzRTCIJ3","","","","","","","","","","","","","","","","","","","1716","",""
