"trial_type","trial_index","time_elapsed","internal_node_id","participant","rt","stimulus","response","exp_name","exp_stage","test_part","subjectID","databaseID","counterbal","choice_stimuli_1","choice_stimuli_2","pattern_stimuli","rewarded_answer","correct_answer","feedback_duration_times","stim_left","stim_right","pair","leftright_counter","trial","response_correct","response_rewarded","chosen_stim","counter","displayed_choice","feedback_durations","ITI_duration","labels","rest_warning"
"pavlovia","0","610","0.0-0.0","","","","","","","","","","","","","","","","","","","","","","","","","","","","","",""
"html-keyboard-response","1","3620","0.0-1.0","","null","<div style=""font-size:100px;"">+</div>","null","delaylearn","learning","pre_fixation","64333e37b0fca53775bad01a","","","","","","","","","","","","","","","","","","","","","",""
"html-keyboard-response","2","4390","0.0-2.0-0.0","","769","<div style=""display: flex; flex-direction: column; align-items: center; margin-top: -40px;""><img src=""images/demo_images/pattern_1.png"" style=""width: 234px; height: 230px; margin-top: -50px;""><div style=""display: flex; justify-content: space-between; margin-top: 33px;""><img src=""images/demo_images/choice_trial_2.png"" style=""width: 408px; height: 417px; margin-right: 200px;""><img src=""images/demo_images/choice_trial_1.png"" style=""width: 408px; height: 417px;""></div></div>","f","delaylearn","learning","trial","64333e37b0fca53775bad01a","pjcAE2Em1WZ2ZrygS9ZqsCd8VRA3","3","images/demo_images/choice_trial_2.png","images/demo_images/choice_trial_1.png","images/demo_images/pattern_1.png","j","j","3000","2","1","20","1","1","0","0","2","0","","","","",""
"html-keyboard-response","3","5404","0.0-2.0-1.0","","null","<div style=""display: flex; flex-direction: column; align-items: center; margin-top: -40px;""><img src=""images/demo_images/pattern_1.png"" style=""width: 234px; height: 230px; margin-top: -50px;""><div style=""display: flex; justify-content: space-between; margin-top: 33px;""><img src=""images/demo_images/choice_trial_2.png"" style=""width: 408px; height: 417px; margin-right: 608px;""></div></div>","null","delaylearn","learning","display_response","64333e37b0fca53775bad01a","pjcAE2Em1WZ2ZrygS9ZqsCd8VRA3","","","","","","","","","","","","","","","","","chosen stimuli: images/demo_images/choice_trial_2.png","","","",""
"html-keyboard-response","4","8419","0.0-2.0-2.0","","null","","null","delaylearn","learning","feedback_duration_window","64333e37b0fca53775bad01a","pjcAE2Em1WZ2ZrygS9ZqsCd8VRA3","","","","","","","","","","","","","","","","","","3000","","",""
"html-keyboard-response","5","9928","0.0-2.0-3.0","","null","<div style='margin:auto;width: auto; font-size: 150%'><span style='font-weight: bold; font-size: 100px; color: red;'>0 points!</span><br><br></div>","null","delaylearn","learning","feedback_image_window","64333e37b0fca53775bad01a","pjcAE2Em1WZ2ZrygS9ZqsCd8VRA3","","","","","","","","","","","","","","","","","","","","",""
"html-keyboard-response","6","11542","0.0-3.0","","null","<div style=""font-size:100px;"">+</div>","null","delaylearn","learning","ITI","64333e37b0fca53775bad01a","pjcAE2Em1WZ2ZrygS9ZqsCd8VRA3","","","","","","","","","","","","","","","","","","","1603","",""
"html-keyboard-response","7","12290","0.0-4.0-0.0","","746.7999999970198","<div style=""display: flex; flex-direction: column; align-items: center; margin-top: -40px;""><img src=""images/demo_images/pattern_1.png"" style=""width: 234px; height: 230px; margin-top: -50px;""><div style=""display: flex; justify-content: space-between; margin-top: 33px;""><img src=""images/demo_images/choice_trial_2.png"" style=""width: 408px; height: 417px; margin-right: 200px;""><img src=""images/demo_images/choice_trial_1.png"" style=""width: 408px; height: 417px;""></div></div>","j","delaylearn","learning","trial","64333e37b0fca53775bad01a","pjcAE2Em1WZ2ZrygS9ZqsCd8VRA3","3","images/demo_images/choice_trial_2.png","images/demo_images/choice_trial_1.png","images/demo_images/pattern_1.png","j","j","3000","2","1","20","1","2","1","1","1","10","","","","",""
"html-keyboard-response","8","13309","0.0-4.0-1.0","","null","<div style=""display: flex; flex-direction: column; align-items: center; margin-top: -40px;""><img src=""images/demo_images/pattern_1.png"" style=""width: 234px; height: 230px; margin-top: -50px;""><div style=""display: flex; justify-content: space-between; margin-top: 33px;""><img src=""images/demo_images/choice_trial_1.png"" style=""width: 408px; height: 417px; margin-left:608px;""></div></div>","null","delaylearn","learning","display_response","64333e37b0fca53775bad01a","pjcAE2Em1WZ2ZrygS9ZqsCd8VRA3","","","","","","","","","","","","","","","","","chosen stimuli: images/demo_images/choice_trial_1.png","","","",""
"html-keyboard-response","9","16319","0.0-4.0-2.0","","null","","null","delaylearn","learning","feedback_duration_window","64333e37b0fca53775bad01a","pjcAE2Em1WZ2ZrygS9ZqsCd8VRA3","","","","","","","","","","","","","","","","","","3000","","",""
"html-keyboard-response","10","17835","0.0-4.0-3.0","","null","<div style='margin:auto;width: auto; font-size: 150%'><span style='font-weight: bold; font-size: 100px; color: green;'>+10 points!</span><br><br></div>","null","delaylearn","learning","feedback_image_window","64333e37b0fca53775bad01a","pjcAE2Em1WZ2ZrygS9ZqsCd8VRA3","","","","","","","","","","","","","","","","","","","","",""
"html-keyboard-response","11","20159","0.0-5.0","","null","<div style=""font-size:100px;"">+</div>","null","delaylearn","learning","ITI","64333e37b0fca53775bad01a","pjcAE2Em1WZ2ZrygS9ZqsCd8VRA3","","","","","","","","","","","","","","","","","","","2312","",""
"html-keyboard-response","12","21245","0.0-6.0-0.0","","1085","<div style=""display: flex; flex-direction: column; align-items: center; margin-top: -40px;""><img src=""images/demo_images/pattern_1.png"" style=""width: 234px; height: 230px; margin-top: -50px;""><div style=""display: flex; justify-content: space-between; margin-top: 33px;""><img src=""images/demo_images/choice_trial_1.png"" style=""width: 408px; height: 417px; margin-right: 200px;""><img src=""images/demo_images/choice_trial_2.png"" style=""width: 408px; height: 417px;""></div></div>","f","delaylearn","learning","trial","64333e37b0fca53775bad01a","pjcAE2Em1WZ2ZrygS9ZqsCd8VRA3","3","images/demo_images/choice_trial_1.png","images/demo_images/choice_trial_2.png","images/demo_images/pattern_1.png","j","f","3000","1","2","20","0","3","1","0","1","10","","","","",""
"html-keyboard-response","13","22259","0.0-6.0-1.0","","null","<div style=""display: flex; flex-direction: column; align-items: center; margin-top: -40px;""><img src=""images/demo_images/pattern_1.png"" style=""width: 234px; height: 230px; margin-top: -50px;""><div style=""display: flex; justify-content: space-between; margin-top: 33px;""><img src=""images/demo_images/choice_trial_1.png"" style=""width: 408px; height: 417px; margin-right: 608px;""></div></div>","null","delaylearn","learning","display_response","64333e37b0fca53775bad01a","pjcAE2Em1WZ2ZrygS9ZqsCd8VRA3","","","","","","","","","","","","","","","","","chosen stimuli: images/demo_images/choice_trial_1.png","","","",""
"html-keyboard-response","14","25275","0.0-6.0-2.0","","null","","null","delaylearn","learning","feedback_duration_window","64333e37b0fca53775bad01a","pjcAE2Em1WZ2ZrygS9ZqsCd8VRA3","","","","","","","","","","","","","","","","","","3000","","",""
"html-keyboard-response","15","26780","0.0-6.0-3.0","","null","<div style='margin:auto;width: auto; font-size: 150%'><span style='font-weight: bold; font-size: 100px; color: red;'>0 points!</span><br><br></div>","null","delaylearn","learning","feedback_image_window","64333e37b0fca53775bad01a","pjcAE2Em1WZ2ZrygS9ZqsCd8VRA3","","","","","","","","","","","","","","","","","","","","",""
"html-keyboard-response","16","28810","0.0-7.0","","null","<div style=""font-size:100px;"">+</div>","null","delaylearn","learning","ITI","64333e37b0fca53775bad01a","pjcAE2Em1WZ2ZrygS9ZqsCd8VRA3","","","","","","","","","","","","","","","","","","","2016","",""
"html-keyboard-response","17","29766","0.0-8.0-0.0","","954.5999999940395","<div style=""display: flex; flex-direction: column; align-items: center; margin-top: -40px;""><img src=""images/demo_images/pattern_1.png"" style=""width: 234px; height: 230px; margin-top: -50px;""><div style=""display: flex; justify-content: space-between; margin-top: 33px;""><img src=""images/demo_images/choice_trial_1.png"" style=""width: 408px; height: 417px; margin-right: 200px;""><img src=""images/demo_images/choice_trial_2.png"" style=""width: 408px; height: 417px;""></div></div>","f","delaylearn","learning","trial","64333e37b0fca53775bad01a","pjcAE2Em1WZ2ZrygS9ZqsCd8VRA3","3","images/demo_images/choice_trial_1.png","images/demo_images/choice_trial_2.png","images/demo_images/pattern_1.png","f","f","3000","1","2","20","0","4","1","1","1","20","","","","",""
"html-keyboard-response","18","30774","0.0-8.0-1.0","","null","<div style=""display: flex; flex-direction: column; align-items: center; margin-top: -40px;""><img src=""images/demo_images/pattern_1.png"" style=""width: 234px; height: 230px; margin-top: -50px;""><div style=""display: flex; justify-content: space-between; margin-top: 33px;""><img src=""images/demo_images/choice_trial_1.png"" style=""width: 408px; height: 417px; margin-right: 608px;""></div></div>","null","delaylearn","learning","display_response","64333e37b0fca53775bad01a","pjcAE2Em1WZ2ZrygS9ZqsCd8VRA3","","","","","","","","","","","","","","","","","chosen stimuli: images/demo_images/choice_trial_1.png","","","",""
"html-keyboard-response","19","33790","0.0-8.0-2.0","","null","","null","delaylearn","learning","feedback_duration_window","64333e37b0fca53775bad01a","pjcAE2Em1WZ2ZrygS9ZqsCd8VRA3","","","","","","","","","","","","","","","","","","3000","","",""
"html-keyboard-response","20","35296","0.0-8.0-3.0","","null","<div style='margin:auto;width: auto; font-size: 150%'><span style='font-weight: bold; font-size: 100px; color: green;'>+10 points!</span><br><br></div>","null","delaylearn","learning","feedback_image_window","64333e37b0fca53775bad01a","pjcAE2Em1WZ2ZrygS9ZqsCd8VRA3","","","","","","","","","","","","","","","","","","","","",""
"html-keyboard-response","21","35804","0.0-9.0-0.0","","null","","null","","","mood_trial_fixation","","","","","","","","","","","","","","","","","","","","","","",""
"lmdlab-html-vas-response","22","44133","0.0-9.0-1.0","","7308","How happy are you right now?","0.7206967888476881","delaylearn","learning","mood_trial","64333e37b0fca53775bad01a","pjcAE2Em1WZ2ZrygS9ZqsCd8VRA3","","","","","","","","","","","","","","","","","","","","[""Very unhappy"",""Very happy""]",""
"html-keyboard-response","23","45989","0.0-10.0","","null","<div style=""font-size:100px;"">+</div>","null","delaylearn","learning","ITI","64333e37b0fca53775bad01a","pjcAE2Em1WZ2ZrygS9ZqsCd8VRA3","","","","","","","","","","","","","","","","","","","1846","",""
"html-keyboard-response","24","46852","0.0-11.0-0.0","","862.1000000089407","<div style=""display: flex; flex-direction: column; align-items: center; margin-top: -40px;""><img src=""images/demo_images/pattern_1.png"" style=""width: 234px; height: 230px; margin-top: -50px;""><div style=""display: flex; justify-content: space-between; margin-top: 33px;""><img src=""images/demo_images/choice_trial_2.png"" style=""width: 408px; height: 417px; margin-right: 200px;""><img src=""images/demo_images/choice_trial_1.png"" style=""width: 408px; height: 417px;""></div></div>","j","delaylearn","learning","trial","64333e37b0fca53775bad01a","pjcAE2Em1WZ2ZrygS9ZqsCd8VRA3","3","images/demo_images/choice_trial_2.png","images/demo_images/choice_trial_1.png","images/demo_images/pattern_1.png","j","j","3000","2","1","20","1","5","1","1","1","30","","","","",""
"html-keyboard-response","25","47866","0.0-11.0-1.0","","null","<div style=""display: flex; flex-direction: column; align-items: center; margin-top: -40px;""><img src=""images/demo_images/pattern_1.png"" style=""width: 234px; height: 230px; margin-top: -50px;""><div style=""display: flex; justify-content: space-between; margin-top: 33px;""><img src=""images/demo_images/choice_trial_1.png"" style=""width: 408px; height: 417px; margin-left:608px;""></div></div>","null","delaylearn","learning","display_response","64333e37b0fca53775bad01a","pjcAE2Em1WZ2ZrygS9ZqsCd8VRA3","","","","","","","","","","","","","","","","","chosen stimuli: images/demo_images/choice_trial_1.png","","","",""
"html-keyboard-response","26","50874","0.0-11.0-2.0","","null","","null","delaylearn","learning","feedback_duration_window","64333e37b0fca53775bad01a","pjcAE2Em1WZ2ZrygS9ZqsCd8VRA3","","","","","","","","","","","","","","","","","","3000","","",""
"html-keyboard-response","27","52389","0.0-11.0-3.0","","null","<div style='margin:auto;width: auto; font-size: 150%'><span style='font-weight: bold; font-size: 100px; color: green;'>+10 points!</span><br><br></div>","null","delaylearn","learning","feedback_image_window","64333e37b0fca53775bad01a","pjcAE2Em1WZ2ZrygS9ZqsCd8VRA3","","","","","","","","","","","","","","","","","","","","",""
"html-keyboard-response","28","54089","0.0-12.0","","null","<div style=""font-size:100px;"">+</div>","null","delaylearn","learning","ITI","64333e37b0fca53775bad01a","pjcAE2Em1WZ2ZrygS9ZqsCd8VRA3","","","","","","","","","","","","","","","","","","","1687","",""
"html-keyboard-response","29","54998","0.0-13.0-0.0","","907.2000000029802","<div style=""display: flex; flex-direction: column; align-items: center; margin-top: -40px;""><img src=""images/demo_images/pattern_1.png"" style=""width: 234px; height: 230px; margin-top: -50px;""><div style=""display: flex; justify-content: space-between; margin-top: 33px;""><img src=""images/demo_images/choice_trial_1.png"" style=""width: 408px; height: 417px; margin-right: 200px;""><img src=""images/demo_images/choice_trial_2.png"" style=""width: 408px; height: 417px;""></div></div>","f","delaylearn","learning","trial","64333e37b0fca53775bad01a","pjcAE2Em1WZ2ZrygS9ZqsCd8VRA3","3","images/demo_images/choice_trial_1.png","images/demo_images/choice_trial_2.png","images/demo_images/pattern_1.png","f","f","3000","1","2","20","0","6","1","1","1","40","","","","",""
"html-keyboard-response","30","56004","0.0-13.0-1.0","","null","<div style=""display: flex; flex-direction: column; align-items: center; margin-top: -40px;""><img src=""images/demo_images/pattern_1.png"" style=""width: 234px; height: 230px; margin-top: -50px;""><div style=""display: flex; justify-content: space-between; margin-top: 33px;""><img src=""images/demo_images/choice_trial_1.png"" style=""width: 408px; height: 417px; margin-right: 608px;""></div></div>","null","delaylearn","learning","display_response","64333e37b0fca53775bad01a","pjcAE2Em1WZ2ZrygS9ZqsCd8VRA3","","","","","","","","","","","","","","","","","chosen stimuli: images/demo_images/choice_trial_1.png","","","",""
"html-keyboard-response","31","59019","0.0-13.0-2.0","","null","","null","delaylearn","learning","feedback_duration_window","64333e37b0fca53775bad01a","pjcAE2Em1WZ2ZrygS9ZqsCd8VRA3","","","","","","","","","","","","","","","","","","3000","","",""
"html-keyboard-response","32","60533","0.0-13.0-3.0","","null","<div style='margin:auto;width: auto; font-size: 150%'><span style='font-weight: bold; font-size: 100px; color: green;'>+10 points!</span><br><br></div>","null","delaylearn","learning","feedback_image_window","64333e37b0fca53775bad01a","pjcAE2Em1WZ2ZrygS9ZqsCd8VRA3","","","","","","","","","","","","","","","","","","","","",""
"html-keyboard-response","33","62259","0.0-14.0","","null","<div style=""font-size:100px;"">+</div>","null","delaylearn","learning","ITI","64333e37b0fca53775bad01a","pjcAE2Em1WZ2ZrygS9ZqsCd8VRA3","","","","","","","","","","","","","","","","","","","1719","",""
"html-keyboard-response","34","63001","0.0-15.0-0.0","","740.5","<div style=""display: flex; flex-direction: column; align-items: center; margin-top: -40px;""><img src=""images/demo_images/pattern_1.png"" style=""width: 234px; height: 230px; margin-top: -50px;""><div style=""display: flex; justify-content: space-between; margin-top: 33px;""><img src=""images/demo_images/choice_trial_2.png"" style=""width: 408px; height: 417px; margin-right: 200px;""><img src=""images/demo_images/choice_trial_1.png"" style=""width: 408px; height: 417px;""></div></div>","j","delaylearn","learning","trial","64333e37b0fca53775bad01a","pjcAE2Em1WZ2ZrygS9ZqsCd8VRA3","3","images/demo_images/choice_trial_2.png","images/demo_images/choice_trial_1.png","images/demo_images/pattern_1.png","j","j","3000","2","1","20","1","7","1","1","1","50","","","","",""
"html-keyboard-response","35","64004","0.0-15.0-1.0","","null","<div style=""display: flex; flex-direction: column; align-items: center; margin-top: -40px;""><img src=""images/demo_images/pattern_1.png"" style=""width: 234px; height: 230px; margin-top: -50px;""><div style=""display: flex; justify-content: space-between; margin-top: 33px;""><img src=""images/demo_images/choice_trial_1.png"" style=""width: 408px; height: 417px; margin-left:608px;""></div></div>","null","delaylearn","learning","display_response","64333e37b0fca53775bad01a","pjcAE2Em1WZ2ZrygS9ZqsCd8VRA3","","","","","","","","","","","","","","","","","chosen stimuli: images/demo_images/choice_trial_1.png","","","",""
"html-keyboard-response","36","67019","0.0-15.0-2.0","","null","","null","delaylearn","learning","feedback_duration_window","64333e37b0fca53775bad01a","pjcAE2Em1WZ2ZrygS9ZqsCd8VRA3","","","","","","","","","","","","","","","","","","3000","","",""
"html-keyboard-response","37","68526","0.0-15.0-3.0","","null","<div style='margin:auto;width: auto; font-size: 150%'><span style='font-weight: bold; font-size: 100px; color: green;'>+10 points!</span><br><br></div>","null","delaylearn","learning","feedback_image_window","64333e37b0fca53775bad01a","pjcAE2Em1WZ2ZrygS9ZqsCd8VRA3","","","","","","","","","","","","","","","","","","","","",""
"html-keyboard-response","38","70718","0.0-16.0","","null","<div style=""font-size:100px;"">+</div>","null","delaylearn","learning","ITI","64333e37b0fca53775bad01a","pjcAE2Em1WZ2ZrygS9ZqsCd8VRA3","","","","","","","","","","","","","","","","","","","2179","",""
"html-keyboard-response","39","71311","0.0-17.0-0.0","","591.7000000029802","<div style=""display: flex; flex-direction: column; align-items: center; margin-top: -40px;""><img src=""images/demo_images/pattern_1.png"" style=""width: 234px; height: 230px; margin-top: -50px;""><div style=""display: flex; justify-content: space-between; margin-top: 33px;""><img src=""images/demo_images/choice_trial_1.png"" style=""width: 408px; height: 417px; margin-right: 200px;""><img src=""images/demo_images/choice_trial_2.png"" style=""width: 408px; height: 417px;""></div></div>","f","delaylearn","learning","trial","64333e37b0fca53775bad01a","pjcAE2Em1WZ2ZrygS9ZqsCd8VRA3","3","images/demo_images/choice_trial_1.png","images/demo_images/choice_trial_2.png","images/demo_images/pattern_1.png","f","f","3000","1","2","20","0","8","1","1","1","60","","","","",""
"html-keyboard-response","40","72314","0.0-17.0-1.0","","null","<div style=""display: flex; flex-direction: column; align-items: center; margin-top: -40px;""><img src=""images/demo_images/pattern_1.png"" style=""width: 234px; height: 230px; margin-top: -50px;""><div style=""display: flex; justify-content: space-between; margin-top: 33px;""><img src=""images/demo_images/choice_trial_1.png"" style=""width: 408px; height: 417px; margin-right: 608px;""></div></div>","null","delaylearn","learning","display_response","64333e37b0fca53775bad01a","pjcAE2Em1WZ2ZrygS9ZqsCd8VRA3","","","","","","","","","","","","","","","","","chosen stimuli: images/demo_images/choice_trial_1.png","","","",""
"html-keyboard-response","41","75321","0.0-17.0-2.0","","null","","null","delaylearn","learning","feedback_duration_window","64333e37b0fca53775bad01a","pjcAE2Em1WZ2ZrygS9ZqsCd8VRA3","","","","","","","","","","","","","","","","","","3000","","",""
"html-keyboard-response","42","76835","0.0-17.0-3.0","","null","<div style='margin:auto;width: auto; font-size: 150%'><span style='font-weight: bold; font-size: 100px; color: green;'>+10 points!</span><br><br></div>","null","delaylearn","learning","feedback_image_window","64333e37b0fca53775bad01a","pjcAE2Em1WZ2ZrygS9ZqsCd8VRA3","","","","","","","","","","","","","","","","","","","","",""
"html-button-response","43","95055","0.0-18.0","","18219.79999999702","
  <div style=""display: flex; align-items: center; justify-content: center; height: 80vh;"">
  <div>
          <img src=""images/inst_demo_finish.png"" style=""width: 80vw; height:auto;"">
          <br><br>
      </div>
      <br><br>
  </div>","0","","","","","","","","","","","","","","","","","","","","","","","","","",""
"html-keyboard-response","44","99422","0.0-19.0","","4366.29999999702","
  <div style=""display: flex; align-items: center; justify-content: center; height: 80vh;"">
  <div>
          <img src=""images/inst_6.png"" style=""width: 80vw; height:auto;"">
          <br><br>
      </div>
      <br><br>
  </div>","f","","","","","","","","","","","","","","","","","","","","","","","","","",""
"html-keyboard-response","45","102434","0.0-20.0","","null","<div style=""font-size:100px;"">+</div>","null","delaylearn","learning","pre_fixation","64333e37b0fca53775bad01a","","","","","","","","","","","","","","","","","","","","","",""
"html-keyboard-response","46","104296","0.0-21.0","","null","<div style=""font-size:100px;"">+</div>","null","delaylearn","learning","ITI","64333e37b0fca53775bad01a","pjcAE2Em1WZ2ZrygS9ZqsCd8VRA3","","","","","","","","","","","","","","","","","","","1846","",""
"html-keyboard-response","47","105495","0.0-22.0-0.0","","1198.2999999970198","<div style=""display: flex; flex-direction: column; align-items: center; margin-top: -40px;""><img src=""images/pattern_3.png"" style=""width: 234px; height: 230px; margin-top: -50px;""><div style=""display: flex; justify-content: space-between; margin-top: 33px;""><img src=""images/choice_trial_13.png"" style=""width: 408px; height: 417px; margin-right: 200px;""><img src=""images/choice_trial_10.png"" style=""width: 408px; height: 417px;""></div></div>","f","delaylearn","learning","trial","64333e37b0fca53775bad01a","pjcAE2Em1WZ2ZrygS9ZqsCd8VRA3","3","images/choice_trial_13.png","images/choice_trial_10.png","images/pattern_3.png","f","f","7000","13","10","2","0","9","1","1","13","70","","","","",""
"html-keyboard-response","48","106505","0.0-22.0-1.0","","null","<div style=""display: flex; flex-direction: column; align-items: center; margin-top: -40px;""><img src=""images/pattern_3.png"" style=""width: 234px; height: 230px; margin-top: -50px;""><div style=""display: flex; justify-content: space-between; margin-top: 33px;""><img src=""images/choice_trial_13.png"" style=""width: 408px; height: 417px; margin-right: 608px;""></div></div>","null","delaylearn","learning","display_response","64333e37b0fca53775bad01a","pjcAE2Em1WZ2ZrygS9ZqsCd8VRA3","","","","","","","","","","","","","","","","","chosen stimuli: images/choice_trial_13.png","","","",""
"html-keyboard-response","49","113515","0.0-22.0-2.0","","null","","null","delaylearn","learning","feedback_duration_window","64333e37b0fca53775bad01a","pjcAE2Em1WZ2ZrygS9ZqsCd8VRA3","","","","","","","","","","","","","","","","","","7000","","",""
"html-keyboard-response","50","115020","0.0-22.0-3.0","","null","<div style='margin:auto;width: auto; font-size: 150%'><span style='font-weight: bold; font-size: 100px; color: green;'>+10 points!</span><br><br></div>","null","delaylearn","learning","feedback_image_window","64333e37b0fca53775bad01a","pjcAE2Em1WZ2ZrygS9ZqsCd8VRA3","","","","","","","","","","","","","","","","","","","","",""
"html-keyboard-response","51","116797","0.0-23.0","","null","<div style=""font-size:100px;"">+</div>","null","delaylearn","learning","ITI","64333e37b0fca53775bad01a","pjcAE2Em1WZ2ZrygS9ZqsCd8VRA3","","","","","","","","","","","","","","","","","","","1765","",""
"html-keyboard-response","52","118129","0.0-24.0-0.0","","1330.5","<div style=""display: flex; flex-direction: column; align-items: center; margin-top: -40px;""><img src=""images/pattern_7.png"" style=""width: 234px; height: 230px; margin-top: -50px;""><div style=""display: flex; justify-content: space-between; margin-top: 33px;""><img src=""images/choice_trial_12.png"" style=""width: 408px; height: 417px; margin-right: 200px;""><img src=""images/choice_trial_6.png"" style=""width: 408px; height: 417px;""></div></div>","j","delaylearn","learning","trial","64333e37b0fca53775bad01a","pjcAE2Em1WZ2ZrygS9ZqsCd8VRA3","3","images/choice_trial_12.png","images/choice_trial_6.png","images/pattern_7.png","j","j","750","12","6","6","1","10","1","1","6","80","","","","",""
"html-keyboard-response","53","119142","0.0-24.0-1.0","","null","<div style=""display: flex; flex-direction: column; align-items: center; margin-top: -40px;""><img src=""images/pattern_7.png"" style=""width: 234px; height: 230px; margin-top: -50px;""><div style=""display: flex; justify-content: space-between; margin-top: 33px;""><img src=""images/choice_trial_6.png"" style=""width: 408px; height: 417px; margin-left:608px;""></div></div>","null","delaylearn","learning","display_response","64333e37b0fca53775bad01a","pjcAE2Em1WZ2ZrygS9ZqsCd8VRA3","","","","","","","","","","","","","","","","","chosen stimuli: images/choice_trial_6.png","","","",""
"html-keyboard-response","54","119905","0.0-24.0-2.0","","null","","null","delaylearn","learning","feedback_duration_window","64333e37b0fca53775bad01a","pjcAE2Em1WZ2ZrygS9ZqsCd8VRA3","","","","","","","","","","","","","","","","","","750","","",""
"html-keyboard-response","55","121417","0.0-24.0-3.0","","null","<div style='margin:auto;width: auto; font-size: 150%'><span style='font-weight: bold; font-size: 100px; color: green;'>+10 points!</span><br><br></div>","null","delaylearn","learning","feedback_image_window","64333e37b0fca53775bad01a","pjcAE2Em1WZ2ZrygS9ZqsCd8VRA3","","","","","","","","","","","","","","","","","","","","",""
"html-keyboard-response","56","123916","0.0-25.0","","null","<div style=""font-size:100px;"">+</div>","null","delaylearn","learning","ITI","64333e37b0fca53775bad01a","pjcAE2Em1WZ2ZrygS9ZqsCd8VRA3","","","","","","","","","","","","","","","","","","","2496","",""
"html-keyboard-response","57","125116","0.0-26.0-0.0","","1199.3999999910593","<div style=""display: flex; flex-direction: column; align-items: center; margin-top: -40px;""><img src=""images/pattern_4.png"" style=""width: 234px; height: 230px; margin-top: -50px;""><div style=""display: flex; justify-content: space-between; margin-top: 33px;""><img src=""images/choice_trial_15.png"" style=""width: 408px; height: 417px; margin-right: 200px;""><img src=""images/choice_trial_9.png"" style=""width: 408px; height: 417px;""></div></div>","f","delaylearn","learning","trial","64333e37b0fca53775bad01a","pjcAE2Em1WZ2ZrygS9ZqsCd8VRA3","3","images/choice_trial_15.png","images/choice_trial_9.png","images/pattern_4.png","f","f","7000","15","9","3","0","11","1","1","15","90","","","","",""
"html-keyboard-response","58","126130","0.0-26.0-1.0","","null","<div style=""display: flex; flex-direction: column; align-items: center; margin-top: -40px;""><img src=""images/pattern_4.png"" style=""width: 234px; height: 230px; margin-top: -50px;""><div style=""display: flex; justify-content: space-between; margin-top: 33px;""><img src=""images/choice_trial_15.png"" style=""width: 408px; height: 417px; margin-right: 608px;""></div></div>","null","delaylearn","learning","display_response","64333e37b0fca53775bad01a","pjcAE2Em1WZ2ZrygS9ZqsCd8VRA3","","","","","","","","","","","","","","","","","chosen stimuli: images/choice_trial_15.png","","","",""
"html-keyboard-response","59","133141","0.0-26.0-2.0","","null","","null","delaylearn","learning","feedback_duration_window","64333e37b0fca53775bad01a","pjcAE2Em1WZ2ZrygS9ZqsCd8VRA3","","","","","","","","","","","","","","","","","","7000","","",""
"html-keyboard-response","60","134659","0.0-26.0-3.0","","null","<div style='margin:auto;width: auto; font-size: 150%'><span style='font-weight: bold; font-size: 100px; color: green;'>+10 points!</span><br><br></div>","null","delaylearn","learning","feedback_image_window","64333e37b0fca53775bad01a","pjcAE2Em1WZ2ZrygS9ZqsCd8VRA3","","","","","","","","","","","","","","","","","","","","",""
"html-keyboard-response","61","136174","0.0-27.0","","null","<div style=""font-size:100px;"">+</div>","null","delaylearn","learning","ITI","64333e37b0fca53775bad01a","pjcAE2Em1WZ2ZrygS9ZqsCd8VRA3","","","","","","","","","","","","","","","","","","","1502","",""
"html-keyboard-response","62","137440","0.0-28.0-0.0","","1265.300000011921","<div style=""display: flex; flex-direction: column; align-items: center; margin-top: -40px;""><img src=""images/pattern_5.png"" style=""width: 234px; height: 230px; margin-top: -50px;""><div style=""display: flex; justify-content: space-between; margin-top: 33px;""><img src=""images/choice_trial_2.png"" style=""width: 408px; height: 417px; margin-right: 200px;""><img src=""images/choice_trial_11.png"" style=""width: 408px; height: 417px;""></div></div>","j","delaylearn","learning","trial","64333e37b0fca53775bad01a","pjcAE2Em1WZ2ZrygS9ZqsCd8VRA3","3","images/choice_trial_2.png","images/choice_trial_11.png","images/pattern_5.png","j","j","750","2","11","4","1","12","1","1","11","100","","","","",""
"html-keyboard-response","63","138450","0.0-28.0-1.0","","null","<div style=""display: flex; flex-direction: column; align-items: center; margin-top: -40px;""><img src=""images/pattern_5.png"" style=""width: 234px; height: 230px; margin-top: -50px;""><div style=""display: flex; justify-content: space-between; margin-top: 33px;""><img src=""images/choice_trial_11.png"" style=""width: 408px; height: 417px; margin-left:608px;""></div></div>","null","delaylearn","learning","display_response","64333e37b0fca53775bad01a","pjcAE2Em1WZ2ZrygS9ZqsCd8VRA3","","","","","","","","","","","","","","","","","chosen stimuli: images/choice_trial_11.png","","","",""
"html-keyboard-response","64","139205","0.0-28.0-2.0","","null","","null","delaylearn","learning","feedback_duration_window","64333e37b0fca53775bad01a","pjcAE2Em1WZ2ZrygS9ZqsCd8VRA3","","","","","","","","","","","","","","","","","","750","","",""
"html-keyboard-response","65","140722","0.0-28.0-3.0","","null","<div style='margin:auto;width: auto; font-size: 150%'><span style='font-weight: bold; font-size: 100px; color: green;'>+10 points!</span><br><br></div>","null","delaylearn","learning","feedback_image_window","64333e37b0fca53775bad01a","pjcAE2Em1WZ2ZrygS9ZqsCd8VRA3","","","","","","","","","","","","","","","","","","","","",""
"html-keyboard-response","66","142563","0.0-29.0","","null","<div style=""font-size:100px;"">+</div>","null","delaylearn","learning","ITI","64333e37b0fca53775bad01a","pjcAE2Em1WZ2ZrygS9ZqsCd8VRA3","","","","","","","","","","","","","","","","","","","1837","",""
"html-keyboard-response","67","143994","0.0-30.0-0.0","","1429.2000000029802","<div style=""display: flex; flex-direction: column; align-items: center; margin-top: -40px;""><img src=""images/pattern_6.png"" style=""width: 234px; height: 230px; margin-top: -50px;""><div style=""display: flex; justify-content: space-between; margin-top: 33px;""><img src=""images/choice_trial_16.png"" style=""width: 408px; height: 417px; margin-right: 200px;""><img src=""images/choice_trial_3.png"" style=""width: 408px; height: 417px;""></div></div>","j","delaylearn","learning","trial","64333e37b0fca53775bad01a","pjcAE2Em1WZ2ZrygS9ZqsCd8VRA3","3","images/choice_trial_16.png","images/choice_trial_3.png","images/pattern_6.png","j","f","750","16","3","5","0","13","0","1","3","110","","","","",""
"html-keyboard-response","68","145004","0.0-30.0-1.0","","null","<div style=""display: flex; flex-direction: column; align-items: center; margin-top: -40px;""><img src=""images/pattern_6.png"" style=""width: 234px; height: 230px; margin-top: -50px;""><div style=""display: flex; justify-content: space-between; margin-top: 33px;""><img src=""images/choice_trial_3.png"" style=""width: 408px; height: 417px; margin-left:608px;""></div></div>","null","delaylearn","learning","display_response","64333e37b0fca53775bad01a","pjcAE2Em1WZ2ZrygS9ZqsCd8VRA3","","","","","","","","","","","","","","","","","chosen stimuli: images/choice_trial_3.png","","","",""
"html-keyboard-response","69","145759","0.0-30.0-2.0","","null","","null","delaylearn","learning","feedback_duration_window","64333e37b0fca53775bad01a","pjcAE2Em1WZ2ZrygS9ZqsCd8VRA3","","","","","","","","","","","","","","","","","","750","","",""
"html-keyboard-response","70","147274","0.0-30.0-3.0","","null","<div style='margin:auto;width: auto; font-size: 150%'><span style='font-weight: bold; font-size: 100px; color: green;'>+10 points!</span><br><br></div>","null","delaylearn","learning","feedback_image_window","64333e37b0fca53775bad01a","pjcAE2Em1WZ2ZrygS9ZqsCd8VRA3","","","","","","","","","","","","","","","","","","","","",""
"html-keyboard-response","71","147790","0.0-31.0-0.0","","null","","null","","","mood_trial_fixation","","","","","","","","","","","","","","","","","","","","","","",""
"lmdlab-html-vas-response","72","152004","0.0-31.0-1.0","","3198","How happy are you right now?","0.8128273012279735","delaylearn","learning","mood_trial","64333e37b0fca53775bad01a","pjcAE2Em1WZ2ZrygS9ZqsCd8VRA3","","","","","","","","","","","","","","","","","","","","[""Very unhappy"",""Very happy""]",""
"html-keyboard-response","73","154241","0.0-32.0","","null","<div style=""font-size:100px;"">+</div>","null","delaylearn","learning","ITI","64333e37b0fca53775bad01a","pjcAE2Em1WZ2ZrygS9ZqsCd8VRA3","","","","","","","","","","","","","","","","","","","2221","",""
"html-keyboard-response","74","155411","0.0-33.0-0.0","","1167.7000000029802","<div style=""display: flex; flex-direction: column; align-items: center; margin-top: -40px;""><img src=""images/pattern_1.png"" style=""width: 234px; height: 230px; margin-top: -50px;""><div style=""display: flex; justify-content: space-between; margin-top: 33px;""><img src=""images/choice_trial_8.png"" style=""width: 408px; height: 417px; margin-right: 200px;""><img src=""images/choice_trial_14.png"" style=""width: 408px; height: 417px;""></div></div>","j","delaylearn","learning","trial","64333e37b0fca53775bad01a","pjcAE2Em1WZ2ZrygS9ZqsCd8VRA3","3","images/choice_trial_8.png","images/choice_trial_14.png","images/pattern_1.png","j","j","7000","8","14","1","1","14","1","1","14","120","","","","",""
"html-keyboard-response","75","156420","0.0-33.0-1.0","","null","<div style=""display: flex; flex-direction: column; align-items: center; margin-top: -40px;""><img src=""images/pattern_1.png"" style=""width: 234px; height: 230px; margin-top: -50px;""><div style=""display: flex; justify-content: space-between; margin-top: 33px;""><img src=""images/choice_trial_14.png"" style=""width: 408px; height: 417px; margin-left:608px;""></div></div>","null","delaylearn","learning","display_response","64333e37b0fca53775bad01a","pjcAE2Em1WZ2ZrygS9ZqsCd8VRA3","","","","","","","","","","","","","","","","","chosen stimuli: images/choice_trial_14.png","","","",""
"html-keyboard-response","76","163423","0.0-33.0-2.0","","null","","null","delaylearn","learning","feedback_duration_window","64333e37b0fca53775bad01a","pjcAE2Em1WZ2ZrygS9ZqsCd8VRA3","","","","","","","","","","","","","","","","","","7000","","",""
"html-keyboard-response","77","164935","0.0-33.0-3.0","","null","<div style='margin:auto;width: auto; font-size: 150%'><span style='font-weight: bold; font-size: 100px; color: green;'>+10 points!</span><br><br></div>","null","delaylearn","learning","feedback_image_window","64333e37b0fca53775bad01a","pjcAE2Em1WZ2ZrygS9ZqsCd8VRA3","","","","","","","","","","","","","","","","","","","","",""
"html-keyboard-response","78","167404","0.0-34.0","","null","<div style=""font-size:100px;"">+</div>","null","delaylearn","learning","ITI","64333e37b0fca53775bad01a","pjcAE2Em1WZ2ZrygS9ZqsCd8VRA3","","","","","","","","","","","","","","","","","","","2460","",""
"html-keyboard-response","79","168892","0.0-35.0-0.0","","1486.3999999910593","<div style=""display: flex; flex-direction: column; align-items: center; margin-top: -40px;""><img src=""images/pattern_3.png"" style=""width: 234px; height: 230px; margin-top: -50px;""><div style=""display: flex; justify-content: space-between; margin-top: 33px;""><img src=""images/choice_trial_10.png"" style=""width: 408px; height: 417px; margin-right: 200px;""><img src=""images/choice_trial_13.png"" style=""width: 408px; height: 417px;""></div></div>","j","delaylearn","learning","trial","64333e37b0fca53775bad01a","pjcAE2Em1WZ2ZrygS9ZqsCd8VRA3","3","images/choice_trial_10.png","images/choice_trial_13.png","images/pattern_3.png","f","j","7000","10","13","2","1","15","1","0","13","120","","","","",""
"html-keyboard-response","80","169904","0.0-35.0-1.0","","null","<div style=""display: flex; flex-direction: column; align-items: center; margin-top: -40px;""><img src=""images/pattern_3.png"" style=""width: 234px; height: 230px; margin-top: -50px;""><div style=""display: flex; justify-content: space-between; margin-top: 33px;""><img src=""images/choice_trial_13.png"" style=""width: 408px; height: 417px; margin-left:608px;""></div></div>","null","delaylearn","learning","display_response","64333e37b0fca53775bad01a","pjcAE2Em1WZ2ZrygS9ZqsCd8VRA3","","","","","","","","","","","","","","","","","chosen stimuli: images/choice_trial_13.png","","","",""
"html-keyboard-response","81","176920","0.0-35.0-2.0","","null","","null","delaylearn","learning","feedback_duration_window","64333e37b0fca53775bad01a","pjcAE2Em1WZ2ZrygS9ZqsCd8VRA3","","","","","","","","","","","","","","","","","","7000","","",""
"html-keyboard-response","82","178436","0.0-35.0-3.0","","null","<div style='margin:auto;width: auto; font-size: 150%'><span style='font-weight: bold; font-size: 100px; color: red;'>0 points!</span><br><br></div>","null","delaylearn","learning","feedback_image_window","64333e37b0fca53775bad01a","pjcAE2Em1WZ2ZrygS9ZqsCd8VRA3","","","","","","","","","","","","","","","","","","","","",""
"html-keyboard-response","83","180075","0.0-36.0","","null","<div style=""font-size:100px;"">+</div>","null","delaylearn","learning","ITI","64333e37b0fca53775bad01a","pjcAE2Em1WZ2ZrygS9ZqsCd8VRA3","","","","","","","","","","","","","","","","","","","1624","",""
"html-keyboard-response","84","181913","0.0-37.0-0.0","","1837.300000011921","<div style=""display: flex; flex-direction: column; align-items: center; margin-top: -40px;""><img src=""images/pattern_5.png"" style=""width: 234px; height: 230px; margin-top: -50px;""><div style=""display: flex; justify-content: space-between; margin-top: 33px;""><img src=""images/choice_trial_11.png"" style=""width: 408px; height: 417px; margin-right: 200px;""><img src=""images/choice_trial_2.png"" style=""width: 408px; height: 417px;""></div></div>","j","delaylearn","learning","trial","64333e37b0fca53775bad01a","pjcAE2Em1WZ2ZrygS9ZqsCd8VRA3","3","images/choice_trial_11.png","images/choice_trial_2.png","images/pattern_5.png","f","f","750","11","2","4","0","16","0","0","2","120","","","","",""
"html-keyboard-response","85","182926","0.0-37.0-1.0","","null","<div style=""display: flex; flex-direction: column; align-items: center; margin-top: -40px;""><img src=""images/pattern_5.png"" style=""width: 234px; height: 230px; margin-top: -50px;""><div style=""display: flex; justify-content: space-between; margin-top: 33px;""><img src=""images/choice_trial_2.png"" style=""width: 408px; height: 417px; margin-left:608px;""></div></div>","null","delaylearn","learning","display_response","64333e37b0fca53775bad01a","pjcAE2Em1WZ2ZrygS9ZqsCd8VRA3","","","","","","","","","","","","","","","","","chosen stimuli: images/choice_trial_2.png","","","",""
"html-keyboard-response","86","183689","0.0-37.0-2.0","","null","","null","delaylearn","learning","feedback_duration_window","64333e37b0fca53775bad01a","pjcAE2Em1WZ2ZrygS9ZqsCd8VRA3","","","","","","","","","","","","","","","","","","750","","",""
"html-keyboard-response","87","185204","0.0-37.0-3.0","","null","<div style='margin:auto;width: auto; font-size: 150%'><span style='font-weight: bold; font-size: 100px; color: red;'>0 points!</span><br><br></div>","null","delaylearn","learning","feedback_image_window","64333e37b0fca53775bad01a","pjcAE2Em1WZ2ZrygS9ZqsCd8VRA3","","","","","","","","","","","","","","","","","","","","",""
"html-keyboard-response","88","185711","0.0-38.0-0.0","","null","","null","","","mood_trial_fixation","","","","","","","","","","","","","","","","","","","","","","",""
"lmdlab-html-vas-response","89","189131","0.0-38.0-1.0","","2415","How happy are you right now?","0.7253813911721094","delaylearn","learning","mood_trial","64333e37b0fca53775bad01a","pjcAE2Em1WZ2ZrygS9ZqsCd8VRA3","","","","","","","","","","","","","","","","","","","","[""Very unhappy"",""Very happy""]",""
"html-keyboard-response","90","191596","0.0-39.0","","null","<div style=""font-size:100px;"">+</div>","null","delaylearn","learning","ITI","64333e37b0fca53775bad01a","pjcAE2Em1WZ2ZrygS9ZqsCd8VRA3","","","","","","","","","","","","","","","","","","","2455","",""
"html-keyboard-response","91","192951","0.0-40.0-0.0","","1353.7999999970198","<div style=""display: flex; flex-direction: column; align-items: center; margin-top: -40px;""><img src=""images/pattern_6.png"" style=""width: 234px; height: 230px; margin-top: -50px;""><div style=""display: flex; justify-content: space-between; margin-top: 33px;""><img src=""images/choice_trial_16.png"" style=""width: 408px; height: 417px; margin-right: 200px;""><img src=""images/choice_trial_3.png"" style=""width: 408px; height: 417px;""></div></div>","j","delaylearn","learning","trial","64333e37b0fca53775bad01a","pjcAE2Em1WZ2ZrygS9ZqsCd8VRA3","3","images/choice_trial_16.png","images/choice_trial_3.png","images/pattern_6.png","f","f","750","16","3","5","0","17","0","0","3","120","","","","",""
"html-keyboard-response","92","193959","0.0-40.0-1.0","","null","<div style=""display: flex; flex-direction: column; align-items: center; margin-top: -40px;""><img src=""images/pattern_6.png"" style=""width: 234px; height: 230px; margin-top: -50px;""><div style=""display: flex; justify-content: space-between; margin-top: 33px;""><img src=""images/choice_trial_3.png"" style=""width: 408px; height: 417px; margin-left:608px;""></div></div>","null","delaylearn","learning","display_response","64333e37b0fca53775bad01a","pjcAE2Em1WZ2ZrygS9ZqsCd8VRA3","","","","","","","","","","","","","","","","","chosen stimuli: images/choice_trial_3.png","","","",""
"html-keyboard-response","93","194715","0.0-40.0-2.0","","null","","null","delaylearn","learning","feedback_duration_window","64333e37b0fca53775bad01a","pjcAE2Em1WZ2ZrygS9ZqsCd8VRA3","","","","","","","","","","","","","","","","","","750","","",""
"html-keyboard-response","94","196224","0.0-40.0-3.0","","null","<div style='margin:auto;width: auto; font-size: 150%'><span style='font-weight: bold; font-size: 100px; color: red;'>0 points!</span><br><br></div>","null","delaylearn","learning","feedback_image_window","64333e37b0fca53775bad01a","pjcAE2Em1WZ2ZrygS9ZqsCd8VRA3","","","","","","","","","","","","","","","","","","","","",""
"html-keyboard-response","95","198439","0.0-41.0","","null","<div style=""font-size:100px;"">+</div>","null","delaylearn","learning","ITI","64333e37b0fca53775bad01a","pjcAE2Em1WZ2ZrygS9ZqsCd8VRA3","","","","","","","","","","","","","","","","","","","2208","",""
"html-keyboard-response","96","199817","0.0-42.0-0.0","","1376.800000011921","<div style=""display: flex; flex-direction: column; align-items: center; margin-top: -40px;""><img src=""images/pattern_4.png"" style=""width: 234px; height: 230px; margin-top: -50px;""><div style=""display: flex; justify-content: space-between; margin-top: 33px;""><img src=""images/choice_trial_9.png"" style=""width: 408px; height: 417px; margin-right: 200px;""><img src=""images/choice_trial_15.png"" style=""width: 408px; height: 417px;""></div></div>","f","delaylearn","learning","trial","64333e37b0fca53775bad01a","pjcAE2Em1WZ2ZrygS9ZqsCd8VRA3","3","images/choice_trial_9.png","images/choice_trial_15.png","images/pattern_4.png","j","j","7000","9","15","3","1","18","0","0","9","120","","","","",""
"html-keyboard-response","97","200831","0.0-42.0-1.0","","null","<div style=""display: flex; flex-direction: column; align-items: center; margin-top: -40px;""><img src=""images/pattern_4.png"" style=""width: 234px; height: 230px; margin-top: -50px;""><div style=""display: flex; justify-content: space-between; margin-top: 33px;""><img src=""images/choice_trial_9.png"" style=""width: 408px; height: 417px; margin-right: 608px;""></div></div>","null","delaylearn","learning","display_response","64333e37b0fca53775bad01a","pjcAE2Em1WZ2ZrygS9ZqsCd8VRA3","","","","","","","","","","","","","","","","","chosen stimuli: images/choice_trial_9.png","","","",""
"html-keyboard-response","98","207839","0.0-42.0-2.0","","null","","null","delaylearn","learning","feedback_duration_window","64333e37b0fca53775bad01a","pjcAE2Em1WZ2ZrygS9ZqsCd8VRA3","","","","","","","","","","","","","","","","","","7000","","",""
"html-keyboard-response","99","209350","0.0-42.0-3.0","","null","<div style='margin:auto;width: auto; font-size: 150%'><span style='font-weight: bold; font-size: 100px; color: red;'>0 points!</span><br><br></div>","null","delaylearn","learning","feedback_image_window","64333e37b0fca53775bad01a","pjcAE2Em1WZ2ZrygS9ZqsCd8VRA3","","","","","","","","","","","","","","","","","","","","",""
"html-keyboard-response","100","210874","0.0-43.0","","null","<div style=""font-size:100px;"">+</div>","null","delaylearn","learning","ITI","64333e37b0fca53775bad01a","pjcAE2Em1WZ2ZrygS9ZqsCd8VRA3","","","","","","","","","","","","","","","","","","","1515","",""
"html-keyboard-response","101","212374","0.0-44.0-0.0","","1498","<div style=""display: flex; flex-direction: column; align-items: center; margin-top: -40px;""><img src=""images/pattern_7.png"" style=""width: 234px; height: 230px; margin-top: -50px;""><div style=""display: flex; justify-content: space-between; margin-top: 33px;""><img src=""images/choice_trial_6.png"" style=""width: 408px; height: 417px; margin-right: 200px;""><img src=""images/choice_trial_12.png"" style=""width: 408px; height: 417px;""></div></div>","f","delaylearn","learning","trial","64333e37b0fca53775bad01a","pjcAE2Em1WZ2ZrygS9ZqsCd8VRA3","3","images/choice_trial_6.png","images/choice_trial_12.png","images/pattern_7.png","j","f","750","6","12","6","0","19","1","0","6","120","","","","",""
"html-keyboard-response","102","213389","0.0-44.0-1.0","","null","<div style=""display: flex; flex-direction: column; align-items: center; margin-top: -40px;""><img src=""images/pattern_7.png"" style=""width: 234px; height: 230px; margin-top: -50px;""><div style=""display: flex; justify-content: space-between; margin-top: 33px;""><img src=""images/choice_trial_6.png"" style=""width: 408px; height: 417px; margin-right: 608px;""></div></div>","null","delaylearn","learning","display_response","64333e37b0fca53775bad01a","pjcAE2Em1WZ2ZrygS9ZqsCd8VRA3","","","","","","","","","","","","","","","","","chosen stimuli: images/choice_trial_6.png","","","",""
"html-keyboard-response","103","214159","0.0-44.0-2.0","","null","","null","delaylearn","learning","feedback_duration_window","64333e37b0fca53775bad01a","pjcAE2Em1WZ2ZrygS9ZqsCd8VRA3","","","","","","","","","","","","","","","","","","750","","",""
"html-keyboard-response","104","215674","0.0-44.0-3.0","","null","<div style='margin:auto;width: auto; font-size: 150%'><span style='font-weight: bold; font-size: 100px; color: red;'>0 points!</span><br><br></div>","null","delaylearn","learning","feedback_image_window","64333e37b0fca53775bad01a","pjcAE2Em1WZ2ZrygS9ZqsCd8VRA3","","","","","","","","","","","","","","","","","","","","",""
"html-keyboard-response","105","218134","0.0-45.0","","null","<div style=""font-size:100px;"">+</div>","null","delaylearn","learning","ITI","64333e37b0fca53775bad01a","pjcAE2Em1WZ2ZrygS9ZqsCd8VRA3","","","","","","","","","","","","","","","","","","","2457","",""
"html-keyboard-response","106","219743","0.0-46.0-0.0","","1607.3999999910593","<div style=""display: flex; flex-direction: column; align-items: center; margin-top: -40px;""><img src=""images/pattern_1.png"" style=""width: 234px; height: 230px; margin-top: -50px;""><div style=""display: flex; justify-content: space-between; margin-top: 33px;""><img src=""images/choice_trial_14.png"" style=""width: 408px; height: 417px; margin-right: 200px;""><img src=""images/choice_trial_8.png"" style=""width: 408px; height: 417px;""></div></div>","j","delaylearn","learning","trial","64333e37b0fca53775bad01a","pjcAE2Em1WZ2ZrygS9ZqsCd8VRA3","3","images/choice_trial_14.png","images/choice_trial_8.png","images/pattern_1.png","f","f","7000","14","8","1","0","20","0","0","8","120","","","","",""
"html-keyboard-response","107","220759","0.0-46.0-1.0","","null","<div style=""display: flex; flex-direction: column; align-items: center; margin-top: -40px;""><img src=""images/pattern_1.png"" style=""width: 234px; height: 230px; margin-top: -50px;""><div style=""display: flex; justify-content: space-between; margin-top: 33px;""><img src=""images/choice_trial_8.png"" style=""width: 408px; height: 417px; margin-left:608px;""></div></div>","null","delaylearn","learning","display_response","64333e37b0fca53775bad01a","pjcAE2Em1WZ2ZrygS9ZqsCd8VRA3","","","","","","","","","","","","","","","","","chosen stimuli: images/choice_trial_8.png","","","",""
"html-keyboard-response","108","227774","0.0-46.0-2.0","","null","","null","delaylearn","learning","feedback_duration_window","64333e37b0fca53775bad01a","pjcAE2Em1WZ2ZrygS9ZqsCd8VRA3","","","","","","","","","","","","","","","","","","7000","","",""
"html-keyboard-response","109","229290","0.0-46.0-3.0","","null","<div style='margin:auto;width: auto; font-size: 150%'><span style='font-weight: bold; font-size: 100px; color: red;'>0 points!</span><br><br></div>","null","delaylearn","learning","feedback_image_window","64333e37b0fca53775bad01a","pjcAE2Em1WZ2ZrygS9ZqsCd8VRA3","","","","","","","","","","","","","","","","","","","","",""
"html-keyboard-response","110","230935","0.0-47.0","","null","<div style=""font-size:100px;"">+</div>","null","delaylearn","learning","ITI","64333e37b0fca53775bad01a","pjcAE2Em1WZ2ZrygS9ZqsCd8VRA3","","","","","","","","","","","","","","","","","","","1630","",""
"html-keyboard-response","111","232479","0.0-48.0-0.0","","1542.9000000059605","<div style=""display: flex; flex-direction: column; align-items: center; margin-top: -40px;""><img src=""images/pattern_6.png"" style=""width: 234px; height: 230px; margin-top: -50px;""><div style=""display: flex; justify-content: space-between; margin-top: 33px;""><img src=""images/choice_trial_3.png"" style=""width: 408px; height: 417px; margin-right: 200px;""><img src=""images/choice_trial_16.png"" style=""width: 408px; height: 417px;""></div></div>","f","delaylearn","learning","trial","64333e37b0fca53775bad01a","pjcAE2Em1WZ2ZrygS9ZqsCd8VRA3","3","images/choice_trial_3.png","images/choice_trial_16.png","images/pattern_6.png","j","j","750","3","16","5","1","21","0","0","3","120","","","","",""
"html-keyboard-response","112","233489","0.0-48.0-1.0","","null","<div style=""display: flex; flex-direction: column; align-items: center; margin-top: -40px;""><img src=""images/pattern_6.png"" style=""width: 234px; height: 230px; margin-top: -50px;""><div style=""display: flex; justify-content: space-between; margin-top: 33px;""><img src=""images/choice_trial_3.png"" style=""width: 408px; height: 417px; margin-right: 608px;""></div></div>","null","delaylearn","learning","display_response","64333e37b0fca53775bad01a","pjcAE2Em1WZ2ZrygS9ZqsCd8VRA3","","","","","","","","","","","","","","","","","chosen stimuli: images/choice_trial_3.png","","","",""
"html-keyboard-response","113","234259","0.0-48.0-2.0","","null","","null","delaylearn","learning","feedback_duration_window","64333e37b0fca53775bad01a","pjcAE2Em1WZ2ZrygS9ZqsCd8VRA3","","","","","","","","","","","","","","","","","","750","","",""
"html-keyboard-response","114","235766","0.0-48.0-3.0","","null","<div style='margin:auto;width: auto; font-size: 150%'><span style='font-weight: bold; font-size: 100px; color: red;'>0 points!</span><br><br></div>","null","delaylearn","learning","feedback_image_window","64333e37b0fca53775bad01a","pjcAE2Em1WZ2ZrygS9ZqsCd8VRA3","","","","","","","","","","","","","","","","","","","","",""
"html-keyboard-response","115","237704","0.0-49.0","","null","<div style=""font-size:100px;"">+</div>","null","delaylearn","learning","ITI","64333e37b0fca53775bad01a","pjcAE2Em1WZ2ZrygS9ZqsCd8VRA3","","","","","","","","","","","","","","","","","","","1937","",""
"html-keyboard-response","116","239838","0.0-50.0-0.0","","2132.7000000029802","<div style=""display: flex; flex-direction: column; align-items: center; margin-top: -40px;""><img src=""images/pattern_4.png"" style=""width: 234px; height: 230px; margin-top: -50px;""><div style=""display: flex; justify-content: space-between; margin-top: 33px;""><img src=""images/choice_trial_15.png"" style=""width: 408px; height: 417px; margin-right: 200px;""><img src=""images/choice_trial_9.png"" style=""width: 408px; height: 417px;""></div></div>","f","delaylearn","learning","trial","64333e37b0fca53775bad01a","pjcAE2Em1WZ2ZrygS9ZqsCd8VRA3","3","images/choice_trial_15.png","images/choice_trial_9.png","images/pattern_4.png","f","f","7000","15","9","3","0","22","1","1","15","130","","","","",""
"html-keyboard-response","117","240858","0.0-50.0-1.0","","null","<div style=""display: flex; flex-direction: column; align-items: center; margin-top: -40px;""><img src=""images/pattern_4.png"" style=""width: 234px; height: 230px; margin-top: -50px;""><div style=""display: flex; justify-content: space-between; margin-top: 33px;""><img src=""images/choice_trial_15.png"" style=""width: 408px; height: 417px; margin-right: 608px;""></div></div>","null","delaylearn","learning","display_response","64333e37b0fca53775bad01a","pjcAE2Em1WZ2ZrygS9ZqsCd8VRA3","","","","","","","","","","","","","","","","","chosen stimuli: images/choice_trial_15.png","","","",""
"html-keyboard-response","118","247865","0.0-50.0-2.0","","null","","null","delaylearn","learning","feedback_duration_window","64333e37b0fca53775bad01a","pjcAE2Em1WZ2ZrygS9ZqsCd8VRA3","","","","","","","","","","","","","","","","","","7000","","",""
"html-keyboard-response","119","249374","0.0-50.0-3.0","","null","<div style='margin:auto;width: auto; font-size: 150%'><span style='font-weight: bold; font-size: 100px; color: green;'>+10 points!</span><br><br></div>","null","delaylearn","learning","feedback_image_window","64333e37b0fca53775bad01a","pjcAE2Em1WZ2ZrygS9ZqsCd8VRA3","","","","","","","","","","","","","","","","","","","","",""
"html-keyboard-response","120","249883","0.0-51.0-0.0","","null","","null","","","mood_trial_fixation","","","","","","","","","","","","","","","","","","","","","","",""
"lmdlab-html-vas-response","121","254196","0.0-51.0-1.0","","3304","How happy are you right now?","0.7847196872814457","delaylearn","learning","mood_trial","64333e37b0fca53775bad01a","pjcAE2Em1WZ2ZrygS9ZqsCd8VRA3","","","","","","","","","","","","","","","","","","","","[""Very unhappy"",""Very happy""]",""
"html-keyboard-response","122","256024","0.0-52.0","","null","<div style=""font-size:100px;"">+</div>","null","delaylearn","learning","ITI","64333e37b0fca53775bad01a","pjcAE2Em1WZ2ZrygS9ZqsCd8VRA3","","","","","","","","","","","","","","","","","","","1814","",""
"html-keyboard-response","123","257132","0.0-53.0-0.0","","1107.300000011921","<div style=""display: flex; flex-direction: column; align-items: center; margin-top: -40px;""><img src=""images/pattern_7.png"" style=""width: 234px; height: 230px; margin-top: -50px;""><div style=""display: flex; justify-content: space-between; margin-top: 33px;""><img src=""images/choice_trial_12.png"" style=""width: 408px; height: 417px; margin-right: 200px;""><img src=""images/choice_trial_6.png"" style=""width: 408px; height: 417px;""></div></div>","f","delaylearn","learning","trial","64333e37b0fca53775bad01a","pjcAE2Em1WZ2ZrygS9ZqsCd8VRA3","3","images/choice_trial_12.png","images/choice_trial_6.png","images/pattern_7.png","j","j","750","12","6","6","1","23","0","0","12","130","","","","",""
"html-keyboard-response","124","258136","0.0-53.0-1.0","","null","<div style=""display: flex; flex-direction: column; align-items: center; margin-top: -40px;""><img src=""images/pattern_7.png"" style=""width: 234px; height: 230px; margin-top: -50px;""><div style=""display: flex; justify-content: space-between; margin-top: 33px;""><img src=""images/choice_trial_12.png"" style=""width: 408px; height: 417px; margin-right: 608px;""></div></div>","null","delaylearn","learning","display_response","64333e37b0fca53775bad01a","pjcAE2Em1WZ2ZrygS9ZqsCd8VRA3","","","","","","","","","","","","","","","","","chosen stimuli: images/choice_trial_12.png","","","",""
"html-keyboard-response","125","258890","0.0-53.0-2.0","","null","","null","delaylearn","learning","feedback_duration_window","64333e37b0fca53775bad01a","pjcAE2Em1WZ2ZrygS9ZqsCd8VRA3","","","","","","","","","","","","","","","","","","750","","",""
"html-keyboard-response","126","260401","0.0-53.0-3.0","","null","<div style='margin:auto;width: auto; font-size: 150%'><span style='font-weight: bold; font-size: 100px; color: red;'>0 points!</span><br><br></div>","null","delaylearn","learning","feedback_image_window","64333e37b0fca53775bad01a","pjcAE2Em1WZ2ZrygS9ZqsCd8VRA3","","","","","","","","","","","","","","","","","","","","",""
"html-keyboard-response","127","262504","0.0-54.0","","null","<div style=""font-size:100px;"">+</div>","null","delaylearn","learning","ITI","64333e37b0fca53775bad01a","pjcAE2Em1WZ2ZrygS9ZqsCd8VRA3","","","","","","","","","","","","","","","","","","","2093","",""
"html-keyboard-response","128","263871","0.0-55.0-0.0","","1364.9000000059605","<div style=""display: flex; flex-direction: column; align-items: center; margin-top: -40px;""><img src=""images/pattern_1.png"" style=""width: 234px; height: 230px; margin-top: -50px;""><div style=""display: flex; justify-content: space-between; margin-top: 33px;""><img src=""images/choice_trial_8.png"" style=""width: 408px; height: 417px; margin-right: 200px;""><img src=""images/choice_trial_14.png"" style=""width: 408px; height: 417px;""></div></div>","j","delaylearn","learning","trial","64333e37b0fca53775bad01a","pjcAE2Em1WZ2ZrygS9ZqsCd8VRA3","3","images/choice_trial_8.png","images/choice_trial_14.png","images/pattern_1.png","f","j","7000","8","14","1","1","24","1","0","14","130","","","","",""
"html-keyboard-response","129","264873","0.0-55.0-1.0","","null","<div style=""display: flex; flex-direction: column; align-items: center; margin-top: -40px;""><img src=""images/pattern_1.png"" style=""width: 234px; height: 230px; margin-top: -50px;""><div style=""display: flex; justify-content: space-between; margin-top: 33px;""><img src=""images/choice_trial_14.png"" style=""width: 408px; height: 417px; margin-left:608px;""></div></div>","null","delaylearn","learning","display_response","64333e37b0fca53775bad01a","pjcAE2Em1WZ2ZrygS9ZqsCd8VRA3","","","","","","","","","","","","","","","","","chosen stimuli: images/choice_trial_14.png","","","",""
"html-keyboard-response","130","271875","0.0-55.0-2.0","","null","","null","delaylearn","learning","feedback_duration_window","64333e37b0fca53775bad01a","pjcAE2Em1WZ2ZrygS9ZqsCd8VRA3","","","","","","","","","","","","","","","","","","7000","","",""
"html-keyboard-response","131","273390","0.0-55.0-3.0","","null","<div style='margin:auto;width: auto; font-size: 150%'><span style='font-weight: bold; font-size: 100px; color: red;'>0 points!</span><br><br></div>","null","delaylearn","learning","feedback_image_window","64333e37b0fca53775bad01a","pjcAE2Em1WZ2ZrygS9ZqsCd8VRA3","","","","","","","","","","","","","","","","","","","","",""
"html-keyboard-response","132","275681","0.0-56.0","","null","<div style=""font-size:100px;"">+</div>","null","delaylearn","learning","ITI","64333e37b0fca53775bad01a","pjcAE2Em1WZ2ZrygS9ZqsCd8VRA3","","","","","","","","","","","","","","","","","","","2287","",""
"html-keyboard-response","133","277214","0.0-57.0-0.0","","1531.5999999940395","<div style=""display: flex; flex-direction: column; align-items: center; margin-top: -40px;""><img src=""images/pattern_5.png"" style=""width: 234px; height: 230px; margin-top: -50px;""><div style=""display: flex; justify-content: space-between; margin-top: 33px;""><img src=""images/choice_trial_2.png"" style=""width: 408px; height: 417px; margin-right: 200px;""><img src=""images/choice_trial_11.png"" style=""width: 408px; height: 417px;""></div></div>","f","delaylearn","learning","trial","64333e37b0fca53775bad01a","pjcAE2Em1WZ2ZrygS9ZqsCd8VRA3","3","images/choice_trial_2.png","images/choice_trial_11.png","images/pattern_5.png","j","j","750","2","11","4","1","25","0","0","2","130","","","","",""
"html-keyboard-response","134","278223","0.0-57.0-1.0","","null","<div style=""display: flex; flex-direction: column; align-items: center; margin-top: -40px;""><img src=""images/pattern_5.png"" style=""width: 234px; height: 230px; margin-top: -50px;""><div style=""display: flex; justify-content: space-between; margin-top: 33px;""><img src=""images/choice_trial_2.png"" style=""width: 408px; height: 417px; margin-right: 608px;""></div></div>","null","delaylearn","learning","display_response","64333e37b0fca53775bad01a","pjcAE2Em1WZ2ZrygS9ZqsCd8VRA3","","","","","","","","","","","","","","","","","chosen stimuli: images/choice_trial_2.png","","","",""
"html-keyboard-response","135","278981","0.0-57.0-2.0","","null","","null","delaylearn","learning","feedback_duration_window","64333e37b0fca53775bad01a","pjcAE2Em1WZ2ZrygS9ZqsCd8VRA3","","","","","","","","","","","","","","","","","","750","","",""
"html-keyboard-response","136","280489","0.0-57.0-3.0","","null","<div style='margin:auto;width: auto; font-size: 150%'><span style='font-weight: bold; font-size: 100px; color: red;'>0 points!</span><br><br></div>","null","delaylearn","learning","feedback_image_window","64333e37b0fca53775bad01a","pjcAE2Em1WZ2ZrygS9ZqsCd8VRA3","","","","","","","","","","","","","","","","","","","","",""
"html-keyboard-response","137","282558","0.0-58.0","","null","<div style=""font-size:100px;"">+</div>","null","delaylearn","learning","ITI","64333e37b0fca53775bad01a","pjcAE2Em1WZ2ZrygS9ZqsCd8VRA3","","","","","","","","","","","","","","","","","","","2060","",""
"html-keyboard-response","138","284545","0.0-59.0-0.0","","1985.2999999970198","<div style=""display: flex; flex-direction: column; align-items: center; margin-top: -40px;""><img src=""images/pattern_3.png"" style=""width: 234px; height: 230px; margin-top: -50px;""><div style=""display: flex; justify-content: space-between; margin-top: 33px;""><img src=""images/choice_trial_10.png"" style=""width: 408px; height: 417px; margin-right: 200px;""><img src=""images/choice_trial_13.png"" style=""width: 408px; height: 417px;""></div></div>","j","delaylearn","learning","trial","64333e37b0fca53775bad01a","pjcAE2Em1WZ2ZrygS9ZqsCd8VRA3","3","images/choice_trial_10.png","images/choice_trial_13.png","images/pattern_3.png","j","j","7000","10","13","2","1","26","1","1","13","140","","","","",""
"html-keyboard-response","139","285559","0.0-59.0-1.0","","null","<div style=""display: flex; flex-direction: column; align-items: center; margin-top: -40px;""><img src=""images/pattern_3.png"" style=""width: 234px; height: 230px; margin-top: -50px;""><div style=""display: flex; justify-content: space-between; margin-top: 33px;""><img src=""images/choice_trial_13.png"" style=""width: 408px; height: 417px; margin-left:608px;""></div></div>","null","delaylearn","learning","display_response","64333e37b0fca53775bad01a","pjcAE2Em1WZ2ZrygS9ZqsCd8VRA3","","","","","","","","","","","","","","","","","chosen stimuli: images/choice_trial_13.png","","","",""
"html-keyboard-response","140","292574","0.0-59.0-2.0","","null","","null","delaylearn","learning","feedback_duration_window","64333e37b0fca53775bad01a","pjcAE2Em1WZ2ZrygS9ZqsCd8VRA3","","","","","","","","","","","","","","","","","","7000","","",""
"html-keyboard-response","141","294089","0.0-59.0-3.0","","null","<div style='margin:auto;width: auto; font-size: 150%'><span style='font-weight: bold; font-size: 100px; color: green;'>+10 points!</span><br><br></div>","null","delaylearn","learning","feedback_image_window","64333e37b0fca53775bad01a","pjcAE2Em1WZ2ZrygS9ZqsCd8VRA3","","","","","","","","","","","","","","","","","","","","",""
"lmdlab-html-vas-response","142","300534","0.0-60.0-0.0","","4925","*How <b><u>confident</u></b> are you feeling about your answers at this moment?*","0.4099515013277424","rewlearn","rate_confidence","","64333e37b0fca53775bad01a","pjcAE2Em1WZ2ZrygS9ZqsCd8VRA3","","","","","","","","","","","","","","","","","","","","[""No confidence"",""Complete confidence""]",""
"lmdlab-rest-trial-limit","143","307735","0.0-60.0-1.0","","5689.5999999940395","<div style=""font-size:40px;""><b>Please take a break!</b><br><br><br><br><p>Great work: you earned 140 points.<br><br><br><p>You have completed part(s) 1 of 5.<br><br><br><br>When you are ready to continue<br><br><br>please click the button.</p><br><br>","0","delaylearn","learning","break","64333e37b0fca53775bad01a","pjcAE2Em1WZ2ZrygS9ZqsCd8VRA3","","","","","","","","","","","","","","","","","","","","","0"
"html-keyboard-response","144","310760","0.0-60.0-2.0","","null","<div style=""font-size:100px;"">+</div>","null","delaylearn","learning","pre_fixation","64333e37b0fca53775bad01a","","","","","","","","","","","","","","","","","","","","","",""
"lmdlab-html-vas-response","145","314434","0.0-60.0-3.0-0.0","","2671","How happy are you right now?","0.6941507090093008","delaylearn","learning","mood_baseline","64333e37b0fca53775bad01a","pjcAE2Em1WZ2ZrygS9ZqsCd8VRA3","","","","","","","","","","","","","","","","","","","","[""Very unhappy"",""Very happy""]",""
"html-keyboard-response","146","315947","0.0-60.0-3.0-1.0","","null","","null","","","mood_baseline_fixation","","","","","","","","","","","","","","","","","","","","","","",""
"html-keyboard-response","147","317658","0.0-61.0","","null","<div style=""font-size:100px;"">+</div>","null","delaylearn","learning","ITI","64333e37b0fca53775bad01a","pjcAE2Em1WZ2ZrygS9ZqsCd8VRA3","","","","","","","","","","","","","","","","","","","1697","",""
"html-keyboard-response","148","318891","0.0-62.0-0.0","","1231.7999999970198","<div style=""display: flex; flex-direction: column; align-items: center; margin-top: -40px;""><img src=""images/pattern_7.png"" style=""width: 234px; height: 230px; margin-top: -50px;""><div style=""display: flex; justify-content: space-between; margin-top: 33px;""><img src=""images/choice_trial_12.png"" style=""width: 408px; height: 417px; margin-right: 200px;""><img src=""images/choice_trial_6.png"" style=""width: 408px; height: 417px;""></div></div>","f","delaylearn","learning","trial","64333e37b0fca53775bad01a","pjcAE2Em1WZ2ZrygS9ZqsCd8VRA3","3","images/choice_trial_12.png","images/choice_trial_6.png","images/pattern_7.png","j","j","750","12","6","6","1","27","0","0","12","140","","","","",""
"html-keyboard-response","149","319905","0.0-62.0-1.0","","null","<div style=""display: flex; flex-direction: column; align-items: center; margin-top: -40px;""><img src=""images/pattern_7.png"" style=""width: 234px; height: 230px; margin-top: -50px;""><div style=""display: flex; justify-content: space-between; margin-top: 33px;""><img src=""images/choice_trial_12.png"" style=""width: 408px; height: 417px; margin-right: 608px;""></div></div>","null","delaylearn","learning","display_response","64333e37b0fca53775bad01a","pjcAE2Em1WZ2ZrygS9ZqsCd8VRA3","","","","","","","","","","","","","","","","","chosen stimuli: images/choice_trial_12.png","","","",""
"html-keyboard-response","150","320658","0.0-62.0-2.0","","null","","null","delaylearn","learning","feedback_duration_window","64333e37b0fca53775bad01a","pjcAE2Em1WZ2ZrygS9ZqsCd8VRA3","","","","","","","","","","","","","","","","","","750","","",""
"html-keyboard-response","151","322166","0.0-62.0-3.0","","null","<div style='margin:auto;width: auto; font-size: 150%'><span style='font-weight: bold; font-size: 100px; color: red;'>0 points!</span><br><br></div>","null","delaylearn","learning","feedback_image_window","64333e37b0fca53775bad01a","pjcAE2Em1WZ2ZrygS9ZqsCd8VRA3","","","","","","","","","","","","","","","","","","","","",""
"html-keyboard-response","152","322681","0.0-63.0-0.0","","null","","null","","","mood_trial_fixation","","","","","","","","","","","","","","","","","","","","","","",""
"lmdlab-html-vas-response","153","326429","0.0-63.0-1.0","","2739","How happy are you right now?","0.6410585493325262","delaylearn","learning","mood_trial","64333e37b0fca53775bad01a","pjcAE2Em1WZ2ZrygS9ZqsCd8VRA3","","","","","","","","","","","","","","","","","","","","[""Very unhappy"",""Very happy""]",""
"html-keyboard-response","154","328290","0.0-64.0","","null","<div style=""font-size:100px;"">+</div>","null","delaylearn","learning","ITI","64333e37b0fca53775bad01a","pjcAE2Em1WZ2ZrygS9ZqsCd8VRA3","","","","","","","","","","","","","","","","","","","1853","",""
"html-keyboard-response","155","329530","0.0-65.0-0.0","","1238.5999999940395","<div style=""display: flex; flex-direction: column; align-items: center; margin-top: -40px;""><img src=""images/pattern_1.png"" style=""width: 234px; height: 230px; margin-top: -50px;""><div style=""display: flex; justify-content: space-between; margin-top: 33px;""><img src=""images/choice_trial_14.png"" style=""width: 408px; height: 417px; margin-right: 200px;""><img src=""images/choice_trial_8.png"" style=""width: 408px; height: 417px;""></div></div>","j","delaylearn","learning","trial","64333e37b0fca53775bad01a","pjcAE2Em1WZ2ZrygS9ZqsCd8VRA3","3","images/choice_trial_14.png","images/choice_trial_8.png","images/pattern_1.png","f","f","7000","14","8","1","0","28","0","0","8","140","","","","",""
"html-keyboard-response","156","330546","0.0-65.0-1.0","","null","<div style=""display: flex; flex-direction: column; align-items: center; margin-top: -40px;""><img src=""images/pattern_1.png"" style=""width: 234px; height: 230px; margin-top: -50px;""><div style=""display: flex; justify-content: space-between; margin-top: 33px;""><img src=""images/choice_trial_8.png"" style=""width: 408px; height: 417px; margin-left:608px;""></div></div>","null","delaylearn","learning","display_response","64333e37b0fca53775bad01a","pjcAE2Em1WZ2ZrygS9ZqsCd8VRA3","","","","","","","","","","","","","","","","","chosen stimuli: images/choice_trial_8.png","","","",""
"html-keyboard-response","157","337563","0.0-65.0-2.0","","null","","null","delaylearn","learning","feedback_duration_window","64333e37b0fca53775bad01a","pjcAE2Em1WZ2ZrygS9ZqsCd8VRA3","","","","","","","","","","","","","","","","","","7000","","",""
"html-keyboard-response","158","339065","0.0-65.0-3.0","","null","<div style='margin:auto;width: auto; font-size: 150%'><span style='font-weight: bold; font-size: 100px; color: red;'>0 points!</span><br><br></div>","null","delaylearn","learning","feedback_image_window","64333e37b0fca53775bad01a","pjcAE2Em1WZ2ZrygS9ZqsCd8VRA3","","","","","","","","","","","","","","","","","","","","",""
"html-keyboard-response","159","341159","0.0-66.0","","null","<div style=""font-size:100px;"">+</div>","null","delaylearn","learning","ITI","64333e37b0fca53775bad01a","pjcAE2Em1WZ2ZrygS9ZqsCd8VRA3","","","","","","","","","","","","","","","","","","","2080","",""
"html-keyboard-response","160","342479","0.0-67.0-0.0","","1318.6000000089407","<div style=""display: flex; flex-direction: column; align-items: center; margin-top: -40px;""><img src=""images/pattern_5.png"" style=""width: 234px; height: 230px; margin-top: -50px;""><div style=""display: flex; justify-content: space-between; margin-top: 33px;""><img src=""images/choice_trial_11.png"" style=""width: 408px; height: 417px; margin-right: 200px;""><img src=""images/choice_trial_2.png"" style=""width: 408px; height: 417px;""></div></div>","f","delaylearn","learning","trial","64333e37b0fca53775bad01a","pjcAE2Em1WZ2ZrygS9ZqsCd8VRA3","3","images/choice_trial_11.png","images/choice_trial_2.png","images/pattern_5.png","f","f","750","11","2","4","0","29","1","1","11","150","","","","",""
"html-keyboard-response","161","343489","0.0-67.0-1.0","","null","<div style=""display: flex; flex-direction: column; align-items: center; margin-top: -40px;""><img src=""images/pattern_5.png"" style=""width: 234px; height: 230px; margin-top: -50px;""><div style=""display: flex; justify-content: space-between; margin-top: 33px;""><img src=""images/choice_trial_11.png"" style=""width: 408px; height: 417px; margin-right: 608px;""></div></div>","null","delaylearn","learning","display_response","64333e37b0fca53775bad01a","pjcAE2Em1WZ2ZrygS9ZqsCd8VRA3","","","","","","","","","","","","","","","","","chosen stimuli: images/choice_trial_11.png","","","",""
"html-keyboard-response","162","344259","0.0-67.0-2.0","","null","","null","delaylearn","learning","feedback_duration_window","64333e37b0fca53775bad01a","pjcAE2Em1WZ2ZrygS9ZqsCd8VRA3","","","","","","","","","","","","","","","","","","750","","",""
"html-keyboard-response","163","345775","0.0-67.0-3.0","","null","<div style='margin:auto;width: auto; font-size: 150%'><span style='font-weight: bold; font-size: 100px; color: green;'>+10 points!</span><br><br></div>","null","delaylearn","learning","feedback_image_window","64333e37b0fca53775bad01a","pjcAE2Em1WZ2ZrygS9ZqsCd8VRA3","","","","","","","","","","","","","","","","","","","","",""
"html-keyboard-response","164","347849","0.0-68.0","","null","<div style=""font-size:100px;"">+</div>","null","delaylearn","learning","ITI","64333e37b0fca53775bad01a","pjcAE2Em1WZ2ZrygS9ZqsCd8VRA3","","","","","","","","","","","","","","","","","","","2059","",""
"html-keyboard-response","165","349021","0.0-69.0-0.0","","1170.9000000059605","<div style=""display: flex; flex-direction: column; align-items: center; margin-top: -40px;""><img src=""images/pattern_6.png"" style=""width: 234px; height: 230px; margin-top: -50px;""><div style=""display: flex; justify-content: space-between; margin-top: 33px;""><img src=""images/choice_trial_3.png"" style=""width: 408px; height: 417px; margin-right: 200px;""><img src=""images/choice_trial_16.png"" style=""width: 408px; height: 417px;""></div></div>","f","delaylearn","learning","trial","64333e37b0fca53775bad01a","pjcAE2Em1WZ2ZrygS9ZqsCd8VRA3","3","images/choice_trial_3.png","images/choice_trial_16.png","images/pattern_6.png","j","j","750","3","16","5","1","30","0","0","3","150","","","","",""
"html-keyboard-response","166","350025","0.0-69.0-1.0","","null","<div style=""display: flex; flex-direction: column; align-items: center; margin-top: -40px;""><img src=""images/pattern_6.png"" style=""width: 234px; height: 230px; margin-top: -50px;""><div style=""display: flex; justify-content: space-between; margin-top: 33px;""><img src=""images/choice_trial_3.png"" style=""width: 408px; height: 417px; margin-right: 608px;""></div></div>","null","delaylearn","learning","display_response","64333e37b0fca53775bad01a","pjcAE2Em1WZ2ZrygS9ZqsCd8VRA3","","","","","","","","","","","","","","","","","chosen stimuli: images/choice_trial_3.png","","","",""
"html-keyboard-response","167","350789","0.0-69.0-2.0","","null","","null","delaylearn","learning","feedback_duration_window","64333e37b0fca53775bad01a","pjcAE2Em1WZ2ZrygS9ZqsCd8VRA3","","","","","","","","","","","","","","","","","","750","","",""
"html-keyboard-response","168","352304","0.0-69.0-3.0","","null","<div style='margin:auto;width: auto; font-size: 150%'><span style='font-weight: bold; font-size: 100px; color: red;'>0 points!</span><br><br></div>","null","delaylearn","learning","feedback_image_window","64333e37b0fca53775bad01a","pjcAE2Em1WZ2ZrygS9ZqsCd8VRA3","","","","","","","","","","","","","","","","","","","","",""
"html-keyboard-response","169","352820","0.0-70.0-0.0","","null","","null","","","mood_trial_fixation","","","","","","","","","","","","","","","","","","","","","","",""
"lmdlab-html-vas-response","170","356260","0.0-70.0-1.0","","2431","How happy are you right now?","0.6223201400348409","delaylearn","learning","mood_trial","64333e37b0fca53775bad01a","pjcAE2Em1WZ2ZrygS9ZqsCd8VRA3","","","","","","","","","","","","","","","","","","","","[""Very unhappy"",""Very happy""]",""
"html-keyboard-response","171","357958","0.0-71.0","","null","<div style=""font-size:100px;"">+</div>","null","delaylearn","learning","ITI","64333e37b0fca53775bad01a","pjcAE2Em1WZ2ZrygS9ZqsCd8VRA3","","","","","","","","","","","","","","","","","","","1684","",""
"html-keyboard-response","172","358977","0.0-72.0-0.0","","1017","<div style=""display: flex; flex-direction: column; align-items: center; margin-top: -40px;""><img src=""images/pattern_4.png"" style=""width: 234px; height: 230px; margin-top: -50px;""><div style=""display: flex; justify-content: space-between; margin-top: 33px;""><img src=""images/choice_trial_9.png"" style=""width: 408px; height: 417px; margin-right: 200px;""><img src=""images/choice_trial_15.png"" style=""width: 408px; height: 417px;""></div></div>","f","delaylearn","learning","trial","64333e37b0fca53775bad01a","pjcAE2Em1WZ2ZrygS9ZqsCd8VRA3","3","images/choice_trial_9.png","images/choice_trial_15.png","images/pattern_4.png","j","j","7000","9","15","3","1","31","0","0","9","150","","","","",""
"html-keyboard-response","173","359988","0.0-72.0-1.0","","null","<div style=""display: flex; flex-direction: column; align-items: center; margin-top: -40px;""><img src=""images/pattern_4.png"" style=""width: 234px; height: 230px; margin-top: -50px;""><div style=""display: flex; justify-content: space-between; margin-top: 33px;""><img src=""images/choice_trial_9.png"" style=""width: 408px; height: 417px; margin-right: 608px;""></div></div>","null","delaylearn","learning","display_response","64333e37b0fca53775bad01a","pjcAE2Em1WZ2ZrygS9ZqsCd8VRA3","","","","","","","","","","","","","","","","","chosen stimuli: images/choice_trial_9.png","","","",""
"html-keyboard-response","174","366990","0.0-72.0-2.0","","null","","null","delaylearn","learning","feedback_duration_window","64333e37b0fca53775bad01a","pjcAE2Em1WZ2ZrygS9ZqsCd8VRA3","","","","","","","","","","","","","","","","","","7000","","",""
"html-keyboard-response","175","368508","0.0-72.0-3.0","","null","<div style='margin:auto;width: auto; font-size: 150%'><span style='font-weight: bold; font-size: 100px; color: red;'>0 points!</span><br><br></div>","null","delaylearn","learning","feedback_image_window","64333e37b0fca53775bad01a","pjcAE2Em1WZ2ZrygS9ZqsCd8VRA3","","","","","","","","","","","","","","","","","","","","",""
"html-keyboard-response","176","370420","0.0-73.0","","null","<div style=""font-size:100px;"">+</div>","null","delaylearn","learning","ITI","64333e37b0fca53775bad01a","pjcAE2Em1WZ2ZrygS9ZqsCd8VRA3","","","","","","","","","","","","","","","","","","","1902","",""
"html-keyboard-response","177","372023","0.0-74.0-0.0","","1602.1000000089407","<div style=""display: flex; flex-direction: column; align-items: center; margin-top: -40px;""><img src=""images/pattern_3.png"" style=""width: 234px; height: 230px; margin-top: -50px;""><div style=""display: flex; justify-content: space-between; margin-top: 33px;""><img src=""images/choice_trial_10.png"" style=""width: 408px; height: 417px; margin-right: 200px;""><img src=""images/choice_trial_13.png"" style=""width: 408px; height: 417px;""></div></div>","f","delaylearn","learning","trial","64333e37b0fca53775bad01a","pjcAE2Em1WZ2ZrygS9ZqsCd8VRA3","3","images/choice_trial_10.png","images/choice_trial_13.png","images/pattern_3.png","j","j","7000","10","13","2","1","32","0","0","10","150","","","","",""
"html-keyboard-response","178","373036","0.0-74.0-1.0","","null","<div style=""display: flex; flex-direction: column; align-items: center; margin-top: -40px;""><img src=""images/pattern_3.png"" style=""width: 234px; height: 230px; margin-top: -50px;""><div style=""display: flex; justify-content: space-between; margin-top: 33px;""><img src=""images/choice_trial_10.png"" style=""width: 408px; height: 417px; margin-right: 608px;""></div></div>","null","delaylearn","learning","display_response","64333e37b0fca53775bad01a","pjcAE2Em1WZ2ZrygS9ZqsCd8VRA3","","","","","","","","","","","","","","","","","chosen stimuli: images/choice_trial_10.png","","","",""
"html-keyboard-response","179","380058","0.0-74.0-2.0","","null","","null","delaylearn","learning","feedback_duration_window","64333e37b0fca53775bad01a","pjcAE2Em1WZ2ZrygS9ZqsCd8VRA3","","","","","","","","","","","","","","","","","","7000","","",""
"html-keyboard-response","180","381565","0.0-74.0-3.0","","null","<div style='margin:auto;width: auto; font-size: 150%'><span style='font-weight: bold; font-size: 100px; color: red;'>0 points!</span><br><br></div>","null","delaylearn","learning","feedback_image_window","64333e37b0fca53775bad01a","pjcAE2Em1WZ2ZrygS9ZqsCd8VRA3","","","","","","","","","","","","","","","","","","","","",""
"html-keyboard-response","181","383733","0.0-75.0","","null","<div style=""font-size:100px;"">+</div>","null","delaylearn","learning","ITI","64333e37b0fca53775bad01a","pjcAE2Em1WZ2ZrygS9ZqsCd8VRA3","","","","","","","","","","","","","","","","","","","2166","",""
"html-keyboard-response","182","384993","0.0-76.0-0.0","","1259.199999988079","<div style=""display: flex; flex-direction: column; align-items: center; margin-top: -40px;""><img src=""images/pattern_5.png"" style=""width: 234px; height: 230px; margin-top: -50px;""><div style=""display: flex; justify-content: space-between; margin-top: 33px;""><img src=""images/choice_trial_11.png"" style=""width: 408px; height: 417px; margin-right: 200px;""><img src=""images/choice_trial_2.png"" style=""width: 408px; height: 417px;""></div></div>","j","delaylearn","learning","trial","64333e37b0fca53775bad01a","pjcAE2Em1WZ2ZrygS9ZqsCd8VRA3","3","images/choice_trial_11.png","images/choice_trial_2.png","images/pattern_5.png","j","f","750","11","2","4","0","33","0","1","2","160","","","","",""
"html-keyboard-response","183","386003","0.0-76.0-1.0","","null","<div style=""display: flex; flex-direction: column; align-items: center; margin-top: -40px;""><img src=""images/pattern_5.png"" style=""width: 234px; height: 230px; margin-top: -50px;""><div style=""display: flex; justify-content: space-between; margin-top: 33px;""><img src=""images/choice_trial_2.png"" style=""width: 408px; height: 417px; margin-left:608px;""></div></div>","null","delaylearn","learning","display_response","64333e37b0fca53775bad01a","pjcAE2Em1WZ2ZrygS9ZqsCd8VRA3","","","","","","","","","","","","","","","","","chosen stimuli: images/choice_trial_2.png","","","",""
"html-keyboard-response","184","386759","0.0-76.0-2.0","","null","","null","delaylearn","learning","feedback_duration_window","64333e37b0fca53775bad01a","pjcAE2Em1WZ2ZrygS9ZqsCd8VRA3","","","","","","","","","","","","","","","","","","750","","",""
"html-keyboard-response","185","388274","0.0-76.0-3.0","","null","<div style='margin:auto;width: auto; font-size: 150%'><span style='font-weight: bold; font-size: 100px; color: green;'>+10 points!</span><br><br></div>","null","delaylearn","learning","feedback_image_window","64333e37b0fca53775bad01a","pjcAE2Em1WZ2ZrygS9ZqsCd8VRA3","","","","","","","","","","","","","","","","","","","","",""
"html-keyboard-response","186","390658","0.0-77.0","","null","<div style=""font-size:100px;"">+</div>","null","delaylearn","learning","ITI","64333e37b0fca53775bad01a","pjcAE2Em1WZ2ZrygS9ZqsCd8VRA3","","","","","","","","","","","","","","","","","","","2378","",""
"html-keyboard-response","187","392025","0.0-78.0-0.0","","1364.5","<div style=""display: flex; flex-direction: column; align-items: center; margin-top: -40px;""><img src=""images/pattern_1.png"" style=""width: 234px; height: 230px; margin-top: -50px;""><div style=""display: flex; justify-content: space-between; margin-top: 33px;""><img src=""images/choice_trial_14.png"" style=""width: 408px; height: 417px; margin-right: 200px;""><img src=""images/choice_trial_8.png"" style=""width: 408px; height: 417px;""></div></div>","f","delaylearn","learning","trial","64333e37b0fca53775bad01a","pjcAE2Em1WZ2ZrygS9ZqsCd8VRA3","3","images/choice_trial_14.png","images/choice_trial_8.png","images/pattern_1.png","f","f","7000","14","8","1","0","34","1","1","14","170","","","","",""
"html-keyboard-response","188","393038","0.0-78.0-1.0","","null","<div style=""display: flex; flex-direction: column; align-items: center; margin-top: -40px;""><img src=""images/pattern_1.png"" style=""width: 234px; height: 230px; margin-top: -50px;""><div style=""display: flex; justify-content: space-between; margin-top: 33px;""><img src=""images/choice_trial_14.png"" style=""width: 408px; height: 417px; margin-right: 608px;""></div></div>","null","delaylearn","learning","display_response","64333e37b0fca53775bad01a","pjcAE2Em1WZ2ZrygS9ZqsCd8VRA3","","","","","","","","","","","","","","","","","chosen stimuli: images/choice_trial_14.png","","","",""
"html-keyboard-response","189","400048","0.0-78.0-2.0","","null","","null","delaylearn","learning","feedback_duration_window","64333e37b0fca53775bad01a","pjcAE2Em1WZ2ZrygS9ZqsCd8VRA3","","","","","","","","","","","","","","","","","","7000","","",""
"html-keyboard-response","190","401558","0.0-78.0-3.0","","null","<div style='margin:auto;width: auto; font-size: 150%'><span style='font-weight: bold; font-size: 100px; color: green;'>+10 points!</span><br><br></div>","null","delaylearn","learning","feedback_image_window","64333e37b0fca53775bad01a","pjcAE2Em1WZ2ZrygS9ZqsCd8VRA3","","","","","","","","","","","","","","","","","","","","",""
"html-keyboard-response","191","402073","0.0-79.0-0.0","","null","","null","","","mood_trial_fixation","","","","","","","","","","","","","","","","","","","","","","",""
"lmdlab-html-vas-response","192","405796","0.0-79.0-1.0","","2705","How happy are you right now?","0.6566738904139304","delaylearn","learning","mood_trial","64333e37b0fca53775bad01a","pjcAE2Em1WZ2ZrygS9ZqsCd8VRA3","","","","","","","","","","","","","","","","","","","","[""Very unhappy"",""Very happy""]",""
"html-keyboard-response","193","408089","0.0-80.0","","null","<div style=""font-size:100px;"">+</div>","null","delaylearn","learning","ITI","64333e37b0fca53775bad01a","pjcAE2Em1WZ2ZrygS9ZqsCd8VRA3","","","","","","","","","","","","","","","","","","","2288","",""
"html-keyboard-response","194","409295","0.0-81.0-0.0","","1204.2999999970198","<div style=""display: flex; flex-direction: column; align-items: center; margin-top: -40px;""><img src=""images/pattern_6.png"" style=""width: 234px; height: 230px; margin-top: -50px;""><div style=""display: flex; justify-content: space-between; margin-top: 33px;""><img src=""images/choice_trial_16.png"" style=""width: 408px; height: 417px; margin-right: 200px;""><img src=""images/choice_trial_3.png"" style=""width: 408px; height: 417px;""></div></div>","f","delaylearn","learning","trial","64333e37b0fca53775bad01a","pjcAE2Em1WZ2ZrygS9ZqsCd8VRA3","3","images/choice_trial_16.png","images/choice_trial_3.png","images/pattern_6.png","j","f","750","16","3","5","0","35","1","0","16","170","","","","",""
"html-keyboard-response","195","410304","0.0-81.0-1.0","","null","<div style=""display: flex; flex-direction: column; align-items: center; margin-top: -40px;""><img src=""images/pattern_6.png"" style=""width: 234px; height: 230px; margin-top: -50px;""><div style=""display: flex; justify-content: space-between; margin-top: 33px;""><img src=""images/choice_trial_16.png"" style=""width: 408px; height: 417px; margin-right: 608px;""></div></div>","null","delaylearn","learning","display_response","64333e37b0fca53775bad01a","pjcAE2Em1WZ2ZrygS9ZqsCd8VRA3","","","","","","","","","","","","","","","","","chosen stimuli: images/choice_trial_16.png","","","",""
"html-keyboard-response","196","411058","0.0-81.0-2.0","","null","","null","delaylearn","learning","feedback_duration_window","64333e37b0fca53775bad01a","pjcAE2Em1WZ2ZrygS9ZqsCd8VRA3","","","","","","","","","","","","","","","","","","750","","",""
"html-keyboard-response","197","412565","0.0-81.0-3.0","","null","<div style='margin:auto;width: auto; font-size: 150%'><span style='font-weight: bold; font-size: 100px; color: red;'>0 points!</span><br><br></div>","null","delaylearn","learning","feedback_image_window","64333e37b0fca53775bad01a","pjcAE2Em1WZ2ZrygS9ZqsCd8VRA3","","","","","","","","","","","","","","","","","","","","",""
"html-keyboard-response","198","414135","0.0-82.0","","null","<div style=""font-size:100px;"">+</div>","null","delaylearn","learning","ITI","64333e37b0fca53775bad01a","pjcAE2Em1WZ2ZrygS9ZqsCd8VRA3","","","","","","","","","","","","","","","","","","","1558","",""
"html-keyboard-response","199","415268","0.0-83.0-0.0","","1131.7999999970198","<div style=""display: flex; flex-direction: column; align-items: center; margin-top: -40px;""><img src=""images/pattern_3.png"" style=""width: 234px; height: 230px; margin-top: -50px;""><div style=""display: flex; justify-content: space-between; margin-top: 33px;""><img src=""images/choice_trial_10.png"" style=""width: 408px; height: 417px; margin-right: 200px;""><img src=""images/choice_trial_13.png"" style=""width: 408px; height: 417px;""></div></div>","j","delaylearn","learning","trial","64333e37b0fca53775bad01a","pjcAE2Em1WZ2ZrygS9ZqsCd8VRA3","3","images/choice_trial_10.png","images/choice_trial_13.png","images/pattern_3.png","j","j","7000","10","13","2","1","36","1","1","13","180","","","","",""
"html-keyboard-response","200","416273","0.0-83.0-1.0","","null","<div style=""display: flex; flex-direction: column; align-items: center; margin-top: -40px;""><img src=""images/pattern_3.png"" style=""width: 234px; height: 230px; margin-top: -50px;""><div style=""display: flex; justify-content: space-between; margin-top: 33px;""><img src=""images/choice_trial_13.png"" style=""width: 408px; height: 417px; margin-left:608px;""></div></div>","null","delaylearn","learning","display_response","64333e37b0fca53775bad01a","pjcAE2Em1WZ2ZrygS9ZqsCd8VRA3","","","","","","","","","","","","","","","","","chosen stimuli: images/choice_trial_13.png","","","",""
"html-keyboard-response","201","423288","0.0-83.0-2.0","","null","","null","delaylearn","learning","feedback_duration_window","64333e37b0fca53775bad01a","pjcAE2Em1WZ2ZrygS9ZqsCd8VRA3","","","","","","","","","","","","","","","","","","7000","","",""
"html-keyboard-response","202","424790","0.0-83.0-3.0","","null","<div style='margin:auto;width: auto; font-size: 150%'><span style='font-weight: bold; font-size: 100px; color: green;'>+10 points!</span><br><br></div>","null","delaylearn","learning","feedback_image_window","64333e37b0fca53775bad01a","pjcAE2Em1WZ2ZrygS9ZqsCd8VRA3","","","","","","","","","","","","","","","","","","","","",""
"html-keyboard-response","203","427234","0.0-84.0","","null","<div style=""font-size:100px;"">+</div>","null","delaylearn","learning","ITI","64333e37b0fca53775bad01a","pjcAE2Em1WZ2ZrygS9ZqsCd8VRA3","","","","","","","","","","","","","","","","","","","2440","",""
"html-keyboard-response","204","428378","0.0-85.0-0.0","","1142.9000000059605","<div style=""display: flex; flex-direction: column; align-items: center; margin-top: -40px;""><img src=""images/pattern_4.png"" style=""width: 234px; height: 230px; margin-top: -50px;""><div style=""display: flex; justify-content: space-between; margin-top: 33px;""><img src=""images/choice_trial_9.png"" style=""width: 408px; height: 417px; margin-right: 200px;""><img src=""images/choice_trial_15.png"" style=""width: 408px; height: 417px;""></div></div>","j","delaylearn","learning","trial","64333e37b0fca53775bad01a","pjcAE2Em1WZ2ZrygS9ZqsCd8VRA3","3","images/choice_trial_9.png","images/choice_trial_15.png","images/pattern_4.png","f","j","7000","9","15","3","1","37","1","0","15","180","","","","",""
"html-keyboard-response","205","429389","0.0-85.0-1.0","","null","<div style=""display: flex; flex-direction: column; align-items: center; margin-top: -40px;""><img src=""images/pattern_4.png"" style=""width: 234px; height: 230px; margin-top: -50px;""><div style=""display: flex; justify-content: space-between; margin-top: 33px;""><img src=""images/choice_trial_15.png"" style=""width: 408px; height: 417px; margin-left:608px;""></div></div>","null","delaylearn","learning","display_response","64333e37b0fca53775bad01a","pjcAE2Em1WZ2ZrygS9ZqsCd8VRA3","","","","","","","","","","","","","","","","","chosen stimuli: images/choice_trial_15.png","","","",""
"html-keyboard-response","206","436403","0.0-85.0-2.0","","null","","null","delaylearn","learning","feedback_duration_window","64333e37b0fca53775bad01a","pjcAE2Em1WZ2ZrygS9ZqsCd8VRA3","","","","","","","","","","","","","","","","","","7000","","",""
"html-keyboard-response","207","437905","0.0-85.0-3.0","","null","<div style='margin:auto;width: auto; font-size: 150%'><span style='font-weight: bold; font-size: 100px; color: red;'>0 points!</span><br><br></div>","null","delaylearn","learning","feedback_image_window","64333e37b0fca53775bad01a","pjcAE2Em1WZ2ZrygS9ZqsCd8VRA3","","","","","","","","","","","","","","","","","","","","",""
"html-keyboard-response","208","439758","0.0-86.0","","null","<div style=""font-size:100px;"">+</div>","null","delaylearn","learning","ITI","64333e37b0fca53775bad01a","pjcAE2Em1WZ2ZrygS9ZqsCd8VRA3","","","","","","","","","","","","","","","","","","","1845","",""
"html-keyboard-response","209","441094","0.0-87.0-0.0","","1334.5999999940395","<div style=""display: flex; flex-direction: column; align-items: center; margin-top: -40px;""><img src=""images/pattern_7.png"" style=""width: 234px; height: 230px; margin-top: -50px;""><div style=""display: flex; justify-content: space-between; margin-top: 33px;""><img src=""images/choice_trial_6.png"" style=""width: 408px; height: 417px; margin-right: 200px;""><img src=""images/choice_trial_12.png"" style=""width: 408px; height: 417px;""></div></div>","j","delaylearn","learning","trial","64333e37b0fca53775bad01a","pjcAE2Em1WZ2ZrygS9ZqsCd8VRA3","3","images/choice_trial_6.png","images/choice_trial_12.png","images/pattern_7.png","f","f","750","6","12","6","0","38","0","0","12","180","","","","",""
"html-keyboard-response","210","442109","0.0-87.0-1.0","","null","<div style=""display: flex; flex-direction: column; align-items: center; margin-top: -40px;""><img src=""images/pattern_7.png"" style=""width: 234px; height: 230px; margin-top: -50px;""><div style=""display: flex; justify-content: space-between; margin-top: 33px;""><img src=""images/choice_trial_12.png"" style=""width: 408px; height: 417px; margin-left:608px;""></div></div>","null","delaylearn","learning","display_response","64333e37b0fca53775bad01a","pjcAE2Em1WZ2ZrygS9ZqsCd8VRA3","","","","","","","","","","","","","","","","","chosen stimuli: images/choice_trial_12.png","","","",""
"html-keyboard-response","211","442867","0.0-87.0-2.0","","null","","null","delaylearn","learning","feedback_duration_window","64333e37b0fca53775bad01a","pjcAE2Em1WZ2ZrygS9ZqsCd8VRA3","","","","","","","","","","","","","","","","","","750","","",""
"html-keyboard-response","212","444383","0.0-87.0-3.0","","null","<div style='margin:auto;width: auto; font-size: 150%'><span style='font-weight: bold; font-size: 100px; color: red;'>0 points!</span><br><br></div>","null","delaylearn","learning","feedback_image_window","64333e37b0fca53775bad01a","pjcAE2Em1WZ2ZrygS9ZqsCd8VRA3","","","","","","","","","","","","","","","","","","","","",""
"html-keyboard-response","213","446404","0.0-88.0","","null","<div style=""font-size:100px;"">+</div>","null","delaylearn","learning","ITI","64333e37b0fca53775bad01a","pjcAE2Em1WZ2ZrygS9ZqsCd8VRA3","","","","","","","","","","","","","","","","","","","2019","",""
"html-keyboard-response","214","448083","0.0-89.0-0.0","","1677.1000000089407","<div style=""display: flex; flex-direction: column; align-items: center; margin-top: -40px;""><img src=""images/pattern_1.png"" style=""width: 234px; height: 230px; margin-top: -50px;""><div style=""display: flex; justify-content: space-between; margin-top: 33px;""><img src=""images/choice_trial_14.png"" style=""width: 408px; height: 417px; margin-right: 200px;""><img src=""images/choice_trial_8.png"" style=""width: 408px; height: 417px;""></div></div>","f","delaylearn","learning","trial","64333e37b0fca53775bad01a","pjcAE2Em1WZ2ZrygS9ZqsCd8VRA3","3","images/choice_trial_14.png","images/choice_trial_8.png","images/pattern_1.png","f","f","7000","14","8","1","0","39","1","1","14","190","","","","",""
"html-keyboard-response","215","449088","0.0-89.0-1.0","","null","<div style=""display: flex; flex-direction: column; align-items: center; margin-top: -40px;""><img src=""images/pattern_1.png"" style=""width: 234px; height: 230px; margin-top: -50px;""><div style=""display: flex; justify-content: space-between; margin-top: 33px;""><img src=""images/choice_trial_14.png"" style=""width: 408px; height: 417px; margin-right: 608px;""></div></div>","null","delaylearn","learning","display_response","64333e37b0fca53775bad01a","pjcAE2Em1WZ2ZrygS9ZqsCd8VRA3","","","","","","","","","","","","","","","","","chosen stimuli: images/choice_trial_14.png","","","",""
"html-keyboard-response","216","456097","0.0-89.0-2.0","","null","","null","delaylearn","learning","feedback_duration_window","64333e37b0fca53775bad01a","pjcAE2Em1WZ2ZrygS9ZqsCd8VRA3","","","","","","","","","","","","","","","","","","7000","","",""
"html-keyboard-response","217","457605","0.0-89.0-3.0","","null","<div style='margin:auto;width: auto; font-size: 150%'><span style='font-weight: bold; font-size: 100px; color: green;'>+10 points!</span><br><br></div>","null","delaylearn","learning","feedback_image_window","64333e37b0fca53775bad01a","pjcAE2Em1WZ2ZrygS9ZqsCd8VRA3","","","","","","","","","","","","","","","","","","","","",""
"html-keyboard-response","218","458114","0.0-90.0-0.0","","null","","null","","","mood_trial_fixation","","","","","","","","","","","","","","","","","","","","","","",""
"lmdlab-html-vas-response","219","462231","0.0-90.0-1.0","","3110","How happy are you right now?","0.6191970718185601","delaylearn","learning","mood_trial","64333e37b0fca53775bad01a","pjcAE2Em1WZ2ZrygS9ZqsCd8VRA3","","","","","","","","","","","","","","","","","","","","[""Very unhappy"",""Very happy""]",""
"html-keyboard-response","220","464298","0.0-91.0","","null","<div style=""font-size:100px;"">+</div>","null","delaylearn","learning","ITI","64333e37b0fca53775bad01a","pjcAE2Em1WZ2ZrygS9ZqsCd8VRA3","","","","","","","","","","","","","","","","","","","2051","",""
