"trial_type","trial_index","time_elapsed","internal_node_id","participant","rt","stimulus","response","exp_name","exp_stage","test_part","subjectID","databaseID","counterbal","choice_stimuli_1","choice_stimuli_2","pattern_stimuli","rewarded_answer","correct_answer","feedback_duration_times","stim_left","stim_right","pair","leftright_counter","trial","response_correct","response_rewarded","chosen_stim","counter","displayed_choice","feedback_durations","ITI_duration","labels","rest_warning"
"pavlovia","0","488","0.0-0.0","","","","","","","","","","","","","","","","","","","","","","","","","","","","","",""
"html-keyboard-response","1","3491","0.0-1.0","","null","<div style=""font-size:100px;"">+</div>","null","delaylearn","learning","pre_fixation","60342884b95a3823eaf5fd9b","","","","","","","","","","","","","","","","","","","","","",""
"html-keyboard-response","2","4605","0.0-2.0-0.0","","1110.4000000953674","<div style=""display: flex; flex-direction: column; align-items: center; margin-top: -40px;""><img src=""images/demo_images/pattern_1.png"" style=""width: 234px; height: 230px; margin-top: -50px;""><div style=""display: flex; justify-content: space-between; margin-top: 33px;""><img src=""images/demo_images/choice_trial_2.png"" style=""width: 408px; height: 417px; margin-right: 200px;""><img src=""images/demo_images/choice_trial_1.png"" style=""width: 408px; height: 417px;""></div></div>","f","delaylearn","learning","trial","60342884b95a3823eaf5fd9b","QDuSGB2O0sOKFbNO8JZHSdBXRRp1","4","images/demo_images/choice_trial_2.png","images/demo_images/choice_trial_1.png","images/demo_images/pattern_1.png","j","j","3000","2","1","20","1","1","0","0","2","0","","","","",""
"html-keyboard-response","3","5617","0.0-2.0-1.0","","null","<div style=""display: flex; flex-direction: column; align-items: center; margin-top: -40px;""><img src=""images/demo_images/pattern_1.png"" style=""width: 234px; height: 230px; margin-top: -50px;""><div style=""display: flex; justify-content: space-between; margin-top: 33px;""><img src=""images/demo_images/choice_trial_2.png"" style=""width: 408px; height: 417px; margin-right: 608px;""></div></div>","null","delaylearn","learning","display_response","60342884b95a3823eaf5fd9b","QDuSGB2O0sOKFbNO8JZHSdBXRRp1","","","","","","","","","","","","","","","","","chosen stimuli: images/demo_images/choice_trial_2.png","","","",""
"html-keyboard-response","4","8632","0.0-2.0-2.0","","null","","null","delaylearn","learning","feedback_duration_window","60342884b95a3823eaf5fd9b","QDuSGB2O0sOKFbNO8JZHSdBXRRp1","","","","","","","","","","","","","","","","","","3000","","",""
"html-keyboard-response","5","10143","0.0-2.0-3.0","","null","<div style='margin:auto;width: auto; font-size: 150%'><span style='font-weight: bold; font-size: 100px; color: red;'>0 points!</span><br><br></div>","null","delaylearn","learning","feedback_image_window","60342884b95a3823eaf5fd9b","QDuSGB2O0sOKFbNO8JZHSdBXRRp1","","","","","","","","","","","","","","","","","","","","",""
"html-keyboard-response","6","11942","0.0-3.0","","null","<div style=""font-size:100px;"">+</div>","null","delaylearn","learning","ITI","60342884b95a3823eaf5fd9b","QDuSGB2O0sOKFbNO8JZHSdBXRRp1","","","","","","","","","","","","","","","","","","","1787","",""
"html-keyboard-response","7","12623","0.0-4.0-0.0","","675.1000001430511","<div style=""display: flex; flex-direction: column; align-items: center; margin-top: -40px;""><img src=""images/demo_images/pattern_1.png"" style=""width: 234px; height: 230px; margin-top: -50px;""><div style=""display: flex; justify-content: space-between; margin-top: 33px;""><img src=""images/demo_images/choice_trial_2.png"" style=""width: 408px; height: 417px; margin-right: 200px;""><img src=""images/demo_images/choice_trial_1.png"" style=""width: 408px; height: 417px;""></div></div>","j","delaylearn","learning","trial","60342884b95a3823eaf5fd9b","QDuSGB2O0sOKFbNO8JZHSdBXRRp1","4","images/demo_images/choice_trial_2.png","images/demo_images/choice_trial_1.png","images/demo_images/pattern_1.png","j","j","3000","2","1","20","1","2","1","1","1","10","","","","",""
"html-keyboard-response","8","13626","0.0-4.0-1.0","","null","<div style=""display: flex; flex-direction: column; align-items: center; margin-top: -40px;""><img src=""images/demo_images/pattern_1.png"" style=""width: 234px; height: 230px; margin-top: -50px;""><div style=""display: flex; justify-content: space-between; margin-top: 33px;""><img src=""images/demo_images/choice_trial_1.png"" style=""width: 408px; height: 417px; margin-left:608px;""></div></div>","null","delaylearn","learning","display_response","60342884b95a3823eaf5fd9b","QDuSGB2O0sOKFbNO8JZHSdBXRRp1","","","","","","","","","","","","","","","","","chosen stimuli: images/demo_images/choice_trial_1.png","","","",""
"html-keyboard-response","9","16636","0.0-4.0-2.0","","null","","null","delaylearn","learning","feedback_duration_window","60342884b95a3823eaf5fd9b","QDuSGB2O0sOKFbNO8JZHSdBXRRp1","","","","","","","","","","","","","","","","","","3000","","",""
"html-keyboard-response","10","18143","0.0-4.0-3.0","","null","<div style='margin:auto;width: auto; font-size: 150%'><span style='font-weight: bold; font-size: 100px; color: green;'>+10 points!</span><br><br></div>","null","delaylearn","learning","feedback_image_window","60342884b95a3823eaf5fd9b","QDuSGB2O0sOKFbNO8JZHSdBXRRp1","","","","","","","","","","","","","","","","","","","","",""
"html-keyboard-response","11","20202","0.0-5.0","","null","<div style=""font-size:100px;"">+</div>","null","delaylearn","learning","ITI","60342884b95a3823eaf5fd9b","QDuSGB2O0sOKFbNO8JZHSdBXRRp1","","","","","","","","","","","","","","","","","","","2055","",""
"html-keyboard-response","12","21084","0.0-6.0-0.0","","879.4000000953674","<div style=""display: flex; flex-direction: column; align-items: center; margin-top: -40px;""><img src=""images/demo_images/pattern_1.png"" style=""width: 234px; height: 230px; margin-top: -50px;""><div style=""display: flex; justify-content: space-between; margin-top: 33px;""><img src=""images/demo_images/choice_trial_1.png"" style=""width: 408px; height: 417px; margin-right: 200px;""><img src=""images/demo_images/choice_trial_2.png"" style=""width: 408px; height: 417px;""></div></div>","f","delaylearn","learning","trial","60342884b95a3823eaf5fd9b","QDuSGB2O0sOKFbNO8JZHSdBXRRp1","4","images/demo_images/choice_trial_1.png","images/demo_images/choice_trial_2.png","images/demo_images/pattern_1.png","j","f","3000","1","2","20","0","3","1","0","1","10","","","","",""
"html-keyboard-response","13","22094","0.0-6.0-1.0","","null","<div style=""display: flex; flex-direction: column; align-items: center; margin-top: -40px;""><img src=""images/demo_images/pattern_1.png"" style=""width: 234px; height: 230px; margin-top: -50px;""><div style=""display: flex; justify-content: space-between; margin-top: 33px;""><img src=""images/demo_images/choice_trial_1.png"" style=""width: 408px; height: 417px; margin-right: 608px;""></div></div>","null","delaylearn","learning","display_response","60342884b95a3823eaf5fd9b","QDuSGB2O0sOKFbNO8JZHSdBXRRp1","","","","","","","","","","","","","","","","","chosen stimuli: images/demo_images/choice_trial_1.png","","","",""
"html-keyboard-response","14","25103","0.0-6.0-2.0","","null","","null","delaylearn","learning","feedback_duration_window","60342884b95a3823eaf5fd9b","QDuSGB2O0sOKFbNO8JZHSdBXRRp1","","","","","","","","","","","","","","","","","","3000","","",""
"html-keyboard-response","15","26608","0.0-6.0-3.0","","null","<div style='margin:auto;width: auto; font-size: 150%'><span style='font-weight: bold; font-size: 100px; color: red;'>0 points!</span><br><br></div>","null","delaylearn","learning","feedback_image_window","60342884b95a3823eaf5fd9b","QDuSGB2O0sOKFbNO8JZHSdBXRRp1","","","","","","","","","","","","","","","","","","","","",""
"html-keyboard-response","16","28462","0.0-7.0","","null","<div style=""font-size:100px;"">+</div>","null","delaylearn","learning","ITI","60342884b95a3823eaf5fd9b","QDuSGB2O0sOKFbNO8JZHSdBXRRp1","","","","","","","","","","","","","","","","","","","1838","",""
"html-keyboard-response","17","29487","0.0-8.0-0.0","","1022","<div style=""display: flex; flex-direction: column; align-items: center; margin-top: -40px;""><img src=""images/demo_images/pattern_1.png"" style=""width: 234px; height: 230px; margin-top: -50px;""><div style=""display: flex; justify-content: space-between; margin-top: 33px;""><img src=""images/demo_images/choice_trial_1.png"" style=""width: 408px; height: 417px; margin-right: 200px;""><img src=""images/demo_images/choice_trial_2.png"" style=""width: 408px; height: 417px;""></div></div>","j","delaylearn","learning","trial","60342884b95a3823eaf5fd9b","QDuSGB2O0sOKFbNO8JZHSdBXRRp1","4","images/demo_images/choice_trial_1.png","images/demo_images/choice_trial_2.png","images/demo_images/pattern_1.png","f","f","3000","1","2","20","0","4","0","0","2","10","","","","",""
"html-keyboard-response","18","30491","0.0-8.0-1.0","","null","<div style=""display: flex; flex-direction: column; align-items: center; margin-top: -40px;""><img src=""images/demo_images/pattern_1.png"" style=""width: 234px; height: 230px; margin-top: -50px;""><div style=""display: flex; justify-content: space-between; margin-top: 33px;""><img src=""images/demo_images/choice_trial_2.png"" style=""width: 408px; height: 417px; margin-left:608px;""></div></div>","null","delaylearn","learning","display_response","60342884b95a3823eaf5fd9b","QDuSGB2O0sOKFbNO8JZHSdBXRRp1","","","","","","","","","","","","","","","","","chosen stimuli: images/demo_images/choice_trial_2.png","","","",""
"html-keyboard-response","19","33496","0.0-8.0-2.0","","null","","null","delaylearn","learning","feedback_duration_window","60342884b95a3823eaf5fd9b","QDuSGB2O0sOKFbNO8JZHSdBXRRp1","","","","","","","","","","","","","","","","","","3000","","",""
"html-keyboard-response","20","35000","0.0-8.0-3.0","","null","<div style='margin:auto;width: auto; font-size: 150%'><span style='font-weight: bold; font-size: 100px; color: red;'>0 points!</span><br><br></div>","null","delaylearn","learning","feedback_image_window","60342884b95a3823eaf5fd9b","QDuSGB2O0sOKFbNO8JZHSdBXRRp1","","","","","","","","","","","","","","","","","","","","",""
"html-keyboard-response","21","35505","0.0-9.0-0.0","","null","","null","","","mood_trial_fixation","","","","","","","","","","","","","","","","","","","","","","",""
"lmdlab-html-vas-response","22","43213","0.0-9.0-1.0","","6695","How happy are you right now?","0.47337962962962965","delaylearn","learning","mood_trial","60342884b95a3823eaf5fd9b","QDuSGB2O0sOKFbNO8JZHSdBXRRp1","","","","","","","","","","","","","","","","","","","","[""Very unhappy"",""Very happy""]",""
"html-keyboard-response","23","45461","0.0-10.0","","null","<div style=""font-size:100px;"">+</div>","null","delaylearn","learning","ITI","60342884b95a3823eaf5fd9b","QDuSGB2O0sOKFbNO8JZHSdBXRRp1","","","","","","","","","","","","","","","","","","","2238","",""
"html-keyboard-response","24","46150","0.0-11.0-0.0","","686.5","<div style=""display: flex; flex-direction: column; align-items: center; margin-top: -40px;""><img src=""images/demo_images/pattern_1.png"" style=""width: 234px; height: 230px; margin-top: -50px;""><div style=""display: flex; justify-content: space-between; margin-top: 33px;""><img src=""images/demo_images/choice_trial_2.png"" style=""width: 408px; height: 417px; margin-right: 200px;""><img src=""images/demo_images/choice_trial_1.png"" style=""width: 408px; height: 417px;""></div></div>","j","delaylearn","learning","trial","60342884b95a3823eaf5fd9b","QDuSGB2O0sOKFbNO8JZHSdBXRRp1","4","images/demo_images/choice_trial_2.png","images/demo_images/choice_trial_1.png","images/demo_images/pattern_1.png","j","j","3000","2","1","20","1","5","1","1","1","20","","","","",""
"html-keyboard-response","25","47161","0.0-11.0-1.0","","null","<div style=""display: flex; flex-direction: column; align-items: center; margin-top: -40px;""><img src=""images/demo_images/pattern_1.png"" style=""width: 234px; height: 230px; margin-top: -50px;""><div style=""display: flex; justify-content: space-between; margin-top: 33px;""><img src=""images/demo_images/choice_trial_1.png"" style=""width: 408px; height: 417px; margin-left:608px;""></div></div>","null","delaylearn","learning","display_response","60342884b95a3823eaf5fd9b","QDuSGB2O0sOKFbNO8JZHSdBXRRp1","","","","","","","","","","","","","","","","","chosen stimuli: images/demo_images/choice_trial_1.png","","","",""
"html-keyboard-response","26","50167","0.0-11.0-2.0","","null","","null","delaylearn","learning","feedback_duration_window","60342884b95a3823eaf5fd9b","QDuSGB2O0sOKFbNO8JZHSdBXRRp1","","","","","","","","","","","","","","","","","","3000","","",""
"html-keyboard-response","27","51677","0.0-11.0-3.0","","null","<div style='margin:auto;width: auto; font-size: 150%'><span style='font-weight: bold; font-size: 100px; color: green;'>+10 points!</span><br><br></div>","null","delaylearn","learning","feedback_image_window","60342884b95a3823eaf5fd9b","QDuSGB2O0sOKFbNO8JZHSdBXRRp1","","","","","","","","","","","","","","","","","","","","",""
"html-keyboard-response","28","54069","0.0-12.0","","null","<div style=""font-size:100px;"">+</div>","null","delaylearn","learning","ITI","60342884b95a3823eaf5fd9b","QDuSGB2O0sOKFbNO8JZHSdBXRRp1","","","","","","","","","","","","","","","","","","","2376","",""
"html-keyboard-response","29","55629","0.0-13.0-0.0","","1556.5","<div style=""display: flex; flex-direction: column; align-items: center; margin-top: -40px;""><img src=""images/demo_images/pattern_1.png"" style=""width: 234px; height: 230px; margin-top: -50px;""><div style=""display: flex; justify-content: space-between; margin-top: 33px;""><img src=""images/demo_images/choice_trial_1.png"" style=""width: 408px; height: 417px; margin-right: 200px;""><img src=""images/demo_images/choice_trial_2.png"" style=""width: 408px; height: 417px;""></div></div>","f","delaylearn","learning","trial","60342884b95a3823eaf5fd9b","QDuSGB2O0sOKFbNO8JZHSdBXRRp1","4","images/demo_images/choice_trial_1.png","images/demo_images/choice_trial_2.png","images/demo_images/pattern_1.png","f","f","3000","1","2","20","0","6","1","1","1","30","","","","",""
"html-keyboard-response","30","56642","0.0-13.0-1.0","","null","<div style=""display: flex; flex-direction: column; align-items: center; margin-top: -40px;""><img src=""images/demo_images/pattern_1.png"" style=""width: 234px; height: 230px; margin-top: -50px;""><div style=""display: flex; justify-content: space-between; margin-top: 33px;""><img src=""images/demo_images/choice_trial_1.png"" style=""width: 408px; height: 417px; margin-right: 608px;""></div></div>","null","delaylearn","learning","display_response","60342884b95a3823eaf5fd9b","QDuSGB2O0sOKFbNO8JZHSdBXRRp1","","","","","","","","","","","","","","","","","chosen stimuli: images/demo_images/choice_trial_1.png","","","",""
"html-keyboard-response","31","59656","0.0-13.0-2.0","","null","","null","delaylearn","learning","feedback_duration_window","60342884b95a3823eaf5fd9b","QDuSGB2O0sOKFbNO8JZHSdBXRRp1","","","","","","","","","","","","","","","","","","3000","","",""
"html-keyboard-response","32","61163","0.0-13.0-3.0","","null","<div style='margin:auto;width: auto; font-size: 150%'><span style='font-weight: bold; font-size: 100px; color: green;'>+10 points!</span><br><br></div>","null","delaylearn","learning","feedback_image_window","60342884b95a3823eaf5fd9b","QDuSGB2O0sOKFbNO8JZHSdBXRRp1","","","","","","","","","","","","","","","","","","","","",""
"html-keyboard-response","33","63111","0.0-14.0","","null","<div style=""font-size:100px;"">+</div>","null","delaylearn","learning","ITI","60342884b95a3823eaf5fd9b","QDuSGB2O0sOKFbNO8JZHSdBXRRp1","","","","","","","","","","","","","","","","","","","1932","",""
"html-keyboard-response","34","64069","0.0-15.0-0.0","","956","<div style=""display: flex; flex-direction: column; align-items: center; margin-top: -40px;""><img src=""images/demo_images/pattern_1.png"" style=""width: 234px; height: 230px; margin-top: -50px;""><div style=""display: flex; justify-content: space-between; margin-top: 33px;""><img src=""images/demo_images/choice_trial_2.png"" style=""width: 408px; height: 417px; margin-right: 200px;""><img src=""images/demo_images/choice_trial_1.png"" style=""width: 408px; height: 417px;""></div></div>","j","delaylearn","learning","trial","60342884b95a3823eaf5fd9b","QDuSGB2O0sOKFbNO8JZHSdBXRRp1","4","images/demo_images/choice_trial_2.png","images/demo_images/choice_trial_1.png","images/demo_images/pattern_1.png","j","j","3000","2","1","20","1","7","1","1","1","40","","","","",""
"html-keyboard-response","35","65084","0.0-15.0-1.0","","null","<div style=""display: flex; flex-direction: column; align-items: center; margin-top: -40px;""><img src=""images/demo_images/pattern_1.png"" style=""width: 234px; height: 230px; margin-top: -50px;""><div style=""display: flex; justify-content: space-between; margin-top: 33px;""><img src=""images/demo_images/choice_trial_1.png"" style=""width: 408px; height: 417px; margin-left:608px;""></div></div>","null","delaylearn","learning","display_response","60342884b95a3823eaf5fd9b","QDuSGB2O0sOKFbNO8JZHSdBXRRp1","","","","","","","","","","","","","","","","","chosen stimuli: images/demo_images/choice_trial_1.png","","","",""
"html-keyboard-response","36","68098","0.0-15.0-2.0","","null","","null","delaylearn","learning","feedback_duration_window","60342884b95a3823eaf5fd9b","QDuSGB2O0sOKFbNO8JZHSdBXRRp1","","","","","","","","","","","","","","","","","","3000","","",""
"html-keyboard-response","37","69604","0.0-15.0-3.0","","null","<div style='margin:auto;width: auto; font-size: 150%'><span style='font-weight: bold; font-size: 100px; color: green;'>+10 points!</span><br><br></div>","null","delaylearn","learning","feedback_image_window","60342884b95a3823eaf5fd9b","QDuSGB2O0sOKFbNO8JZHSdBXRRp1","","","","","","","","","","","","","","","","","","","","",""
"html-keyboard-response","38","71828","0.0-16.0","","null","<div style=""font-size:100px;"">+</div>","null","delaylearn","learning","ITI","60342884b95a3823eaf5fd9b","QDuSGB2O0sOKFbNO8JZHSdBXRRp1","","","","","","","","","","","","","","","","","","","2220","",""
"html-keyboard-response","39","72399","0.0-17.0-0.0","","567.7999999523163","<div style=""display: flex; flex-direction: column; align-items: center; margin-top: -40px;""><img src=""images/demo_images/pattern_1.png"" style=""width: 234px; height: 230px; margin-top: -50px;""><div style=""display: flex; justify-content: space-between; margin-top: 33px;""><img src=""images/demo_images/choice_trial_1.png"" style=""width: 408px; height: 417px; margin-right: 200px;""><img src=""images/demo_images/choice_trial_2.png"" style=""width: 408px; height: 417px;""></div></div>","f","delaylearn","learning","trial","60342884b95a3823eaf5fd9b","QDuSGB2O0sOKFbNO8JZHSdBXRRp1","4","images/demo_images/choice_trial_1.png","images/demo_images/choice_trial_2.png","images/demo_images/pattern_1.png","f","f","3000","1","2","20","0","8","1","1","1","50","","","","",""
"html-keyboard-response","40","73406","0.0-17.0-1.0","","null","<div style=""display: flex; flex-direction: column; align-items: center; margin-top: -40px;""><img src=""images/demo_images/pattern_1.png"" style=""width: 234px; height: 230px; margin-top: -50px;""><div style=""display: flex; justify-content: space-between; margin-top: 33px;""><img src=""images/demo_images/choice_trial_1.png"" style=""width: 408px; height: 417px; margin-right: 608px;""></div></div>","null","delaylearn","learning","display_response","60342884b95a3823eaf5fd9b","QDuSGB2O0sOKFbNO8JZHSdBXRRp1","","","","","","","","","","","","","","","","","chosen stimuli: images/demo_images/choice_trial_1.png","","","",""
"html-keyboard-response","41","76418","0.0-17.0-2.0","","null","","null","delaylearn","learning","feedback_duration_window","60342884b95a3823eaf5fd9b","QDuSGB2O0sOKFbNO8JZHSdBXRRp1","","","","","","","","","","","","","","","","","","3000","","",""
"html-keyboard-response","42","77926","0.0-17.0-3.0","","null","<div style='margin:auto;width: auto; font-size: 150%'><span style='font-weight: bold; font-size: 100px; color: green;'>+10 points!</span><br><br></div>","null","delaylearn","learning","feedback_image_window","60342884b95a3823eaf5fd9b","QDuSGB2O0sOKFbNO8JZHSdBXRRp1","","","","","","","","","","","","","","","","","","","","",""
"html-button-response","43","86765","0.0-18.0","","8837.799999952316","
  <div style=""display: flex; align-items: center; justify-content: center; height: 80vh;"">
  <div>
          <img src=""images/inst_demo_finish.png"" style=""width: 80vw; height:auto;"">
          <br><br>
      </div>
      <br><br>
  </div>","0","","","","","","","","","","","","","","","","","","","","","","","","","",""
"html-keyboard-response","44","90750","0.0-19.0","","3984.5","
  <div style=""display: flex; align-items: center; justify-content: center; height: 80vh;"">
  <div>
          <img src=""images/inst_6.png"" style=""width: 80vw; height:auto;"">
          <br><br>
      </div>
      <br><br>
  </div>","f","","","","","","","","","","","","","","","","","","","","","","","","","",""
"html-keyboard-response","45","93759","0.0-20.0","","null","<div style=""font-size:100px;"">+</div>","null","delaylearn","learning","pre_fixation","60342884b95a3823eaf5fd9b","","","","","","","","","","","","","","","","","","","","","",""
"html-keyboard-response","46","95412","0.0-21.0","","null","<div style=""font-size:100px;"">+</div>","null","delaylearn","learning","ITI","60342884b95a3823eaf5fd9b","QDuSGB2O0sOKFbNO8JZHSdBXRRp1","","","","","","","","","","","","","","","","","","","1649","",""
"html-keyboard-response","47","96638","0.0-22.0-0.0","","1224.3999998569489","<div style=""display: flex; flex-direction: column; align-items: center; margin-top: -40px;""><img src=""images/pattern_3.png"" style=""width: 234px; height: 230px; margin-top: -50px;""><div style=""display: flex; justify-content: space-between; margin-top: 33px;""><img src=""images/choice_trial_16.png"" style=""width: 408px; height: 417px; margin-right: 200px;""><img src=""images/choice_trial_6.png"" style=""width: 408px; height: 417px;""></div></div>","j","delaylearn","learning","trial","60342884b95a3823eaf5fd9b","QDuSGB2O0sOKFbNO8JZHSdBXRRp1","4","images/choice_trial_16.png","images/choice_trial_6.png","images/pattern_3.png","f","f","7000","16","6","2","0","9","0","0","6","50","","","","",""
"html-keyboard-response","48","97652","0.0-22.0-1.0","","null","<div style=""display: flex; flex-direction: column; align-items: center; margin-top: -40px;""><img src=""images/pattern_3.png"" style=""width: 234px; height: 230px; margin-top: -50px;""><div style=""display: flex; justify-content: space-between; margin-top: 33px;""><img src=""images/choice_trial_6.png"" style=""width: 408px; height: 417px; margin-left:608px;""></div></div>","null","delaylearn","learning","display_response","60342884b95a3823eaf5fd9b","QDuSGB2O0sOKFbNO8JZHSdBXRRp1","","","","","","","","","","","","","","","","","chosen stimuli: images/choice_trial_6.png","","","",""
"html-keyboard-response","49","104663","0.0-22.0-2.0","","null","","null","delaylearn","learning","feedback_duration_window","60342884b95a3823eaf5fd9b","QDuSGB2O0sOKFbNO8JZHSdBXRRp1","","","","","","","","","","","","","","","","","","7000","","",""
"html-keyboard-response","50","106170","0.0-22.0-3.0","","null","<div style='margin:auto;width: auto; font-size: 150%'><span style='font-weight: bold; font-size: 100px; color: red;'>0 points!</span><br><br></div>","null","delaylearn","learning","feedback_image_window","60342884b95a3823eaf5fd9b","QDuSGB2O0sOKFbNO8JZHSdBXRRp1","","","","","","","","","","","","","","","","","","","","",""
"html-keyboard-response","51","107992","0.0-23.0","","null","<div style=""font-size:100px;"">+</div>","null","delaylearn","learning","ITI","60342884b95a3823eaf5fd9b","QDuSGB2O0sOKFbNO8JZHSdBXRRp1","","","","","","","","","","","","","","","","","","","1807","",""
"html-keyboard-response","52","109317","0.0-24.0-0.0","","1324.6000001430511","<div style=""display: flex; flex-direction: column; align-items: center; margin-top: -40px;""><img src=""images/pattern_7.png"" style=""width: 234px; height: 230px; margin-top: -50px;""><div style=""display: flex; justify-content: space-between; margin-top: 33px;""><img src=""images/choice_trial_4.png"" style=""width: 408px; height: 417px; margin-right: 200px;""><img src=""images/choice_trial_13.png"" style=""width: 408px; height: 417px;""></div></div>","j","delaylearn","learning","trial","60342884b95a3823eaf5fd9b","QDuSGB2O0sOKFbNO8JZHSdBXRRp1","4","images/choice_trial_4.png","images/choice_trial_13.png","images/pattern_7.png","j","j","750","4","13","6","1","10","1","1","13","60","","","","",""
"html-keyboard-response","53","110325","0.0-24.0-1.0","","null","<div style=""display: flex; flex-direction: column; align-items: center; margin-top: -40px;""><img src=""images/pattern_7.png"" style=""width: 234px; height: 230px; margin-top: -50px;""><div style=""display: flex; justify-content: space-between; margin-top: 33px;""><img src=""images/choice_trial_13.png"" style=""width: 408px; height: 417px; margin-left:608px;""></div></div>","null","delaylearn","learning","display_response","60342884b95a3823eaf5fd9b","QDuSGB2O0sOKFbNO8JZHSdBXRRp1","","","","","","","","","","","","","","","","","chosen stimuli: images/choice_trial_13.png","","","",""
"html-keyboard-response","54","111080","0.0-24.0-2.0","","null","","null","delaylearn","learning","feedback_duration_window","60342884b95a3823eaf5fd9b","QDuSGB2O0sOKFbNO8JZHSdBXRRp1","","","","","","","","","","","","","","","","","","750","","",""
"html-keyboard-response","55","112588","0.0-24.0-3.0","","null","<div style='margin:auto;width: auto; font-size: 150%'><span style='font-weight: bold; font-size: 100px; color: green;'>+10 points!</span><br><br></div>","null","delaylearn","learning","feedback_image_window","60342884b95a3823eaf5fd9b","QDuSGB2O0sOKFbNO8JZHSdBXRRp1","","","","","","","","","","","","","","","","","","","","",""
"html-keyboard-response","56","114751","0.0-25.0","","null","<div style=""font-size:100px;"">+</div>","null","delaylearn","learning","ITI","60342884b95a3823eaf5fd9b","QDuSGB2O0sOKFbNO8JZHSdBXRRp1","","","","","","","","","","","","","","","","","","","2153","",""
"html-keyboard-response","57","116286","0.0-26.0-0.0","","1532.2999999523163","<div style=""display: flex; flex-direction: column; align-items: center; margin-top: -40px;""><img src=""images/pattern_4.png"" style=""width: 234px; height: 230px; margin-top: -50px;""><div style=""display: flex; justify-content: space-between; margin-top: 33px;""><img src=""images/choice_trial_8.png"" style=""width: 408px; height: 417px; margin-right: 200px;""><img src=""images/choice_trial_7.png"" style=""width: 408px; height: 417px;""></div></div>","f","delaylearn","learning","trial","60342884b95a3823eaf5fd9b","QDuSGB2O0sOKFbNO8JZHSdBXRRp1","4","images/choice_trial_8.png","images/choice_trial_7.png","images/pattern_4.png","f","f","7000","8","7","3","0","11","1","1","8","70","","","","",""
"html-keyboard-response","58","117294","0.0-26.0-1.0","","null","<div style=""display: flex; flex-direction: column; align-items: center; margin-top: -40px;""><img src=""images/pattern_4.png"" style=""width: 234px; height: 230px; margin-top: -50px;""><div style=""display: flex; justify-content: space-between; margin-top: 33px;""><img src=""images/choice_trial_8.png"" style=""width: 408px; height: 417px; margin-right: 608px;""></div></div>","null","delaylearn","learning","display_response","60342884b95a3823eaf5fd9b","QDuSGB2O0sOKFbNO8JZHSdBXRRp1","","","","","","","","","","","","","","","","","chosen stimuli: images/choice_trial_8.png","","","",""
"html-keyboard-response","59","124307","0.0-26.0-2.0","","null","","null","delaylearn","learning","feedback_duration_window","60342884b95a3823eaf5fd9b","QDuSGB2O0sOKFbNO8JZHSdBXRRp1","","","","","","","","","","","","","","","","","","7000","","",""
"html-keyboard-response","60","125812","0.0-26.0-3.0","","null","<div style='margin:auto;width: auto; font-size: 150%'><span style='font-weight: bold; font-size: 100px; color: green;'>+10 points!</span><br><br></div>","null","delaylearn","learning","feedback_image_window","60342884b95a3823eaf5fd9b","QDuSGB2O0sOKFbNO8JZHSdBXRRp1","","","","","","","","","","","","","","","","","","","","",""
"html-keyboard-response","61","127819","0.0-27.0","","null","<div style=""font-size:100px;"">+</div>","null","delaylearn","learning","ITI","60342884b95a3823eaf5fd9b","QDuSGB2O0sOKFbNO8JZHSdBXRRp1","","","","","","","","","","","","","","","","","","","1996","",""
"html-keyboard-response","62","129047","0.0-28.0-0.0","","1224.6000001430511","<div style=""display: flex; flex-direction: column; align-items: center; margin-top: -40px;""><img src=""images/pattern_5.png"" style=""width: 234px; height: 230px; margin-top: -50px;""><div style=""display: flex; justify-content: space-between; margin-top: 33px;""><img src=""images/choice_trial_15.png"" style=""width: 408px; height: 417px; margin-right: 200px;""><img src=""images/choice_trial_5.png"" style=""width: 408px; height: 417px;""></div></div>","j","delaylearn","learning","trial","60342884b95a3823eaf5fd9b","QDuSGB2O0sOKFbNO8JZHSdBXRRp1","4","images/choice_trial_15.png","images/choice_trial_5.png","images/pattern_5.png","j","j","750","15","5","4","1","12","1","1","5","80","","","","",""
"html-keyboard-response","63","130057","0.0-28.0-1.0","","null","<div style=""display: flex; flex-direction: column; align-items: center; margin-top: -40px;""><img src=""images/pattern_5.png"" style=""width: 234px; height: 230px; margin-top: -50px;""><div style=""display: flex; justify-content: space-between; margin-top: 33px;""><img src=""images/choice_trial_5.png"" style=""width: 408px; height: 417px; margin-left:608px;""></div></div>","null","delaylearn","learning","display_response","60342884b95a3823eaf5fd9b","QDuSGB2O0sOKFbNO8JZHSdBXRRp1","","","","","","","","","","","","","","","","","chosen stimuli: images/choice_trial_5.png","","","",""
"html-keyboard-response","64","130824","0.0-28.0-2.0","","null","","null","delaylearn","learning","feedback_duration_window","60342884b95a3823eaf5fd9b","QDuSGB2O0sOKFbNO8JZHSdBXRRp1","","","","","","","","","","","","","","","","","","750","","",""
"html-keyboard-response","65","132330","0.0-28.0-3.0","","null","<div style='margin:auto;width: auto; font-size: 150%'><span style='font-weight: bold; font-size: 100px; color: green;'>+10 points!</span><br><br></div>","null","delaylearn","learning","feedback_image_window","60342884b95a3823eaf5fd9b","QDuSGB2O0sOKFbNO8JZHSdBXRRp1","","","","","","","","","","","","","","","","","","","","",""
"html-keyboard-response","66","134817","0.0-29.0","","null","<div style=""font-size:100px;"">+</div>","null","delaylearn","learning","ITI","60342884b95a3823eaf5fd9b","QDuSGB2O0sOKFbNO8JZHSdBXRRp1","","","","","","","","","","","","","","","","","","","2476","",""
"html-keyboard-response","67","135901","0.0-30.0-0.0","","1081.3999998569489","<div style=""display: flex; flex-direction: column; align-items: center; margin-top: -40px;""><img src=""images/pattern_6.png"" style=""width: 234px; height: 230px; margin-top: -50px;""><div style=""display: flex; justify-content: space-between; margin-top: 33px;""><img src=""images/choice_trial_10.png"" style=""width: 408px; height: 417px; margin-right: 200px;""><img src=""images/choice_trial_3.png"" style=""width: 408px; height: 417px;""></div></div>","j","delaylearn","learning","trial","60342884b95a3823eaf5fd9b","QDuSGB2O0sOKFbNO8JZHSdBXRRp1","4","images/choice_trial_10.png","images/choice_trial_3.png","images/pattern_6.png","j","f","750","10","3","5","0","13","0","1","3","90","","","","",""
"html-keyboard-response","68","136912","0.0-30.0-1.0","","null","<div style=""display: flex; flex-direction: column; align-items: center; margin-top: -40px;""><img src=""images/pattern_6.png"" style=""width: 234px; height: 230px; margin-top: -50px;""><div style=""display: flex; justify-content: space-between; margin-top: 33px;""><img src=""images/choice_trial_3.png"" style=""width: 408px; height: 417px; margin-left:608px;""></div></div>","null","delaylearn","learning","display_response","60342884b95a3823eaf5fd9b","QDuSGB2O0sOKFbNO8JZHSdBXRRp1","","","","","","","","","","","","","","","","","chosen stimuli: images/choice_trial_3.png","","","",""
"html-keyboard-response","69","137666","0.0-30.0-2.0","","null","","null","delaylearn","learning","feedback_duration_window","60342884b95a3823eaf5fd9b","QDuSGB2O0sOKFbNO8JZHSdBXRRp1","","","","","","","","","","","","","","","","","","750","","",""
"html-keyboard-response","70","139174","0.0-30.0-3.0","","null","<div style='margin:auto;width: auto; font-size: 150%'><span style='font-weight: bold; font-size: 100px; color: green;'>+10 points!</span><br><br></div>","null","delaylearn","learning","feedback_image_window","60342884b95a3823eaf5fd9b","QDuSGB2O0sOKFbNO8JZHSdBXRRp1","","","","","","","","","","","","","","","","","","","","",""
"html-keyboard-response","71","139679","0.0-31.0-0.0","","null","","null","","","mood_trial_fixation","","","","","","","","","","","","","","","","","","","","","","",""
"lmdlab-html-vas-response","72","144535","0.0-31.0-1.0","","3845","How happy are you right now?","0.8958333333333334","delaylearn","learning","mood_trial","60342884b95a3823eaf5fd9b","QDuSGB2O0sOKFbNO8JZHSdBXRRp1","","","","","","","","","","","","","","","","","","","","[""Very unhappy"",""Very happy""]",""
"html-keyboard-response","73","146469","0.0-32.0","","null","<div style=""font-size:100px;"">+</div>","null","delaylearn","learning","ITI","60342884b95a3823eaf5fd9b","QDuSGB2O0sOKFbNO8JZHSdBXRRp1","","","","","","","","","","","","","","","","","","","1919","",""
"html-keyboard-response","74","147518","0.0-33.0-0.0","","1046.7000000476837","<div style=""display: flex; flex-direction: column; align-items: center; margin-top: -40px;""><img src=""images/pattern_1.png"" style=""width: 234px; height: 230px; margin-top: -50px;""><div style=""display: flex; justify-content: space-between; margin-top: 33px;""><img src=""images/choice_trial_9.png"" style=""width: 408px; height: 417px; margin-right: 200px;""><img src=""images/choice_trial_1.png"" style=""width: 408px; height: 417px;""></div></div>","f","delaylearn","learning","trial","60342884b95a3823eaf5fd9b","QDuSGB2O0sOKFbNO8JZHSdBXRRp1","4","images/choice_trial_9.png","images/choice_trial_1.png","images/pattern_1.png","j","j","7000","9","1","1","1","14","0","0","9","90","","","","",""
"html-keyboard-response","75","148522","0.0-33.0-1.0","","null","<div style=""display: flex; flex-direction: column; align-items: center; margin-top: -40px;""><img src=""images/pattern_1.png"" style=""width: 234px; height: 230px; margin-top: -50px;""><div style=""display: flex; justify-content: space-between; margin-top: 33px;""><img src=""images/choice_trial_9.png"" style=""width: 408px; height: 417px; margin-right: 608px;""></div></div>","null","delaylearn","learning","display_response","60342884b95a3823eaf5fd9b","QDuSGB2O0sOKFbNO8JZHSdBXRRp1","","","","","","","","","","","","","","","","","chosen stimuli: images/choice_trial_9.png","","","",""
"html-keyboard-response","76","155531","0.0-33.0-2.0","","null","","null","delaylearn","learning","feedback_duration_window","60342884b95a3823eaf5fd9b","QDuSGB2O0sOKFbNO8JZHSdBXRRp1","","","","","","","","","","","","","","","","","","7000","","",""
"html-keyboard-response","77","157036","0.0-33.0-3.0","","null","<div style='margin:auto;width: auto; font-size: 150%'><span style='font-weight: bold; font-size: 100px; color: red;'>0 points!</span><br><br></div>","null","delaylearn","learning","feedback_image_window","60342884b95a3823eaf5fd9b","QDuSGB2O0sOKFbNO8JZHSdBXRRp1","","","","","","","","","","","","","","","","","","","","",""
"html-keyboard-response","78","158871","0.0-34.0","","null","<div style=""font-size:100px;"">+</div>","null","delaylearn","learning","ITI","60342884b95a3823eaf5fd9b","QDuSGB2O0sOKFbNO8JZHSdBXRRp1","","","","","","","","","","","","","","","","","","","1834","",""
"html-keyboard-response","79","160021","0.0-35.0-0.0","","1147.1000001430511","<div style=""display: flex; flex-direction: column; align-items: center; margin-top: -40px;""><img src=""images/pattern_3.png"" style=""width: 234px; height: 230px; margin-top: -50px;""><div style=""display: flex; justify-content: space-between; margin-top: 33px;""><img src=""images/choice_trial_6.png"" style=""width: 408px; height: 417px; margin-right: 200px;""><img src=""images/choice_trial_16.png"" style=""width: 408px; height: 417px;""></div></div>","f","delaylearn","learning","trial","60342884b95a3823eaf5fd9b","QDuSGB2O0sOKFbNO8JZHSdBXRRp1","4","images/choice_trial_6.png","images/choice_trial_16.png","images/pattern_3.png","f","j","7000","6","16","2","1","15","0","1","6","100","","","","",""
"html-keyboard-response","80","161025","0.0-35.0-1.0","","null","<div style=""display: flex; flex-direction: column; align-items: center; margin-top: -40px;""><img src=""images/pattern_3.png"" style=""width: 234px; height: 230px; margin-top: -50px;""><div style=""display: flex; justify-content: space-between; margin-top: 33px;""><img src=""images/choice_trial_6.png"" style=""width: 408px; height: 417px; margin-right: 608px;""></div></div>","null","delaylearn","learning","display_response","60342884b95a3823eaf5fd9b","QDuSGB2O0sOKFbNO8JZHSdBXRRp1","","","","","","","","","","","","","","","","","chosen stimuli: images/choice_trial_6.png","","","",""
"html-keyboard-response","81","168028","0.0-35.0-2.0","","null","","null","delaylearn","learning","feedback_duration_window","60342884b95a3823eaf5fd9b","QDuSGB2O0sOKFbNO8JZHSdBXRRp1","","","","","","","","","","","","","","","","","","7000","","",""
"html-keyboard-response","82","169537","0.0-35.0-3.0","","null","<div style='margin:auto;width: auto; font-size: 150%'><span style='font-weight: bold; font-size: 100px; color: green;'>+10 points!</span><br><br></div>","null","delaylearn","learning","feedback_image_window","60342884b95a3823eaf5fd9b","QDuSGB2O0sOKFbNO8JZHSdBXRRp1","","","","","","","","","","","","","","","","","","","","",""
"html-keyboard-response","83","171722","0.0-36.0","","null","<div style=""font-size:100px;"">+</div>","null","delaylearn","learning","ITI","60342884b95a3823eaf5fd9b","QDuSGB2O0sOKFbNO8JZHSdBXRRp1","","","","","","","","","","","","","","","","","","","2176","",""
"html-keyboard-response","84","173094","0.0-37.0-0.0","","1370","<div style=""display: flex; flex-direction: column; align-items: center; margin-top: -40px;""><img src=""images/pattern_5.png"" style=""width: 234px; height: 230px; margin-top: -50px;""><div style=""display: flex; justify-content: space-between; margin-top: 33px;""><img src=""images/choice_trial_5.png"" style=""width: 408px; height: 417px; margin-right: 200px;""><img src=""images/choice_trial_15.png"" style=""width: 408px; height: 417px;""></div></div>","j","delaylearn","learning","trial","60342884b95a3823eaf5fd9b","QDuSGB2O0sOKFbNO8JZHSdBXRRp1","4","images/choice_trial_5.png","images/choice_trial_15.png","images/pattern_5.png","f","f","750","5","15","4","0","16","0","0","15","100","","","","",""
"html-keyboard-response","85","174098","0.0-37.0-1.0","","null","<div style=""display: flex; flex-direction: column; align-items: center; margin-top: -40px;""><img src=""images/pattern_5.png"" style=""width: 234px; height: 230px; margin-top: -50px;""><div style=""display: flex; justify-content: space-between; margin-top: 33px;""><img src=""images/choice_trial_15.png"" style=""width: 408px; height: 417px; margin-left:608px;""></div></div>","null","delaylearn","learning","display_response","60342884b95a3823eaf5fd9b","QDuSGB2O0sOKFbNO8JZHSdBXRRp1","","","","","","","","","","","","","","","","","chosen stimuli: images/choice_trial_15.png","","","",""
"html-keyboard-response","86","174864","0.0-37.0-2.0","","null","","null","delaylearn","learning","feedback_duration_window","60342884b95a3823eaf5fd9b","QDuSGB2O0sOKFbNO8JZHSdBXRRp1","","","","","","","","","","","","","","","","","","750","","",""
"html-keyboard-response","87","176367","0.0-37.0-3.0","","null","<div style='margin:auto;width: auto; font-size: 150%'><span style='font-weight: bold; font-size: 100px; color: red;'>0 points!</span><br><br></div>","null","delaylearn","learning","feedback_image_window","60342884b95a3823eaf5fd9b","QDuSGB2O0sOKFbNO8JZHSdBXRRp1","","","","","","","","","","","","","","","","","","","","",""
"html-keyboard-response","88","176870","0.0-38.0-0.0","","null","","null","","","mood_trial_fixation","","","","","","","","","","","","","","","","","","","","","","",""
"lmdlab-html-vas-response","89","181195","0.0-38.0-1.0","","3321","How happy are you right now?","0.7361111111111112","delaylearn","learning","mood_trial","60342884b95a3823eaf5fd9b","QDuSGB2O0sOKFbNO8JZHSdBXRRp1","","","","","","","","","","","","","","","","","","","","[""Very unhappy"",""Very happy""]",""
"html-keyboard-response","90","182938","0.0-39.0","","null","<div style=""font-size:100px;"">+</div>","null","delaylearn","learning","ITI","60342884b95a3823eaf5fd9b","QDuSGB2O0sOKFbNO8JZHSdBXRRp1","","","","","","","","","","","","","","","","","","","1739","",""
"html-keyboard-response","91","184175","0.0-40.0-0.0","","1236.2000000476837","<div style=""display: flex; flex-direction: column; align-items: center; margin-top: -40px;""><img src=""images/pattern_6.png"" style=""width: 234px; height: 230px; margin-top: -50px;""><div style=""display: flex; justify-content: space-between; margin-top: 33px;""><img src=""images/choice_trial_10.png"" style=""width: 408px; height: 417px; margin-right: 200px;""><img src=""images/choice_trial_3.png"" style=""width: 408px; height: 417px;""></div></div>","j","delaylearn","learning","trial","60342884b95a3823eaf5fd9b","QDuSGB2O0sOKFbNO8JZHSdBXRRp1","4","images/choice_trial_10.png","images/choice_trial_3.png","images/pattern_6.png","f","f","750","10","3","5","0","17","0","0","3","100","","","","",""
"html-keyboard-response","92","185190","0.0-40.0-1.0","","null","<div style=""display: flex; flex-direction: column; align-items: center; margin-top: -40px;""><img src=""images/pattern_6.png"" style=""width: 234px; height: 230px; margin-top: -50px;""><div style=""display: flex; justify-content: space-between; margin-top: 33px;""><img src=""images/choice_trial_3.png"" style=""width: 408px; height: 417px; margin-left:608px;""></div></div>","null","delaylearn","learning","display_response","60342884b95a3823eaf5fd9b","QDuSGB2O0sOKFbNO8JZHSdBXRRp1","","","","","","","","","","","","","","","","","chosen stimuli: images/choice_trial_3.png","","","",""
"html-keyboard-response","93","185944","0.0-40.0-2.0","","null","","null","delaylearn","learning","feedback_duration_window","60342884b95a3823eaf5fd9b","QDuSGB2O0sOKFbNO8JZHSdBXRRp1","","","","","","","","","","","","","","","","","","750","","",""
"html-keyboard-response","94","187448","0.0-40.0-3.0","","null","<div style='margin:auto;width: auto; font-size: 150%'><span style='font-weight: bold; font-size: 100px; color: red;'>0 points!</span><br><br></div>","null","delaylearn","learning","feedback_image_window","60342884b95a3823eaf5fd9b","QDuSGB2O0sOKFbNO8JZHSdBXRRp1","","","","","","","","","","","","","","","","","","","","",""
"html-keyboard-response","95","189068","0.0-41.0","","null","<div style=""font-size:100px;"">+</div>","null","delaylearn","learning","ITI","60342884b95a3823eaf5fd9b","QDuSGB2O0sOKFbNO8JZHSdBXRRp1","","","","","","","","","","","","","","","","","","","1612","",""
"html-keyboard-response","96","190382","0.0-42.0-0.0","","1311.6000001430511","<div style=""display: flex; flex-direction: column; align-items: center; margin-top: -40px;""><img src=""images/pattern_4.png"" style=""width: 234px; height: 230px; margin-top: -50px;""><div style=""display: flex; justify-content: space-between; margin-top: 33px;""><img src=""images/choice_trial_7.png"" style=""width: 408px; height: 417px; margin-right: 200px;""><img src=""images/choice_trial_8.png"" style=""width: 408px; height: 417px;""></div></div>","f","delaylearn","learning","trial","60342884b95a3823eaf5fd9b","QDuSGB2O0sOKFbNO8JZHSdBXRRp1","4","images/choice_trial_7.png","images/choice_trial_8.png","images/pattern_4.png","j","j","7000","7","8","3","1","18","0","0","7","100","","","","",""
"html-keyboard-response","97","191388","0.0-42.0-1.0","","null","<div style=""display: flex; flex-direction: column; align-items: center; margin-top: -40px;""><img src=""images/pattern_4.png"" style=""width: 234px; height: 230px; margin-top: -50px;""><div style=""display: flex; justify-content: space-between; margin-top: 33px;""><img src=""images/choice_trial_7.png"" style=""width: 408px; height: 417px; margin-right: 608px;""></div></div>","null","delaylearn","learning","display_response","60342884b95a3823eaf5fd9b","QDuSGB2O0sOKFbNO8JZHSdBXRRp1","","","","","","","","","","","","","","","","","chosen stimuli: images/choice_trial_7.png","","","",""
"html-keyboard-response","98","198402","0.0-42.0-2.0","","null","","null","delaylearn","learning","feedback_duration_window","60342884b95a3823eaf5fd9b","QDuSGB2O0sOKFbNO8JZHSdBXRRp1","","","","","","","","","","","","","","","","","","7000","","",""
"html-keyboard-response","99","199916","0.0-42.0-3.0","","null","<div style='margin:auto;width: auto; font-size: 150%'><span style='font-weight: bold; font-size: 100px; color: red;'>0 points!</span><br><br></div>","null","delaylearn","learning","feedback_image_window","60342884b95a3823eaf5fd9b","QDuSGB2O0sOKFbNO8JZHSdBXRRp1","","","","","","","","","","","","","","","","","","","","",""
"html-keyboard-response","100","202196","0.0-43.0","","null","<div style=""font-size:100px;"">+</div>","null","delaylearn","learning","ITI","60342884b95a3823eaf5fd9b","QDuSGB2O0sOKFbNO8JZHSdBXRRp1","","","","","","","","","","","","","","","","","","","2272","",""
"html-keyboard-response","101","203303","0.0-44.0-0.0","","1105.7999999523163","<div style=""display: flex; flex-direction: column; align-items: center; margin-top: -40px;""><img src=""images/pattern_7.png"" style=""width: 234px; height: 230px; margin-top: -50px;""><div style=""display: flex; justify-content: space-between; margin-top: 33px;""><img src=""images/choice_trial_13.png"" style=""width: 408px; height: 417px; margin-right: 200px;""><img src=""images/choice_trial_4.png"" style=""width: 408px; height: 417px;""></div></div>","f","delaylearn","learning","trial","60342884b95a3823eaf5fd9b","QDuSGB2O0sOKFbNO8JZHSdBXRRp1","4","images/choice_trial_13.png","images/choice_trial_4.png","images/pattern_7.png","j","f","750","13","4","6","0","19","1","0","13","100","","","","",""
"html-keyboard-response","102","204316","0.0-44.0-1.0","","null","<div style=""display: flex; flex-direction: column; align-items: center; margin-top: -40px;""><img src=""images/pattern_7.png"" style=""width: 234px; height: 230px; margin-top: -50px;""><div style=""display: flex; justify-content: space-between; margin-top: 33px;""><img src=""images/choice_trial_13.png"" style=""width: 408px; height: 417px; margin-right: 608px;""></div></div>","null","delaylearn","learning","display_response","60342884b95a3823eaf5fd9b","QDuSGB2O0sOKFbNO8JZHSdBXRRp1","","","","","","","","","","","","","","","","","chosen stimuli: images/choice_trial_13.png","","","",""
"html-keyboard-response","103","205069","0.0-44.0-2.0","","null","","null","delaylearn","learning","feedback_duration_window","60342884b95a3823eaf5fd9b","QDuSGB2O0sOKFbNO8JZHSdBXRRp1","","","","","","","","","","","","","","","","","","750","","",""
"html-keyboard-response","104","206571","0.0-44.0-3.0","","null","<div style='margin:auto;width: auto; font-size: 150%'><span style='font-weight: bold; font-size: 100px; color: red;'>0 points!</span><br><br></div>","null","delaylearn","learning","feedback_image_window","60342884b95a3823eaf5fd9b","QDuSGB2O0sOKFbNO8JZHSdBXRRp1","","","","","","","","","","","","","","","","","","","","",""
"html-keyboard-response","105","208134","0.0-45.0","","null","<div style=""font-size:100px;"">+</div>","null","delaylearn","learning","ITI","60342884b95a3823eaf5fd9b","QDuSGB2O0sOKFbNO8JZHSdBXRRp1","","","","","","","","","","","","","","","","","","","1551","",""
"html-keyboard-response","106","209438","0.0-46.0-0.0","","1300.6000001430511","<div style=""display: flex; flex-direction: column; align-items: center; margin-top: -40px;""><img src=""images/pattern_1.png"" style=""width: 234px; height: 230px; margin-top: -50px;""><div style=""display: flex; justify-content: space-between; margin-top: 33px;""><img src=""images/choice_trial_1.png"" style=""width: 408px; height: 417px; margin-right: 200px;""><img src=""images/choice_trial_9.png"" style=""width: 408px; height: 417px;""></div></div>","j","delaylearn","learning","trial","60342884b95a3823eaf5fd9b","QDuSGB2O0sOKFbNO8JZHSdBXRRp1","4","images/choice_trial_1.png","images/choice_trial_9.png","images/pattern_1.png","f","f","7000","1","9","1","0","20","0","0","9","100","","","","",""
"html-keyboard-response","107","210450","0.0-46.0-1.0","","null","<div style=""display: flex; flex-direction: column; align-items: center; margin-top: -40px;""><img src=""images/pattern_1.png"" style=""width: 234px; height: 230px; margin-top: -50px;""><div style=""display: flex; justify-content: space-between; margin-top: 33px;""><img src=""images/choice_trial_9.png"" style=""width: 408px; height: 417px; margin-left:608px;""></div></div>","null","delaylearn","learning","display_response","60342884b95a3823eaf5fd9b","QDuSGB2O0sOKFbNO8JZHSdBXRRp1","","","","","","","","","","","","","","","","","chosen stimuli: images/choice_trial_9.png","","","",""
"html-keyboard-response","108","217458","0.0-46.0-2.0","","null","","null","delaylearn","learning","feedback_duration_window","60342884b95a3823eaf5fd9b","QDuSGB2O0sOKFbNO8JZHSdBXRRp1","","","","","","","","","","","","","","","","","","7000","","",""
"html-keyboard-response","109","218967","0.0-46.0-3.0","","null","<div style='margin:auto;width: auto; font-size: 150%'><span style='font-weight: bold; font-size: 100px; color: red;'>0 points!</span><br><br></div>","null","delaylearn","learning","feedback_image_window","60342884b95a3823eaf5fd9b","QDuSGB2O0sOKFbNO8JZHSdBXRRp1","","","","","","","","","","","","","","","","","","","","",""
"html-keyboard-response","110","220509","0.0-47.0","","null","<div style=""font-size:100px;"">+</div>","null","delaylearn","learning","ITI","60342884b95a3823eaf5fd9b","QDuSGB2O0sOKFbNO8JZHSdBXRRp1","","","","","","","","","","","","","","","","","","","1540","",""
"html-keyboard-response","111","222791","0.0-48.0-0.0","","2278.9000000953674","<div style=""display: flex; flex-direction: column; align-items: center; margin-top: -40px;""><img src=""images/pattern_6.png"" style=""width: 234px; height: 230px; margin-top: -50px;""><div style=""display: flex; justify-content: space-between; margin-top: 33px;""><img src=""images/choice_trial_3.png"" style=""width: 408px; height: 417px; margin-right: 200px;""><img src=""images/choice_trial_10.png"" style=""width: 408px; height: 417px;""></div></div>","f","delaylearn","learning","trial","60342884b95a3823eaf5fd9b","QDuSGB2O0sOKFbNO8JZHSdBXRRp1","4","images/choice_trial_3.png","images/choice_trial_10.png","images/pattern_6.png","j","j","750","3","10","5","1","21","0","0","3","100","","","","",""
"html-keyboard-response","112","223796","0.0-48.0-1.0","","null","<div style=""display: flex; flex-direction: column; align-items: center; margin-top: -40px;""><img src=""images/pattern_6.png"" style=""width: 234px; height: 230px; margin-top: -50px;""><div style=""display: flex; justify-content: space-between; margin-top: 33px;""><img src=""images/choice_trial_3.png"" style=""width: 408px; height: 417px; margin-right: 608px;""></div></div>","null","delaylearn","learning","display_response","60342884b95a3823eaf5fd9b","QDuSGB2O0sOKFbNO8JZHSdBXRRp1","","","","","","","","","","","","","","","","","chosen stimuli: images/choice_trial_3.png","","","",""
"html-keyboard-response","113","224551","0.0-48.0-2.0","","null","","null","delaylearn","learning","feedback_duration_window","60342884b95a3823eaf5fd9b","QDuSGB2O0sOKFbNO8JZHSdBXRRp1","","","","","","","","","","","","","","","","","","750","","",""
"html-keyboard-response","114","226054","0.0-48.0-3.0","","null","<div style='margin:auto;width: auto; font-size: 150%'><span style='font-weight: bold; font-size: 100px; color: red;'>0 points!</span><br><br></div>","null","delaylearn","learning","feedback_image_window","60342884b95a3823eaf5fd9b","QDuSGB2O0sOKFbNO8JZHSdBXRRp1","","","","","","","","","","","","","","","","","","","","",""
"html-keyboard-response","115","228550","0.0-49.0","","null","<div style=""font-size:100px;"">+</div>","null","delaylearn","learning","ITI","60342884b95a3823eaf5fd9b","QDuSGB2O0sOKFbNO8JZHSdBXRRp1","","","","","","","","","","","","","","","","","","","2487","",""
"html-keyboard-response","116","230126","0.0-50.0-0.0","","1572.2000000476837","<div style=""display: flex; flex-direction: column; align-items: center; margin-top: -40px;""><img src=""images/pattern_4.png"" style=""width: 234px; height: 230px; margin-top: -50px;""><div style=""display: flex; justify-content: space-between; margin-top: 33px;""><img src=""images/choice_trial_8.png"" style=""width: 408px; height: 417px; margin-right: 200px;""><img src=""images/choice_trial_7.png"" style=""width: 408px; height: 417px;""></div></div>","f","delaylearn","learning","trial","60342884b95a3823eaf5fd9b","QDuSGB2O0sOKFbNO8JZHSdBXRRp1","4","images/choice_trial_8.png","images/choice_trial_7.png","images/pattern_4.png","f","f","7000","8","7","3","0","22","1","1","8","110","","","","",""
"html-keyboard-response","117","231135","0.0-50.0-1.0","","null","<div style=""display: flex; flex-direction: column; align-items: center; margin-top: -40px;""><img src=""images/pattern_4.png"" style=""width: 234px; height: 230px; margin-top: -50px;""><div style=""display: flex; justify-content: space-between; margin-top: 33px;""><img src=""images/choice_trial_8.png"" style=""width: 408px; height: 417px; margin-right: 608px;""></div></div>","null","delaylearn","learning","display_response","60342884b95a3823eaf5fd9b","QDuSGB2O0sOKFbNO8JZHSdBXRRp1","","","","","","","","","","","","","","","","","chosen stimuli: images/choice_trial_8.png","","","",""
"html-keyboard-response","118","238139","0.0-50.0-2.0","","null","","null","delaylearn","learning","feedback_duration_window","60342884b95a3823eaf5fd9b","QDuSGB2O0sOKFbNO8JZHSdBXRRp1","","","","","","","","","","","","","","","","","","7000","","",""
"html-keyboard-response","119","239651","0.0-50.0-3.0","","null","<div style='margin:auto;width: auto; font-size: 150%'><span style='font-weight: bold; font-size: 100px; color: green;'>+10 points!</span><br><br></div>","null","delaylearn","learning","feedback_image_window","60342884b95a3823eaf5fd9b","QDuSGB2O0sOKFbNO8JZHSdBXRRp1","","","","","","","","","","","","","","","","","","","","",""
"html-keyboard-response","120","240156","0.0-51.0-0.0","","null","","null","","","mood_trial_fixation","","","","","","","","","","","","","","","","","","","","","","",""
"lmdlab-html-vas-response","121","244689","0.0-51.0-1.0","","3514","How happy are you right now?","0.6782407407407407","delaylearn","learning","mood_trial","60342884b95a3823eaf5fd9b","QDuSGB2O0sOKFbNO8JZHSdBXRRp1","","","","","","","","","","","","","","","","","","","","[""Very unhappy"",""Very happy""]",""
"html-keyboard-response","122","247137","0.0-52.0","","null","<div style=""font-size:100px;"">+</div>","null","delaylearn","learning","ITI","60342884b95a3823eaf5fd9b","QDuSGB2O0sOKFbNO8JZHSdBXRRp1","","","","","","","","","","","","","","","","","","","2439","",""
"html-keyboard-response","123","248614","0.0-53.0-0.0","","1475.9000000953674","<div style=""display: flex; flex-direction: column; align-items: center; margin-top: -40px;""><img src=""images/pattern_7.png"" style=""width: 234px; height: 230px; margin-top: -50px;""><div style=""display: flex; justify-content: space-between; margin-top: 33px;""><img src=""images/choice_trial_4.png"" style=""width: 408px; height: 417px; margin-right: 200px;""><img src=""images/choice_trial_13.png"" style=""width: 408px; height: 417px;""></div></div>","j","delaylearn","learning","trial","60342884b95a3823eaf5fd9b","QDuSGB2O0sOKFbNO8JZHSdBXRRp1","4","images/choice_trial_4.png","images/choice_trial_13.png","images/pattern_7.png","j","j","750","4","13","6","1","23","1","1","13","120","","","","",""
"html-keyboard-response","124","249633","0.0-53.0-1.0","","null","<div style=""display: flex; flex-direction: column; align-items: center; margin-top: -40px;""><img src=""images/pattern_7.png"" style=""width: 234px; height: 230px; margin-top: -50px;""><div style=""display: flex; justify-content: space-between; margin-top: 33px;""><img src=""images/choice_trial_13.png"" style=""width: 408px; height: 417px; margin-left:608px;""></div></div>","null","delaylearn","learning","display_response","60342884b95a3823eaf5fd9b","QDuSGB2O0sOKFbNO8JZHSdBXRRp1","","","","","","","","","","","","","","","","","chosen stimuli: images/choice_trial_13.png","","","",""
"html-keyboard-response","125","250394","0.0-53.0-2.0","","null","","null","delaylearn","learning","feedback_duration_window","60342884b95a3823eaf5fd9b","QDuSGB2O0sOKFbNO8JZHSdBXRRp1","","","","","","","","","","","","","","","","","","750","","",""
"html-keyboard-response","126","251897","0.0-53.0-3.0","","null","<div style='margin:auto;width: auto; font-size: 150%'><span style='font-weight: bold; font-size: 100px; color: green;'>+10 points!</span><br><br></div>","null","delaylearn","learning","feedback_image_window","60342884b95a3823eaf5fd9b","QDuSGB2O0sOKFbNO8JZHSdBXRRp1","","","","","","","","","","","","","","","","","","","","",""
"html-keyboard-response","127","254185","0.0-54.0","","null","<div style=""font-size:100px;"">+</div>","null","delaylearn","learning","ITI","60342884b95a3823eaf5fd9b","QDuSGB2O0sOKFbNO8JZHSdBXRRp1","","","","","","","","","","","","","","","","","","","2285","",""
"html-keyboard-response","128","256087","0.0-55.0-0.0","","1900.5","<div style=""display: flex; flex-direction: column; align-items: center; margin-top: -40px;""><img src=""images/pattern_1.png"" style=""width: 234px; height: 230px; margin-top: -50px;""><div style=""display: flex; justify-content: space-between; margin-top: 33px;""><img src=""images/choice_trial_9.png"" style=""width: 408px; height: 417px; margin-right: 200px;""><img src=""images/choice_trial_1.png"" style=""width: 408px; height: 417px;""></div></div>","f","delaylearn","learning","trial","60342884b95a3823eaf5fd9b","QDuSGB2O0sOKFbNO8JZHSdBXRRp1","4","images/choice_trial_9.png","images/choice_trial_1.png","images/pattern_1.png","f","j","7000","9","1","1","1","24","0","1","9","130","","","","",""
"html-keyboard-response","129","257097","0.0-55.0-1.0","","null","<div style=""display: flex; flex-direction: column; align-items: center; margin-top: -40px;""><img src=""images/pattern_1.png"" style=""width: 234px; height: 230px; margin-top: -50px;""><div style=""display: flex; justify-content: space-between; margin-top: 33px;""><img src=""images/choice_trial_9.png"" style=""width: 408px; height: 417px; margin-right: 608px;""></div></div>","null","delaylearn","learning","display_response","60342884b95a3823eaf5fd9b","QDuSGB2O0sOKFbNO8JZHSdBXRRp1","","","","","","","","","","","","","","","","","chosen stimuli: images/choice_trial_9.png","","","",""
"html-keyboard-response","130","264114","0.0-55.0-2.0","","null","","null","delaylearn","learning","feedback_duration_window","60342884b95a3823eaf5fd9b","QDuSGB2O0sOKFbNO8JZHSdBXRRp1","","","","","","","","","","","","","","","","","","7000","","",""
"html-keyboard-response","131","265632","0.0-55.0-3.0","","null","<div style='margin:auto;width: auto; font-size: 150%'><span style='font-weight: bold; font-size: 100px; color: green;'>+10 points!</span><br><br></div>","null","delaylearn","learning","feedback_image_window","60342884b95a3823eaf5fd9b","QDuSGB2O0sOKFbNO8JZHSdBXRRp1","","","","","","","","","","","","","","","","","","","","",""
"html-keyboard-response","132","267969","0.0-56.0","","null","<div style=""font-size:100px;"">+</div>","null","delaylearn","learning","ITI","60342884b95a3823eaf5fd9b","QDuSGB2O0sOKFbNO8JZHSdBXRRp1","","","","","","","","","","","","","","","","","","","2331","",""
"html-keyboard-response","133","269271","0.0-57.0-0.0","","1300.2000000476837","<div style=""display: flex; flex-direction: column; align-items: center; margin-top: -40px;""><img src=""images/pattern_5.png"" style=""width: 234px; height: 230px; margin-top: -50px;""><div style=""display: flex; justify-content: space-between; margin-top: 33px;""><img src=""images/choice_trial_15.png"" style=""width: 408px; height: 417px; margin-right: 200px;""><img src=""images/choice_trial_5.png"" style=""width: 408px; height: 417px;""></div></div>","f","delaylearn","learning","trial","60342884b95a3823eaf5fd9b","QDuSGB2O0sOKFbNO8JZHSdBXRRp1","4","images/choice_trial_15.png","images/choice_trial_5.png","images/pattern_5.png","j","j","750","15","5","4","1","25","0","0","15","130","","","","",""
"html-keyboard-response","134","270287","0.0-57.0-1.0","","null","<div style=""display: flex; flex-direction: column; align-items: center; margin-top: -40px;""><img src=""images/pattern_5.png"" style=""width: 234px; height: 230px; margin-top: -50px;""><div style=""display: flex; justify-content: space-between; margin-top: 33px;""><img src=""images/choice_trial_15.png"" style=""width: 408px; height: 417px; margin-right: 608px;""></div></div>","null","delaylearn","learning","display_response","60342884b95a3823eaf5fd9b","QDuSGB2O0sOKFbNO8JZHSdBXRRp1","","","","","","","","","","","","","","","","","chosen stimuli: images/choice_trial_15.png","","","",""
"html-keyboard-response","135","271038","0.0-57.0-2.0","","null","","null","delaylearn","learning","feedback_duration_window","60342884b95a3823eaf5fd9b","QDuSGB2O0sOKFbNO8JZHSdBXRRp1","","","","","","","","","","","","","","","","","","750","","",""
"html-keyboard-response","136","272543","0.0-57.0-3.0","","null","<div style='margin:auto;width: auto; font-size: 150%'><span style='font-weight: bold; font-size: 100px; color: red;'>0 points!</span><br><br></div>","null","delaylearn","learning","feedback_image_window","60342884b95a3823eaf5fd9b","QDuSGB2O0sOKFbNO8JZHSdBXRRp1","","","","","","","","","","","","","","","","","","","","",""
"html-keyboard-response","137","274149","0.0-58.0","","null","<div style=""font-size:100px;"">+</div>","null","delaylearn","learning","ITI","60342884b95a3823eaf5fd9b","QDuSGB2O0sOKFbNO8JZHSdBXRRp1","","","","","","","","","","","","","","","","","","","1595","",""
"html-keyboard-response","138","275094","0.0-59.0-0.0","","943.8000001907349","<div style=""display: flex; flex-direction: column; align-items: center; margin-top: -40px;""><img src=""images/pattern_3.png"" style=""width: 234px; height: 230px; margin-top: -50px;""><div style=""display: flex; justify-content: space-between; margin-top: 33px;""><img src=""images/choice_trial_6.png"" style=""width: 408px; height: 417px; margin-right: 200px;""><img src=""images/choice_trial_16.png"" style=""width: 408px; height: 417px;""></div></div>","f","delaylearn","learning","trial","60342884b95a3823eaf5fd9b","QDuSGB2O0sOKFbNO8JZHSdBXRRp1","4","images/choice_trial_6.png","images/choice_trial_16.png","images/pattern_3.png","j","j","7000","6","16","2","1","26","0","0","6","130","","","","",""
"html-keyboard-response","139","276099","0.0-59.0-1.0","","null","<div style=""display: flex; flex-direction: column; align-items: center; margin-top: -40px;""><img src=""images/pattern_3.png"" style=""width: 234px; height: 230px; margin-top: -50px;""><div style=""display: flex; justify-content: space-between; margin-top: 33px;""><img src=""images/choice_trial_6.png"" style=""width: 408px; height: 417px; margin-right: 608px;""></div></div>","null","delaylearn","learning","display_response","60342884b95a3823eaf5fd9b","QDuSGB2O0sOKFbNO8JZHSdBXRRp1","","","","","","","","","","","","","","","","","chosen stimuli: images/choice_trial_6.png","","","",""
"html-keyboard-response","140","283110","0.0-59.0-2.0","","null","","null","delaylearn","learning","feedback_duration_window","60342884b95a3823eaf5fd9b","QDuSGB2O0sOKFbNO8JZHSdBXRRp1","","","","","","","","","","","","","","","","","","7000","","",""
"html-keyboard-response","141","284625","0.0-59.0-3.0","","null","<div style='margin:auto;width: auto; font-size: 150%'><span style='font-weight: bold; font-size: 100px; color: red;'>0 points!</span><br><br></div>","null","delaylearn","learning","feedback_image_window","60342884b95a3823eaf5fd9b","QDuSGB2O0sOKFbNO8JZHSdBXRRp1","","","","","","","","","","","","","","","","","","","","",""
"lmdlab-html-vas-response","142","291457","0.0-60.0-0.0","","5322","*How <b><u>confident</u></b> are you feeling about your answers at this moment?*","0.04398148148148148","rewlearn","rate_confidence","","60342884b95a3823eaf5fd9b","QDuSGB2O0sOKFbNO8JZHSdBXRRp1","","","","","","","","","","","","","","","","","","","","[""No confidence"",""Complete confidence""]",""
"lmdlab-rest-trial-limit","143","308553","0.0-60.0-1.0","","15585.700000047684","<div style=""font-size:40px;""><b>Please take a break!</b><br><br><br><br><p>Great work: you earned 130 points.<br><br><br><p>You have completed part(s) 1 of 5.<br><br><br><br>When you are ready to continue<br><br><br>please click the button.</p><br><br>","0","delaylearn","learning","break","60342884b95a3823eaf5fd9b","QDuSGB2O0sOKFbNO8JZHSdBXRRp1","","","","","","","","","","","","","","","","","","","","","0"
"html-keyboard-response","144","311568","0.0-60.0-2.0","","null","<div style=""font-size:100px;"">+</div>","null","delaylearn","learning","pre_fixation","60342884b95a3823eaf5fd9b","","","","","","","","","","","","","","","","","","","","","",""
"lmdlab-html-vas-response","145","315669","0.0-60.0-3.0-0.0","","3086","How happy are you right now?","0.7245370370370371","delaylearn","learning","mood_baseline","60342884b95a3823eaf5fd9b","QDuSGB2O0sOKFbNO8JZHSdBXRRp1","","","","","","","","","","","","","","","","","","","","[""Very unhappy"",""Very happy""]",""
"html-keyboard-response","146","317179","0.0-60.0-3.0-1.0","","null","","null","","","mood_baseline_fixation","","","","","","","","","","","","","","","","","","","","","","",""
"html-keyboard-response","147","319204","0.0-61.0","","null","<div style=""font-size:100px;"">+</div>","null","delaylearn","learning","ITI","60342884b95a3823eaf5fd9b","QDuSGB2O0sOKFbNO8JZHSdBXRRp1","","","","","","","","","","","","","","","","","","","2022","",""
"html-keyboard-response","148","320231","0.0-62.0-0.0","","1024.7999999523163","<div style=""display: flex; flex-direction: column; align-items: center; margin-top: -40px;""><img src=""images/pattern_7.png"" style=""width: 234px; height: 230px; margin-top: -50px;""><div style=""display: flex; justify-content: space-between; margin-top: 33px;""><img src=""images/choice_trial_4.png"" style=""width: 408px; height: 417px; margin-right: 200px;""><img src=""images/choice_trial_13.png"" style=""width: 408px; height: 417px;""></div></div>","j","delaylearn","learning","trial","60342884b95a3823eaf5fd9b","QDuSGB2O0sOKFbNO8JZHSdBXRRp1","4","images/choice_trial_4.png","images/choice_trial_13.png","images/pattern_7.png","j","j","750","4","13","6","1","27","1","1","13","140","","","","",""
"html-keyboard-response","149","321234","0.0-62.0-1.0","","null","<div style=""display: flex; flex-direction: column; align-items: center; margin-top: -40px;""><img src=""images/pattern_7.png"" style=""width: 234px; height: 230px; margin-top: -50px;""><div style=""display: flex; justify-content: space-between; margin-top: 33px;""><img src=""images/choice_trial_13.png"" style=""width: 408px; height: 417px; margin-left:608px;""></div></div>","null","delaylearn","learning","display_response","60342884b95a3823eaf5fd9b","QDuSGB2O0sOKFbNO8JZHSdBXRRp1","","","","","","","","","","","","","","","","","chosen stimuli: images/choice_trial_13.png","","","",""
"html-keyboard-response","150","321999","0.0-62.0-2.0","","null","","null","delaylearn","learning","feedback_duration_window","60342884b95a3823eaf5fd9b","QDuSGB2O0sOKFbNO8JZHSdBXRRp1","","","","","","","","","","","","","","","","","","750","","",""
"html-keyboard-response","151","323509","0.0-62.0-3.0","","null","<div style='margin:auto;width: auto; font-size: 150%'><span style='font-weight: bold; font-size: 100px; color: green;'>+10 points!</span><br><br></div>","null","delaylearn","learning","feedback_image_window","60342884b95a3823eaf5fd9b","QDuSGB2O0sOKFbNO8JZHSdBXRRp1","","","","","","","","","","","","","","","","","","","","",""
"html-keyboard-response","152","324012","0.0-63.0-0.0","","null","","null","","","mood_trial_fixation","","","","","","","","","","","","","","","","","","","","","","",""
"lmdlab-html-vas-response","153","328225","0.0-63.0-1.0","","3196","How happy are you right now?","0.7025462962962963","delaylearn","learning","mood_trial","60342884b95a3823eaf5fd9b","QDuSGB2O0sOKFbNO8JZHSdBXRRp1","","","","","","","","","","","","","","","","","","","","[""Very unhappy"",""Very happy""]",""
"html-keyboard-response","154","329990","0.0-64.0","","null","<div style=""font-size:100px;"">+</div>","null","delaylearn","learning","ITI","60342884b95a3823eaf5fd9b","QDuSGB2O0sOKFbNO8JZHSdBXRRp1","","","","","","","","","","","","","","","","","","","1752","",""
"html-keyboard-response","155","331415","0.0-65.0-0.0","","1424.0999999046326","<div style=""display: flex; flex-direction: column; align-items: center; margin-top: -40px;""><img src=""images/pattern_1.png"" style=""width: 234px; height: 230px; margin-top: -50px;""><div style=""display: flex; justify-content: space-between; margin-top: 33px;""><img src=""images/choice_trial_1.png"" style=""width: 408px; height: 417px; margin-right: 200px;""><img src=""images/choice_trial_9.png"" style=""width: 408px; height: 417px;""></div></div>","j","delaylearn","learning","trial","60342884b95a3823eaf5fd9b","QDuSGB2O0sOKFbNO8JZHSdBXRRp1","4","images/choice_trial_1.png","images/choice_trial_9.png","images/pattern_1.png","f","f","7000","1","9","1","0","28","0","0","9","140","","","","",""
"html-keyboard-response","156","332427","0.0-65.0-1.0","","null","<div style=""display: flex; flex-direction: column; align-items: center; margin-top: -40px;""><img src=""images/pattern_1.png"" style=""width: 234px; height: 230px; margin-top: -50px;""><div style=""display: flex; justify-content: space-between; margin-top: 33px;""><img src=""images/choice_trial_9.png"" style=""width: 408px; height: 417px; margin-left:608px;""></div></div>","null","delaylearn","learning","display_response","60342884b95a3823eaf5fd9b","QDuSGB2O0sOKFbNO8JZHSdBXRRp1","","","","","","","","","","","","","","","","","chosen stimuli: images/choice_trial_9.png","","","",""
"html-keyboard-response","157","339434","0.0-65.0-2.0","","null","","null","delaylearn","learning","feedback_duration_window","60342884b95a3823eaf5fd9b","QDuSGB2O0sOKFbNO8JZHSdBXRRp1","","","","","","","","","","","","","","","","","","7000","","",""
"html-keyboard-response","158","340936","0.0-65.0-3.0","","null","<div style='margin:auto;width: auto; font-size: 150%'><span style='font-weight: bold; font-size: 100px; color: red;'>0 points!</span><br><br></div>","null","delaylearn","learning","feedback_image_window","60342884b95a3823eaf5fd9b","QDuSGB2O0sOKFbNO8JZHSdBXRRp1","","","","","","","","","","","","","","","","","","","","",""
"html-keyboard-response","159","342802","0.0-66.0","","null","<div style=""font-size:100px;"">+</div>","null","delaylearn","learning","ITI","60342884b95a3823eaf5fd9b","QDuSGB2O0sOKFbNO8JZHSdBXRRp1","","","","","","","","","","","","","","","","","","","1853","",""
"html-keyboard-response","160","344159","0.0-67.0-0.0","","1353.5","<div style=""display: flex; flex-direction: column; align-items: center; margin-top: -40px;""><img src=""images/pattern_5.png"" style=""width: 234px; height: 230px; margin-top: -50px;""><div style=""display: flex; justify-content: space-between; margin-top: 33px;""><img src=""images/choice_trial_5.png"" style=""width: 408px; height: 417px; margin-right: 200px;""><img src=""images/choice_trial_15.png"" style=""width: 408px; height: 417px;""></div></div>","j","delaylearn","learning","trial","60342884b95a3823eaf5fd9b","QDuSGB2O0sOKFbNO8JZHSdBXRRp1","4","images/choice_trial_5.png","images/choice_trial_15.png","images/pattern_5.png","f","f","750","5","15","4","0","29","0","0","15","140","","","","",""
"html-keyboard-response","161","345177","0.0-67.0-1.0","","null","<div style=""display: flex; flex-direction: column; align-items: center; margin-top: -40px;""><img src=""images/pattern_5.png"" style=""width: 234px; height: 230px; margin-top: -50px;""><div style=""display: flex; justify-content: space-between; margin-top: 33px;""><img src=""images/choice_trial_15.png"" style=""width: 408px; height: 417px; margin-left:608px;""></div></div>","null","delaylearn","learning","display_response","60342884b95a3823eaf5fd9b","QDuSGB2O0sOKFbNO8JZHSdBXRRp1","","","","","","","","","","","","","","","","","chosen stimuli: images/choice_trial_15.png","","","",""
"html-keyboard-response","162","345929","0.0-67.0-2.0","","null","","null","delaylearn","learning","feedback_duration_window","60342884b95a3823eaf5fd9b","QDuSGB2O0sOKFbNO8JZHSdBXRRp1","","","","","","","","","","","","","","","","","","750","","",""
"html-keyboard-response","163","347436","0.0-67.0-3.0","","null","<div style='margin:auto;width: auto; font-size: 150%'><span style='font-weight: bold; font-size: 100px; color: red;'>0 points!</span><br><br></div>","null","delaylearn","learning","feedback_image_window","60342884b95a3823eaf5fd9b","QDuSGB2O0sOKFbNO8JZHSdBXRRp1","","","","","","","","","","","","","","","","","","","","",""
"html-keyboard-response","164","349368","0.0-68.0","","null","<div style=""font-size:100px;"">+</div>","null","delaylearn","learning","ITI","60342884b95a3823eaf5fd9b","QDuSGB2O0sOKFbNO8JZHSdBXRRp1","","","","","","","","","","","","","","","","","","","1926","",""
"html-keyboard-response","165","351510","0.0-69.0-0.0","","2140.399999856949","<div style=""display: flex; flex-direction: column; align-items: center; margin-top: -40px;""><img src=""images/pattern_6.png"" style=""width: 234px; height: 230px; margin-top: -50px;""><div style=""display: flex; justify-content: space-between; margin-top: 33px;""><img src=""images/choice_trial_3.png"" style=""width: 408px; height: 417px; margin-right: 200px;""><img src=""images/choice_trial_10.png"" style=""width: 408px; height: 417px;""></div></div>","f","delaylearn","learning","trial","60342884b95a3823eaf5fd9b","QDuSGB2O0sOKFbNO8JZHSdBXRRp1","4","images/choice_trial_3.png","images/choice_trial_10.png","images/pattern_6.png","j","j","750","3","10","5","1","30","0","0","3","140","","","","",""
"html-keyboard-response","166","352522","0.0-69.0-1.0","","null","<div style=""display: flex; flex-direction: column; align-items: center; margin-top: -40px;""><img src=""images/pattern_6.png"" style=""width: 234px; height: 230px; margin-top: -50px;""><div style=""display: flex; justify-content: space-between; margin-top: 33px;""><img src=""images/choice_trial_3.png"" style=""width: 408px; height: 417px; margin-right: 608px;""></div></div>","null","delaylearn","learning","display_response","60342884b95a3823eaf5fd9b","QDuSGB2O0sOKFbNO8JZHSdBXRRp1","","","","","","","","","","","","","","","","","chosen stimuli: images/choice_trial_3.png","","","",""
"html-keyboard-response","167","353288","0.0-69.0-2.0","","null","","null","delaylearn","learning","feedback_duration_window","60342884b95a3823eaf5fd9b","QDuSGB2O0sOKFbNO8JZHSdBXRRp1","","","","","","","","","","","","","","","","","","750","","",""
"html-keyboard-response","168","354805","0.0-69.0-3.0","","null","<div style='margin:auto;width: auto; font-size: 150%'><span style='font-weight: bold; font-size: 100px; color: red;'>0 points!</span><br><br></div>","null","delaylearn","learning","feedback_image_window","60342884b95a3823eaf5fd9b","QDuSGB2O0sOKFbNO8JZHSdBXRRp1","","","","","","","","","","","","","","","","","","","","",""
"html-keyboard-response","169","355319","0.0-70.0-0.0","","null","","null","","","mood_trial_fixation","","","","","","","","","","","","","","","","","","","","","","",""
"lmdlab-html-vas-response","170","361135","0.0-70.0-1.0","","4798","How happy are you right now?","0.5844907407407407","delaylearn","learning","mood_trial","60342884b95a3823eaf5fd9b","QDuSGB2O0sOKFbNO8JZHSdBXRRp1","","","","","","","","","","","","","","","","","","","","[""Very unhappy"",""Very happy""]",""
"html-keyboard-response","171","363209","0.0-71.0","","null","<div style=""font-size:100px;"">+</div>","null","delaylearn","learning","ITI","60342884b95a3823eaf5fd9b","QDuSGB2O0sOKFbNO8JZHSdBXRRp1","","","","","","","","","","","","","","","","","","","2072","",""
"html-keyboard-response","172","364214","0.0-72.0-0.0","","1001.4000000953674","<div style=""display: flex; flex-direction: column; align-items: center; margin-top: -40px;""><img src=""images/pattern_4.png"" style=""width: 234px; height: 230px; margin-top: -50px;""><div style=""display: flex; justify-content: space-between; margin-top: 33px;""><img src=""images/choice_trial_7.png"" style=""width: 408px; height: 417px; margin-right: 200px;""><img src=""images/choice_trial_8.png"" style=""width: 408px; height: 417px;""></div></div>","j","delaylearn","learning","trial","60342884b95a3823eaf5fd9b","QDuSGB2O0sOKFbNO8JZHSdBXRRp1","4","images/choice_trial_7.png","images/choice_trial_8.png","images/pattern_4.png","j","j","7000","7","8","3","1","31","1","1","8","150","","","","",""
"html-keyboard-response","173","365225","0.0-72.0-1.0","","null","<div style=""display: flex; flex-direction: column; align-items: center; margin-top: -40px;""><img src=""images/pattern_4.png"" style=""width: 234px; height: 230px; margin-top: -50px;""><div style=""display: flex; justify-content: space-between; margin-top: 33px;""><img src=""images/choice_trial_8.png"" style=""width: 408px; height: 417px; margin-left:608px;""></div></div>","null","delaylearn","learning","display_response","60342884b95a3823eaf5fd9b","QDuSGB2O0sOKFbNO8JZHSdBXRRp1","","","","","","","","","","","","","","","","","chosen stimuli: images/choice_trial_8.png","","","",""
"html-keyboard-response","174","372240","0.0-72.0-2.0","","null","","null","delaylearn","learning","feedback_duration_window","60342884b95a3823eaf5fd9b","QDuSGB2O0sOKFbNO8JZHSdBXRRp1","","","","","","","","","","","","","","","","","","7000","","",""
"html-keyboard-response","175","373748","0.0-72.0-3.0","","null","<div style='margin:auto;width: auto; font-size: 150%'><span style='font-weight: bold; font-size: 100px; color: green;'>+10 points!</span><br><br></div>","null","delaylearn","learning","feedback_image_window","60342884b95a3823eaf5fd9b","QDuSGB2O0sOKFbNO8JZHSdBXRRp1","","","","","","","","","","","","","","","","","","","","",""
"html-keyboard-response","176","375800","0.0-73.0","","null","<div style=""font-size:100px;"">+</div>","null","delaylearn","learning","ITI","60342884b95a3823eaf5fd9b","QDuSGB2O0sOKFbNO8JZHSdBXRRp1","","","","","","","","","","","","","","","","","","","2049","",""
"html-keyboard-response","177","376965","0.0-74.0-0.0","","1163.7999999523163","<div style=""display: flex; flex-direction: column; align-items: center; margin-top: -40px;""><img src=""images/pattern_3.png"" style=""width: 234px; height: 230px; margin-top: -50px;""><div style=""display: flex; justify-content: space-between; margin-top: 33px;""><img src=""images/choice_trial_6.png"" style=""width: 408px; height: 417px; margin-right: 200px;""><img src=""images/choice_trial_16.png"" style=""width: 408px; height: 417px;""></div></div>","f","delaylearn","learning","trial","60342884b95a3823eaf5fd9b","QDuSGB2O0sOKFbNO8JZHSdBXRRp1","4","images/choice_trial_6.png","images/choice_trial_16.png","images/pattern_3.png","j","j","7000","6","16","2","1","32","0","0","6","150","","","","",""
"html-keyboard-response","178","377969","0.0-74.0-1.0","","null","<div style=""display: flex; flex-direction: column; align-items: center; margin-top: -40px;""><img src=""images/pattern_3.png"" style=""width: 234px; height: 230px; margin-top: -50px;""><div style=""display: flex; justify-content: space-between; margin-top: 33px;""><img src=""images/choice_trial_6.png"" style=""width: 408px; height: 417px; margin-right: 608px;""></div></div>","null","delaylearn","learning","display_response","60342884b95a3823eaf5fd9b","QDuSGB2O0sOKFbNO8JZHSdBXRRp1","","","","","","","","","","","","","","","","","chosen stimuli: images/choice_trial_6.png","","","",""
"html-keyboard-response","179","384971","0.0-74.0-2.0","","null","","null","delaylearn","learning","feedback_duration_window","60342884b95a3823eaf5fd9b","QDuSGB2O0sOKFbNO8JZHSdBXRRp1","","","","","","","","","","","","","","","","","","7000","","",""
"html-keyboard-response","180","386474","0.0-74.0-3.0","","null","<div style='margin:auto;width: auto; font-size: 150%'><span style='font-weight: bold; font-size: 100px; color: red;'>0 points!</span><br><br></div>","null","delaylearn","learning","feedback_image_window","60342884b95a3823eaf5fd9b","QDuSGB2O0sOKFbNO8JZHSdBXRRp1","","","","","","","","","","","","","","","","","","","","",""
"html-keyboard-response","181","388123","0.0-75.0","","null","<div style=""font-size:100px;"">+</div>","null","delaylearn","learning","ITI","60342884b95a3823eaf5fd9b","QDuSGB2O0sOKFbNO8JZHSdBXRRp1","","","","","","","","","","","","","","","","","","","1637","",""
"html-keyboard-response","182","390272","0.0-76.0-0.0","","2146.699999809265","<div style=""display: flex; flex-direction: column; align-items: center; margin-top: -40px;""><img src=""images/pattern_5.png"" style=""width: 234px; height: 230px; margin-top: -50px;""><div style=""display: flex; justify-content: space-between; margin-top: 33px;""><img src=""images/choice_trial_5.png"" style=""width: 408px; height: 417px; margin-right: 200px;""><img src=""images/choice_trial_15.png"" style=""width: 408px; height: 417px;""></div></div>","f","delaylearn","learning","trial","60342884b95a3823eaf5fd9b","QDuSGB2O0sOKFbNO8JZHSdBXRRp1","4","images/choice_trial_5.png","images/choice_trial_15.png","images/pattern_5.png","j","f","750","5","15","4","0","33","1","0","5","150","","","","",""
"html-keyboard-response","183","391288","0.0-76.0-1.0","","null","<div style=""display: flex; flex-direction: column; align-items: center; margin-top: -40px;""><img src=""images/pattern_5.png"" style=""width: 234px; height: 230px; margin-top: -50px;""><div style=""display: flex; justify-content: space-between; margin-top: 33px;""><img src=""images/choice_trial_5.png"" style=""width: 408px; height: 417px; margin-right: 608px;""></div></div>","null","delaylearn","learning","display_response","60342884b95a3823eaf5fd9b","QDuSGB2O0sOKFbNO8JZHSdBXRRp1","","","","","","","","","","","","","","","","","chosen stimuli: images/choice_trial_5.png","","","",""
"html-keyboard-response","184","392040","0.0-76.0-2.0","","null","","null","delaylearn","learning","feedback_duration_window","60342884b95a3823eaf5fd9b","QDuSGB2O0sOKFbNO8JZHSdBXRRp1","","","","","","","","","","","","","","","","","","750","","",""
"html-keyboard-response","185","393547","0.0-76.0-3.0","","null","<div style='margin:auto;width: auto; font-size: 150%'><span style='font-weight: bold; font-size: 100px; color: red;'>0 points!</span><br><br></div>","null","delaylearn","learning","feedback_image_window","60342884b95a3823eaf5fd9b","QDuSGB2O0sOKFbNO8JZHSdBXRRp1","","","","","","","","","","","","","","","","","","","","",""
"html-keyboard-response","186","395402","0.0-77.0","","null","<div style=""font-size:100px;"">+</div>","null","delaylearn","learning","ITI","60342884b95a3823eaf5fd9b","QDuSGB2O0sOKFbNO8JZHSdBXRRp1","","","","","","","","","","","","","","","","","","","1845","",""
"html-keyboard-response","187","397319","0.0-78.0-0.0","","1912.8999998569489","<div style=""display: flex; flex-direction: column; align-items: center; margin-top: -40px;""><img src=""images/pattern_1.png"" style=""width: 234px; height: 230px; margin-top: -50px;""><div style=""display: flex; justify-content: space-between; margin-top: 33px;""><img src=""images/choice_trial_1.png"" style=""width: 408px; height: 417px; margin-right: 200px;""><img src=""images/choice_trial_9.png"" style=""width: 408px; height: 417px;""></div></div>","j","delaylearn","learning","trial","60342884b95a3823eaf5fd9b","QDuSGB2O0sOKFbNO8JZHSdBXRRp1","4","images/choice_trial_1.png","images/choice_trial_9.png","images/pattern_1.png","f","f","7000","1","9","1","0","34","0","0","9","150","","","","",""
"html-keyboard-response","188","398331","0.0-78.0-1.0","","null","<div style=""display: flex; flex-direction: column; align-items: center; margin-top: -40px;""><img src=""images/pattern_1.png"" style=""width: 234px; height: 230px; margin-top: -50px;""><div style=""display: flex; justify-content: space-between; margin-top: 33px;""><img src=""images/choice_trial_9.png"" style=""width: 408px; height: 417px; margin-left:608px;""></div></div>","null","delaylearn","learning","display_response","60342884b95a3823eaf5fd9b","QDuSGB2O0sOKFbNO8JZHSdBXRRp1","","","","","","","","","","","","","","","","","chosen stimuli: images/choice_trial_9.png","","","",""
"html-keyboard-response","189","405345","0.0-78.0-2.0","","null","","null","delaylearn","learning","feedback_duration_window","60342884b95a3823eaf5fd9b","QDuSGB2O0sOKFbNO8JZHSdBXRRp1","","","","","","","","","","","","","","","","","","7000","","",""
"html-keyboard-response","190","406850","0.0-78.0-3.0","","null","<div style='margin:auto;width: auto; font-size: 150%'><span style='font-weight: bold; font-size: 100px; color: red;'>0 points!</span><br><br></div>","null","delaylearn","learning","feedback_image_window","60342884b95a3823eaf5fd9b","QDuSGB2O0sOKFbNO8JZHSdBXRRp1","","","","","","","","","","","","","","","","","","","","",""
"html-keyboard-response","191","407353","0.0-79.0-0.0","","null","","null","","","mood_trial_fixation","","","","","","","","","","","","","","","","","","","","","","",""
"lmdlab-html-vas-response","192","411882","0.0-79.0-1.0","","3519","How happy are you right now?","0.5196759259259259","delaylearn","learning","mood_trial","60342884b95a3823eaf5fd9b","QDuSGB2O0sOKFbNO8JZHSdBXRRp1","","","","","","","","","","","","","","","","","","","","[""Very unhappy"",""Very happy""]",""
"html-keyboard-response","193","413686","0.0-80.0","","null","<div style=""font-size:100px;"">+</div>","null","delaylearn","learning","ITI","60342884b95a3823eaf5fd9b","QDuSGB2O0sOKFbNO8JZHSdBXRRp1","","","","","","","","","","","","","","","","","","","1800","",""
"html-keyboard-response","194","416111","0.0-81.0-0.0","","2421.5","<div style=""display: flex; flex-direction: column; align-items: center; margin-top: -40px;""><img src=""images/pattern_6.png"" style=""width: 234px; height: 230px; margin-top: -50px;""><div style=""display: flex; justify-content: space-between; margin-top: 33px;""><img src=""images/choice_trial_10.png"" style=""width: 408px; height: 417px; margin-right: 200px;""><img src=""images/choice_trial_3.png"" style=""width: 408px; height: 417px;""></div></div>","f","delaylearn","learning","trial","60342884b95a3823eaf5fd9b","QDuSGB2O0sOKFbNO8JZHSdBXRRp1","4","images/choice_trial_10.png","images/choice_trial_3.png","images/pattern_6.png","j","f","750","10","3","5","0","35","1","0","10","150","","","","",""
"html-keyboard-response","195","417123","0.0-81.0-1.0","","null","<div style=""display: flex; flex-direction: column; align-items: center; margin-top: -40px;""><img src=""images/pattern_6.png"" style=""width: 234px; height: 230px; margin-top: -50px;""><div style=""display: flex; justify-content: space-between; margin-top: 33px;""><img src=""images/choice_trial_10.png"" style=""width: 408px; height: 417px; margin-right: 608px;""></div></div>","null","delaylearn","learning","display_response","60342884b95a3823eaf5fd9b","QDuSGB2O0sOKFbNO8JZHSdBXRRp1","","","","","","","","","","","","","","","","","chosen stimuli: images/choice_trial_10.png","","","",""
"html-keyboard-response","196","417876","0.0-81.0-2.0","","null","","null","delaylearn","learning","feedback_duration_window","60342884b95a3823eaf5fd9b","QDuSGB2O0sOKFbNO8JZHSdBXRRp1","","","","","","","","","","","","","","","","","","750","","",""
"html-keyboard-response","197","419384","0.0-81.0-3.0","","null","<div style='margin:auto;width: auto; font-size: 150%'><span style='font-weight: bold; font-size: 100px; color: red;'>0 points!</span><br><br></div>","null","delaylearn","learning","feedback_image_window","60342884b95a3823eaf5fd9b","QDuSGB2O0sOKFbNO8JZHSdBXRRp1","","","","","","","","","","","","","","","","","","","","",""
"html-keyboard-response","198","421628","0.0-82.0","","null","<div style=""font-size:100px;"">+</div>","null","delaylearn","learning","ITI","60342884b95a3823eaf5fd9b","QDuSGB2O0sOKFbNO8JZHSdBXRRp1","","","","","","","","","","","","","","","","","","","2242","",""
"html-keyboard-response","199","422624","0.0-83.0-0.0","","991.2999999523163","<div style=""display: flex; flex-direction: column; align-items: center; margin-top: -40px;""><img src=""images/pattern_3.png"" style=""width: 234px; height: 230px; margin-top: -50px;""><div style=""display: flex; justify-content: space-between; margin-top: 33px;""><img src=""images/choice_trial_6.png"" style=""width: 408px; height: 417px; margin-right: 200px;""><img src=""images/choice_trial_16.png"" style=""width: 408px; height: 417px;""></div></div>","f","delaylearn","learning","trial","60342884b95a3823eaf5fd9b","QDuSGB2O0sOKFbNO8JZHSdBXRRp1","4","images/choice_trial_6.png","images/choice_trial_16.png","images/pattern_3.png","j","j","7000","6","16","2","1","36","0","0","6","150","","","","",""
"html-keyboard-response","200","423631","0.0-83.0-1.0","","null","<div style=""display: flex; flex-direction: column; align-items: center; margin-top: -40px;""><img src=""images/pattern_3.png"" style=""width: 234px; height: 230px; margin-top: -50px;""><div style=""display: flex; justify-content: space-between; margin-top: 33px;""><img src=""images/choice_trial_6.png"" style=""width: 408px; height: 417px; margin-right: 608px;""></div></div>","null","delaylearn","learning","display_response","60342884b95a3823eaf5fd9b","QDuSGB2O0sOKFbNO8JZHSdBXRRp1","","","","","","","","","","","","","","","","","chosen stimuli: images/choice_trial_6.png","","","",""
"html-keyboard-response","201","430639","0.0-83.0-2.0","","null","","null","delaylearn","learning","feedback_duration_window","60342884b95a3823eaf5fd9b","QDuSGB2O0sOKFbNO8JZHSdBXRRp1","","","","","","","","","","","","","","","","","","7000","","",""
"html-keyboard-response","202","432146","0.0-83.0-3.0","","null","<div style='margin:auto;width: auto; font-size: 150%'><span style='font-weight: bold; font-size: 100px; color: red;'>0 points!</span><br><br></div>","null","delaylearn","learning","feedback_image_window","60342884b95a3823eaf5fd9b","QDuSGB2O0sOKFbNO8JZHSdBXRRp1","","","","","","","","","","","","","","","","","","","","",""
"html-keyboard-response","203","434078","0.0-84.0","","null","<div style=""font-size:100px;"">+</div>","null","delaylearn","learning","ITI","60342884b95a3823eaf5fd9b","QDuSGB2O0sOKFbNO8JZHSdBXRRp1","","","","","","","","","","","","","","","","","","","1926","",""
"html-keyboard-response","204","435432","0.0-85.0-0.0","","1352","<div style=""display: flex; flex-direction: column; align-items: center; margin-top: -40px;""><img src=""images/pattern_4.png"" style=""width: 234px; height: 230px; margin-top: -50px;""><div style=""display: flex; justify-content: space-between; margin-top: 33px;""><img src=""images/choice_trial_7.png"" style=""width: 408px; height: 417px; margin-right: 200px;""><img src=""images/choice_trial_8.png"" style=""width: 408px; height: 417px;""></div></div>","j","delaylearn","learning","trial","60342884b95a3823eaf5fd9b","QDuSGB2O0sOKFbNO8JZHSdBXRRp1","4","images/choice_trial_7.png","images/choice_trial_8.png","images/pattern_4.png","f","j","7000","7","8","3","1","37","1","0","8","150","","","","",""
"html-keyboard-response","205","436441","0.0-85.0-1.0","","null","<div style=""display: flex; flex-direction: column; align-items: center; margin-top: -40px;""><img src=""images/pattern_4.png"" style=""width: 234px; height: 230px; margin-top: -50px;""><div style=""display: flex; justify-content: space-between; margin-top: 33px;""><img src=""images/choice_trial_8.png"" style=""width: 408px; height: 417px; margin-left:608px;""></div></div>","null","delaylearn","learning","display_response","60342884b95a3823eaf5fd9b","QDuSGB2O0sOKFbNO8JZHSdBXRRp1","","","","","","","","","","","","","","","","","chosen stimuli: images/choice_trial_8.png","","","",""
"html-keyboard-response","206","443451","0.0-85.0-2.0","","null","","null","delaylearn","learning","feedback_duration_window","60342884b95a3823eaf5fd9b","QDuSGB2O0sOKFbNO8JZHSdBXRRp1","","","","","","","","","","","","","","","","","","7000","","",""
"html-keyboard-response","207","444958","0.0-85.0-3.0","","null","<div style='margin:auto;width: auto; font-size: 150%'><span style='font-weight: bold; font-size: 100px; color: red;'>0 points!</span><br><br></div>","null","delaylearn","learning","feedback_image_window","60342884b95a3823eaf5fd9b","QDuSGB2O0sOKFbNO8JZHSdBXRRp1","","","","","","","","","","","","","","","","","","","","",""
"html-keyboard-response","208","447246","0.0-86.0","","null","<div style=""font-size:100px;"">+</div>","null","delaylearn","learning","ITI","60342884b95a3823eaf5fd9b","QDuSGB2O0sOKFbNO8JZHSdBXRRp1","","","","","","","","","","","","","","","","","","","2282","",""
"html-keyboard-response","209","449614","0.0-87.0-0.0","","2363.7999999523163","<div style=""display: flex; flex-direction: column; align-items: center; margin-top: -40px;""><img src=""images/pattern_7.png"" style=""width: 234px; height: 230px; margin-top: -50px;""><div style=""display: flex; justify-content: space-between; margin-top: 33px;""><img src=""images/choice_trial_13.png"" style=""width: 408px; height: 417px; margin-right: 200px;""><img src=""images/choice_trial_4.png"" style=""width: 408px; height: 417px;""></div></div>","f","delaylearn","learning","trial","60342884b95a3823eaf5fd9b","QDuSGB2O0sOKFbNO8JZHSdBXRRp1","4","images/choice_trial_13.png","images/choice_trial_4.png","images/pattern_7.png","f","f","750","13","4","6","0","38","1","1","13","160","","","","",""
"html-keyboard-response","210","450628","0.0-87.0-1.0","","null","<div style=""display: flex; flex-direction: column; align-items: center; margin-top: -40px;""><img src=""images/pattern_7.png"" style=""width: 234px; height: 230px; margin-top: -50px;""><div style=""display: flex; justify-content: space-between; margin-top: 33px;""><img src=""images/choice_trial_13.png"" style=""width: 408px; height: 417px; margin-right: 608px;""></div></div>","null","delaylearn","learning","display_response","60342884b95a3823eaf5fd9b","QDuSGB2O0sOKFbNO8JZHSdBXRRp1","","","","","","","","","","","","","","","","","chosen stimuli: images/choice_trial_13.png","","","",""
"html-keyboard-response","211","451380","0.0-87.0-2.0","","null","","null","delaylearn","learning","feedback_duration_window","60342884b95a3823eaf5fd9b","QDuSGB2O0sOKFbNO8JZHSdBXRRp1","","","","","","","","","","","","","","","","","","750","","",""
"html-keyboard-response","212","452889","0.0-87.0-3.0","","null","<div style='margin:auto;width: auto; font-size: 150%'><span style='font-weight: bold; font-size: 100px; color: green;'>+10 points!</span><br><br></div>","null","delaylearn","learning","feedback_image_window","60342884b95a3823eaf5fd9b","QDuSGB2O0sOKFbNO8JZHSdBXRRp1","","","","","","","","","","","","","","","","","","","","",""
"html-keyboard-response","213","455213","0.0-88.0","","null","<div style=""font-size:100px;"">+</div>","null","delaylearn","learning","ITI","60342884b95a3823eaf5fd9b","QDuSGB2O0sOKFbNO8JZHSdBXRRp1","","","","","","","","","","","","","","","","","","","2320","",""
"html-keyboard-response","214","457005","0.0-89.0-0.0","","1787.7999999523163","<div style=""display: flex; flex-direction: column; align-items: center; margin-top: -40px;""><img src=""images/pattern_1.png"" style=""width: 234px; height: 230px; margin-top: -50px;""><div style=""display: flex; justify-content: space-between; margin-top: 33px;""><img src=""images/choice_trial_1.png"" style=""width: 408px; height: 417px; margin-right: 200px;""><img src=""images/choice_trial_9.png"" style=""width: 408px; height: 417px;""></div></div>","f","delaylearn","learning","trial","60342884b95a3823eaf5fd9b","QDuSGB2O0sOKFbNO8JZHSdBXRRp1","4","images/choice_trial_1.png","images/choice_trial_9.png","images/pattern_1.png","f","f","7000","1","9","1","0","39","1","1","1","170","","","","",""
"html-keyboard-response","215","458017","0.0-89.0-1.0","","null","<div style=""display: flex; flex-direction: column; align-items: center; margin-top: -40px;""><img src=""images/pattern_1.png"" style=""width: 234px; height: 230px; margin-top: -50px;""><div style=""display: flex; justify-content: space-between; margin-top: 33px;""><img src=""images/choice_trial_1.png"" style=""width: 408px; height: 417px; margin-right: 608px;""></div></div>","null","delaylearn","learning","display_response","60342884b95a3823eaf5fd9b","QDuSGB2O0sOKFbNO8JZHSdBXRRp1","","","","","","","","","","","","","","","","","chosen stimuli: images/choice_trial_1.png","","","",""
"html-keyboard-response","216","465019","0.0-89.0-2.0","","null","","null","delaylearn","learning","feedback_duration_window","60342884b95a3823eaf5fd9b","QDuSGB2O0sOKFbNO8JZHSdBXRRp1","","","","","","","","","","","","","","","","","","7000","","",""
"html-keyboard-response","217","466523","0.0-89.0-3.0","","null","<div style='margin:auto;width: auto; font-size: 150%'><span style='font-weight: bold; font-size: 100px; color: green;'>+10 points!</span><br><br></div>","null","delaylearn","learning","feedback_image_window","60342884b95a3823eaf5fd9b","QDuSGB2O0sOKFbNO8JZHSdBXRRp1","","","","","","","","","","","","","","","","","","","","",""
"html-keyboard-response","218","467025","0.0-90.0-0.0","","null","","null","","","mood_trial_fixation","","","","","","","","","","","","","","","","","","","","","","",""
"lmdlab-html-vas-response","219","471454","0.0-90.0-1.0","","3420","How happy are you right now?","0.5023148148148148","delaylearn","learning","mood_trial","60342884b95a3823eaf5fd9b","QDuSGB2O0sOKFbNO8JZHSdBXRRp1","","","","","","","","","","","","","","","","","","","","[""Very unhappy"",""Very happy""]",""
"html-keyboard-response","220","473139","0.0-91.0","","null","<div style=""font-size:100px;"">+</div>","null","delaylearn","learning","ITI","60342884b95a3823eaf5fd9b","QDuSGB2O0sOKFbNO8JZHSdBXRRp1","","","","","","","","","","","","","","","","","","","1679","",""
