"trial_type","trial_index","time_elapsed","internal_node_id","participant","rt","stimulus","response","exp_name","exp_stage","test_part","subjectID","databaseID","counterbal","choice_stimuli_1","choice_stimuli_2","pattern_stimuli","rewarded_answer","correct_answer","feedback_duration_times","stim_left","stim_right","pair","leftright_counter","trial","response_correct","response_rewarded","chosen_stim","counter","displayed_choice","feedback_durations","ITI_duration","labels","rest_warning"
"pavlovia","0","530","0.0-0.0","","","","","","","","","","","","","","","","","","","","","","","","","","","","","",""
"html-keyboard-response","1","3538","0.0-1.0","","null","<div style=""font-size:100px;"">+</div>","null","delaylearn","learning","pre_fixation","62b5fea64b239d91783414ff","","","","","","","","","","","","","","","","","","","","","",""
"html-keyboard-response","2","4587","0.0-2.0-0.0","","1044.6999999955297","<div style=""display: flex; flex-direction: column; align-items: center; margin-top: -40px;""><img src=""images/demo_images/pattern_1.png"" style=""width: 234px; height: 230px; margin-top: -50px;""><div style=""display: flex; justify-content: space-between; margin-top: 33px;""><img src=""images/demo_images/choice_trial_2.png"" style=""width: 408px; height: 417px; margin-right: 200px;""><img src=""images/demo_images/choice_trial_1.png"" style=""width: 408px; height: 417px;""></div></div>","j","delaylearn","learning","trial","62b5fea64b239d91783414ff","Xt5RMkhvlDTA4mN4QAC5bzsjOMl1","3","images/demo_images/choice_trial_2.png","images/demo_images/choice_trial_1.png","images/demo_images/pattern_1.png","j","j","3000","2","1","20","1","1","1","1","1","10","","","","",""
"html-keyboard-response","3","5604","0.0-2.0-1.0","","null","<div style=""display: flex; flex-direction: column; align-items: center; margin-top: -40px;""><img src=""images/demo_images/pattern_1.png"" style=""width: 234px; height: 230px; margin-top: -50px;""><div style=""display: flex; justify-content: space-between; margin-top: 33px;""><img src=""images/demo_images/choice_trial_1.png"" style=""width: 408px; height: 417px; margin-left:608px;""></div></div>","null","delaylearn","learning","display_response","62b5fea64b239d91783414ff","Xt5RMkhvlDTA4mN4QAC5bzsjOMl1","","","","","","","","","","","","","","","","","chosen stimuli: images/demo_images/choice_trial_1.png","","","",""
"html-keyboard-response","4","8622","0.0-2.0-2.0","","null","","null","delaylearn","learning","feedback_duration_window","62b5fea64b239d91783414ff","Xt5RMkhvlDTA4mN4QAC5bzsjOMl1","","","","","","","","","","","","","","","","","","3000","","",""
"html-keyboard-response","5","10133","0.0-2.0-3.0","","null","<div style='margin:auto;width: auto; font-size: 150%'><span style='font-weight: bold; font-size: 100px; color: green;'>+10 points!</span><br><br></div>","null","delaylearn","learning","feedback_image_window","62b5fea64b239d91783414ff","Xt5RMkhvlDTA4mN4QAC5bzsjOMl1","","","","","","","","","","","","","","","","","","","","",""
"html-keyboard-response","6","12476","0.0-3.0","","null","<div style=""font-size:100px;"">+</div>","null","delaylearn","learning","ITI","62b5fea64b239d91783414ff","Xt5RMkhvlDTA4mN4QAC5bzsjOMl1","","","","","","","","","","","","","","","","","","","2340","",""
"html-keyboard-response","7","13792","0.0-4.0-0.0","","1311.2000000029802","<div style=""display: flex; flex-direction: column; align-items: center; margin-top: -40px;""><img src=""images/demo_images/pattern_1.png"" style=""width: 234px; height: 230px; margin-top: -50px;""><div style=""display: flex; justify-content: space-between; margin-top: 33px;""><img src=""images/demo_images/choice_trial_2.png"" style=""width: 408px; height: 417px; margin-right: 200px;""><img src=""images/demo_images/choice_trial_1.png"" style=""width: 408px; height: 417px;""></div></div>","j","delaylearn","learning","trial","62b5fea64b239d91783414ff","Xt5RMkhvlDTA4mN4QAC5bzsjOMl1","3","images/demo_images/choice_trial_2.png","images/demo_images/choice_trial_1.png","images/demo_images/pattern_1.png","j","j","3000","2","1","20","1","2","1","1","1","20","","","","",""
"html-keyboard-response","8","14804","0.0-4.0-1.0","","null","<div style=""display: flex; flex-direction: column; align-items: center; margin-top: -40px;""><img src=""images/demo_images/pattern_1.png"" style=""width: 234px; height: 230px; margin-top: -50px;""><div style=""display: flex; justify-content: space-between; margin-top: 33px;""><img src=""images/demo_images/choice_trial_1.png"" style=""width: 408px; height: 417px; margin-left:608px;""></div></div>","null","delaylearn","learning","display_response","62b5fea64b239d91783414ff","Xt5RMkhvlDTA4mN4QAC5bzsjOMl1","","","","","","","","","","","","","","","","","chosen stimuli: images/demo_images/choice_trial_1.png","","","",""
"html-keyboard-response","9","17812","0.0-4.0-2.0","","null","","null","delaylearn","learning","feedback_duration_window","62b5fea64b239d91783414ff","Xt5RMkhvlDTA4mN4QAC5bzsjOMl1","","","","","","","","","","","","","","","","","","3000","","",""
"html-keyboard-response","10","19329","0.0-4.0-3.0","","null","<div style='margin:auto;width: auto; font-size: 150%'><span style='font-weight: bold; font-size: 100px; color: green;'>+10 points!</span><br><br></div>","null","delaylearn","learning","feedback_image_window","62b5fea64b239d91783414ff","Xt5RMkhvlDTA4mN4QAC5bzsjOMl1","","","","","","","","","","","","","","","","","","","","",""
"html-keyboard-response","11","21275","0.0-5.0","","null","<div style=""font-size:100px;"">+</div>","null","delaylearn","learning","ITI","62b5fea64b239d91783414ff","Xt5RMkhvlDTA4mN4QAC5bzsjOMl1","","","","","","","","","","","","","","","","","","","1938","",""
"html-keyboard-response","12","22623","0.0-6.0-0.0","","1346.5","<div style=""display: flex; flex-direction: column; align-items: center; margin-top: -40px;""><img src=""images/demo_images/pattern_1.png"" style=""width: 234px; height: 230px; margin-top: -50px;""><div style=""display: flex; justify-content: space-between; margin-top: 33px;""><img src=""images/demo_images/choice_trial_1.png"" style=""width: 408px; height: 417px; margin-right: 200px;""><img src=""images/demo_images/choice_trial_2.png"" style=""width: 408px; height: 417px;""></div></div>","f","delaylearn","learning","trial","62b5fea64b239d91783414ff","Xt5RMkhvlDTA4mN4QAC5bzsjOMl1","3","images/demo_images/choice_trial_1.png","images/demo_images/choice_trial_2.png","images/demo_images/pattern_1.png","j","f","3000","1","2","20","0","3","1","0","1","20","","","","",""
"html-keyboard-response","13","23634","0.0-6.0-1.0","","null","<div style=""display: flex; flex-direction: column; align-items: center; margin-top: -40px;""><img src=""images/demo_images/pattern_1.png"" style=""width: 234px; height: 230px; margin-top: -50px;""><div style=""display: flex; justify-content: space-between; margin-top: 33px;""><img src=""images/demo_images/choice_trial_1.png"" style=""width: 408px; height: 417px; margin-right: 608px;""></div></div>","null","delaylearn","learning","display_response","62b5fea64b239d91783414ff","Xt5RMkhvlDTA4mN4QAC5bzsjOMl1","","","","","","","","","","","","","","","","","chosen stimuli: images/demo_images/choice_trial_1.png","","","",""
"html-keyboard-response","14","26651","0.0-6.0-2.0","","null","","null","delaylearn","learning","feedback_duration_window","62b5fea64b239d91783414ff","Xt5RMkhvlDTA4mN4QAC5bzsjOMl1","","","","","","","","","","","","","","","","","","3000","","",""
"html-keyboard-response","15","28163","0.0-6.0-3.0","","null","<div style='margin:auto;width: auto; font-size: 150%'><span style='font-weight: bold; font-size: 100px; color: red;'>0 points!</span><br><br></div>","null","delaylearn","learning","feedback_image_window","62b5fea64b239d91783414ff","Xt5RMkhvlDTA4mN4QAC5bzsjOMl1","","","","","","","","","","","","","","","","","","","","",""
"html-keyboard-response","16","30049","0.0-7.0","","null","<div style=""font-size:100px;"">+</div>","null","delaylearn","learning","ITI","62b5fea64b239d91783414ff","Xt5RMkhvlDTA4mN4QAC5bzsjOMl1","","","","","","","","","","","","","","","","","","","1881","",""
"html-keyboard-response","17","31312","0.0-8.0-0.0","","1260.6999999955297","<div style=""display: flex; flex-direction: column; align-items: center; margin-top: -40px;""><img src=""images/demo_images/pattern_1.png"" style=""width: 234px; height: 230px; margin-top: -50px;""><div style=""display: flex; justify-content: space-between; margin-top: 33px;""><img src=""images/demo_images/choice_trial_1.png"" style=""width: 408px; height: 417px; margin-right: 200px;""><img src=""images/demo_images/choice_trial_2.png"" style=""width: 408px; height: 417px;""></div></div>","j","delaylearn","learning","trial","62b5fea64b239d91783414ff","Xt5RMkhvlDTA4mN4QAC5bzsjOMl1","3","images/demo_images/choice_trial_1.png","images/demo_images/choice_trial_2.png","images/demo_images/pattern_1.png","f","f","3000","1","2","20","0","4","0","0","2","20","","","","",""
"html-keyboard-response","18","32317","0.0-8.0-1.0","","null","<div style=""display: flex; flex-direction: column; align-items: center; margin-top: -40px;""><img src=""images/demo_images/pattern_1.png"" style=""width: 234px; height: 230px; margin-top: -50px;""><div style=""display: flex; justify-content: space-between; margin-top: 33px;""><img src=""images/demo_images/choice_trial_2.png"" style=""width: 408px; height: 417px; margin-left:608px;""></div></div>","null","delaylearn","learning","display_response","62b5fea64b239d91783414ff","Xt5RMkhvlDTA4mN4QAC5bzsjOMl1","","","","","","","","","","","","","","","","","chosen stimuli: images/demo_images/choice_trial_2.png","","","",""
"html-keyboard-response","19","35326","0.0-8.0-2.0","","null","","null","delaylearn","learning","feedback_duration_window","62b5fea64b239d91783414ff","Xt5RMkhvlDTA4mN4QAC5bzsjOMl1","","","","","","","","","","","","","","","","","","3000","","",""
"html-keyboard-response","20","36834","0.0-8.0-3.0","","null","<div style='margin:auto;width: auto; font-size: 150%'><span style='font-weight: bold; font-size: 100px; color: red;'>0 points!</span><br><br></div>","null","delaylearn","learning","feedback_image_window","62b5fea64b239d91783414ff","Xt5RMkhvlDTA4mN4QAC5bzsjOMl1","","","","","","","","","","","","","","","","","","","","",""
"html-keyboard-response","21","37344","0.0-9.0-0.0","","null","","null","","","mood_trial_fixation","","","","","","","","","","","","","","","","","","","","","","",""
"lmdlab-html-vas-response","22","41666","0.0-9.0-1.0","","3289","How happy are you right now?","0.5033222591362126","delaylearn","learning","mood_trial","62b5fea64b239d91783414ff","Xt5RMkhvlDTA4mN4QAC5bzsjOMl1","","","","","","","","","","","","","","","","","","","","[""Very unhappy"",""Very happy""]",""
"html-keyboard-response","23","43319","0.0-10.0","","null","<div style=""font-size:100px;"">+</div>","null","delaylearn","learning","ITI","62b5fea64b239d91783414ff","Xt5RMkhvlDTA4mN4QAC5bzsjOMl1","","","","","","","","","","","","","","","","","","","1650","",""
"html-keyboard-response","24","44724","0.0-11.0-0.0","","1402.1000000014901","<div style=""display: flex; flex-direction: column; align-items: center; margin-top: -40px;""><img src=""images/demo_images/pattern_1.png"" style=""width: 234px; height: 230px; margin-top: -50px;""><div style=""display: flex; justify-content: space-between; margin-top: 33px;""><img src=""images/demo_images/choice_trial_2.png"" style=""width: 408px; height: 417px; margin-right: 200px;""><img src=""images/demo_images/choice_trial_1.png"" style=""width: 408px; height: 417px;""></div></div>","j","delaylearn","learning","trial","62b5fea64b239d91783414ff","Xt5RMkhvlDTA4mN4QAC5bzsjOMl1","3","images/demo_images/choice_trial_2.png","images/demo_images/choice_trial_1.png","images/demo_images/pattern_1.png","j","j","3000","2","1","20","1","5","1","1","1","30","","","","",""
"html-keyboard-response","25","45728","0.0-11.0-1.0","","null","<div style=""display: flex; flex-direction: column; align-items: center; margin-top: -40px;""><img src=""images/demo_images/pattern_1.png"" style=""width: 234px; height: 230px; margin-top: -50px;""><div style=""display: flex; justify-content: space-between; margin-top: 33px;""><img src=""images/demo_images/choice_trial_1.png"" style=""width: 408px; height: 417px; margin-left:608px;""></div></div>","null","delaylearn","learning","display_response","62b5fea64b239d91783414ff","Xt5RMkhvlDTA4mN4QAC5bzsjOMl1","","","","","","","","","","","","","","","","","chosen stimuli: images/demo_images/choice_trial_1.png","","","",""
"html-keyboard-response","26","48732","0.0-11.0-2.0","","null","","null","delaylearn","learning","feedback_duration_window","62b5fea64b239d91783414ff","Xt5RMkhvlDTA4mN4QAC5bzsjOMl1","","","","","","","","","","","","","","","","","","3000","","",""
"html-keyboard-response","27","50237","0.0-11.0-3.0","","null","<div style='margin:auto;width: auto; font-size: 150%'><span style='font-weight: bold; font-size: 100px; color: green;'>+10 points!</span><br><br></div>","null","delaylearn","learning","feedback_image_window","62b5fea64b239d91783414ff","Xt5RMkhvlDTA4mN4QAC5bzsjOMl1","","","","","","","","","","","","","","","","","","","","",""
"html-keyboard-response","28","51827","0.0-12.0","","null","<div style=""font-size:100px;"">+</div>","null","delaylearn","learning","ITI","62b5fea64b239d91783414ff","Xt5RMkhvlDTA4mN4QAC5bzsjOMl1","","","","","","","","","","","","","","","","","","","1574","",""
"html-keyboard-response","29","53344","0.0-13.0-0.0","","1514.2000000029802","<div style=""display: flex; flex-direction: column; align-items: center; margin-top: -40px;""><img src=""images/demo_images/pattern_1.png"" style=""width: 234px; height: 230px; margin-top: -50px;""><div style=""display: flex; justify-content: space-between; margin-top: 33px;""><img src=""images/demo_images/choice_trial_1.png"" style=""width: 408px; height: 417px; margin-right: 200px;""><img src=""images/demo_images/choice_trial_2.png"" style=""width: 408px; height: 417px;""></div></div>","f","delaylearn","learning","trial","62b5fea64b239d91783414ff","Xt5RMkhvlDTA4mN4QAC5bzsjOMl1","3","images/demo_images/choice_trial_1.png","images/demo_images/choice_trial_2.png","images/demo_images/pattern_1.png","f","f","3000","1","2","20","0","6","1","1","1","40","","","","",""
"html-keyboard-response","30","54353","0.0-13.0-1.0","","null","<div style=""display: flex; flex-direction: column; align-items: center; margin-top: -40px;""><img src=""images/demo_images/pattern_1.png"" style=""width: 234px; height: 230px; margin-top: -50px;""><div style=""display: flex; justify-content: space-between; margin-top: 33px;""><img src=""images/demo_images/choice_trial_1.png"" style=""width: 408px; height: 417px; margin-right: 608px;""></div></div>","null","delaylearn","learning","display_response","62b5fea64b239d91783414ff","Xt5RMkhvlDTA4mN4QAC5bzsjOMl1","","","","","","","","","","","","","","","","","chosen stimuli: images/demo_images/choice_trial_1.png","","","",""
"html-keyboard-response","31","57361","0.0-13.0-2.0","","null","","null","delaylearn","learning","feedback_duration_window","62b5fea64b239d91783414ff","Xt5RMkhvlDTA4mN4QAC5bzsjOMl1","","","","","","","","","","","","","","","","","","3000","","",""
"html-keyboard-response","32","58867","0.0-13.0-3.0","","null","<div style='margin:auto;width: auto; font-size: 150%'><span style='font-weight: bold; font-size: 100px; color: green;'>+10 points!</span><br><br></div>","null","delaylearn","learning","feedback_image_window","62b5fea64b239d91783414ff","Xt5RMkhvlDTA4mN4QAC5bzsjOMl1","","","","","","","","","","","","","","","","","","","","",""
"html-keyboard-response","33","60452","0.0-14.0","","null","<div style=""font-size:100px;"">+</div>","null","delaylearn","learning","ITI","62b5fea64b239d91783414ff","Xt5RMkhvlDTA4mN4QAC5bzsjOMl1","","","","","","","","","","","","","","","","","","","1571","",""
"html-keyboard-response","34","62068","0.0-15.0-0.0","","1612.3999999985099","<div style=""display: flex; flex-direction: column; align-items: center; margin-top: -40px;""><img src=""images/demo_images/pattern_1.png"" style=""width: 234px; height: 230px; margin-top: -50px;""><div style=""display: flex; justify-content: space-between; margin-top: 33px;""><img src=""images/demo_images/choice_trial_2.png"" style=""width: 408px; height: 417px; margin-right: 200px;""><img src=""images/demo_images/choice_trial_1.png"" style=""width: 408px; height: 417px;""></div></div>","j","delaylearn","learning","trial","62b5fea64b239d91783414ff","Xt5RMkhvlDTA4mN4QAC5bzsjOMl1","3","images/demo_images/choice_trial_2.png","images/demo_images/choice_trial_1.png","images/demo_images/pattern_1.png","j","j","3000","2","1","20","1","7","1","1","1","50","","","","",""
"html-keyboard-response","35","63085","0.0-15.0-1.0","","null","<div style=""display: flex; flex-direction: column; align-items: center; margin-top: -40px;""><img src=""images/demo_images/pattern_1.png"" style=""width: 234px; height: 230px; margin-top: -50px;""><div style=""display: flex; justify-content: space-between; margin-top: 33px;""><img src=""images/demo_images/choice_trial_1.png"" style=""width: 408px; height: 417px; margin-left:608px;""></div></div>","null","delaylearn","learning","display_response","62b5fea64b239d91783414ff","Xt5RMkhvlDTA4mN4QAC5bzsjOMl1","","","","","","","","","","","","","","","","","chosen stimuli: images/demo_images/choice_trial_1.png","","","",""
"html-keyboard-response","36","66103","0.0-15.0-2.0","","null","","null","delaylearn","learning","feedback_duration_window","62b5fea64b239d91783414ff","Xt5RMkhvlDTA4mN4QAC5bzsjOMl1","","","","","","","","","","","","","","","","","","3000","","",""
"html-keyboard-response","37","67617","0.0-15.0-3.0","","null","<div style='margin:auto;width: auto; font-size: 150%'><span style='font-weight: bold; font-size: 100px; color: green;'>+10 points!</span><br><br></div>","null","delaylearn","learning","feedback_image_window","62b5fea64b239d91783414ff","Xt5RMkhvlDTA4mN4QAC5bzsjOMl1","","","","","","","","","","","","","","","","","","","","",""
"html-keyboard-response","38","69654","0.0-16.0","","null","<div style=""font-size:100px;"">+</div>","null","delaylearn","learning","ITI","62b5fea64b239d91783414ff","Xt5RMkhvlDTA4mN4QAC5bzsjOMl1","","","","","","","","","","","","","","","","","","","2023","",""
"html-keyboard-response","39","70553","0.0-17.0-0.0","","896.8999999985099","<div style=""display: flex; flex-direction: column; align-items: center; margin-top: -40px;""><img src=""images/demo_images/pattern_1.png"" style=""width: 234px; height: 230px; margin-top: -50px;""><div style=""display: flex; justify-content: space-between; margin-top: 33px;""><img src=""images/demo_images/choice_trial_1.png"" style=""width: 408px; height: 417px; margin-right: 200px;""><img src=""images/demo_images/choice_trial_2.png"" style=""width: 408px; height: 417px;""></div></div>","f","delaylearn","learning","trial","62b5fea64b239d91783414ff","Xt5RMkhvlDTA4mN4QAC5bzsjOMl1","3","images/demo_images/choice_trial_1.png","images/demo_images/choice_trial_2.png","images/demo_images/pattern_1.png","f","f","3000","1","2","20","0","8","1","1","1","60","","","","",""
"html-keyboard-response","40","71562","0.0-17.0-1.0","","null","<div style=""display: flex; flex-direction: column; align-items: center; margin-top: -40px;""><img src=""images/demo_images/pattern_1.png"" style=""width: 234px; height: 230px; margin-top: -50px;""><div style=""display: flex; justify-content: space-between; margin-top: 33px;""><img src=""images/demo_images/choice_trial_1.png"" style=""width: 408px; height: 417px; margin-right: 608px;""></div></div>","null","delaylearn","learning","display_response","62b5fea64b239d91783414ff","Xt5RMkhvlDTA4mN4QAC5bzsjOMl1","","","","","","","","","","","","","","","","","chosen stimuli: images/demo_images/choice_trial_1.png","","","",""
"html-keyboard-response","41","74573","0.0-17.0-2.0","","null","","null","delaylearn","learning","feedback_duration_window","62b5fea64b239d91783414ff","Xt5RMkhvlDTA4mN4QAC5bzsjOMl1","","","","","","","","","","","","","","","","","","3000","","",""
"html-keyboard-response","42","76078","0.0-17.0-3.0","","null","<div style='margin:auto;width: auto; font-size: 150%'><span style='font-weight: bold; font-size: 100px; color: green;'>+10 points!</span><br><br></div>","null","delaylearn","learning","feedback_image_window","62b5fea64b239d91783414ff","Xt5RMkhvlDTA4mN4QAC5bzsjOMl1","","","","","","","","","","","","","","","","","","","","",""
"html-button-response","43","81688","0.0-18.0","","5606.30000000447","
  <div style=""display: flex; align-items: center; justify-content: center; height: 80vh;"">
  <div>
          <img src=""images/inst_demo_finish.png"" style=""width: 80vw; height:auto;"">
          <br><br>
      </div>
      <br><br>
  </div>","0","","","","","","","","","","","","","","","","","","","","","","","","","",""
"html-keyboard-response","44","88526","0.0-19.0","","6836.10000000149","
  <div style=""display: flex; align-items: center; justify-content: center; height: 80vh;"">
  <div>
          <img src=""images/inst_6.png"" style=""width: 80vw; height:auto;"">
          <br><br>
      </div>
      <br><br>
  </div>","j","","","","","","","","","","","","","","","","","","","","","","","","","",""
"html-keyboard-response","45","91534","0.0-20.0","","null","<div style=""font-size:100px;"">+</div>","null","delaylearn","learning","pre_fixation","62b5fea64b239d91783414ff","","","","","","","","","","","","","","","","","","","","","",""
"html-keyboard-response","46","93556","0.0-21.0","","null","<div style=""font-size:100px;"">+</div>","null","delaylearn","learning","ITI","62b5fea64b239d91783414ff","Xt5RMkhvlDTA4mN4QAC5bzsjOMl1","","","","","","","","","","","","","","","","","","","2015","",""
"html-keyboard-response","47","94786","0.0-22.0-0.0","","1226.9000000059605","<div style=""display: flex; flex-direction: column; align-items: center; margin-top: -40px;""><img src=""images/pattern_3.png"" style=""width: 234px; height: 230px; margin-top: -50px;""><div style=""display: flex; justify-content: space-between; margin-top: 33px;""><img src=""images/choice_trial_13.png"" style=""width: 408px; height: 417px; margin-right: 200px;""><img src=""images/choice_trial_10.png"" style=""width: 408px; height: 417px;""></div></div>","j","delaylearn","learning","trial","62b5fea64b239d91783414ff","Xt5RMkhvlDTA4mN4QAC5bzsjOMl1","3","images/choice_trial_13.png","images/choice_trial_10.png","images/pattern_3.png","f","f","7000","13","10","2","0","9","0","0","10","60","","","","",""
"html-keyboard-response","48","95803","0.0-22.0-1.0","","null","<div style=""display: flex; flex-direction: column; align-items: center; margin-top: -40px;""><img src=""images/pattern_3.png"" style=""width: 234px; height: 230px; margin-top: -50px;""><div style=""display: flex; justify-content: space-between; margin-top: 33px;""><img src=""images/choice_trial_10.png"" style=""width: 408px; height: 417px; margin-left:608px;""></div></div>","null","delaylearn","learning","display_response","62b5fea64b239d91783414ff","Xt5RMkhvlDTA4mN4QAC5bzsjOMl1","","","","","","","","","","","","","","","","","chosen stimuli: images/choice_trial_10.png","","","",""
"html-keyboard-response","49","102814","0.0-22.0-2.0","","null","","null","delaylearn","learning","feedback_duration_window","62b5fea64b239d91783414ff","Xt5RMkhvlDTA4mN4QAC5bzsjOMl1","","","","","","","","","","","","","","","","","","7000","","",""
"html-keyboard-response","50","104327","0.0-22.0-3.0","","null","<div style='margin:auto;width: auto; font-size: 150%'><span style='font-weight: bold; font-size: 100px; color: red;'>0 points!</span><br><br></div>","null","delaylearn","learning","feedback_image_window","62b5fea64b239d91783414ff","Xt5RMkhvlDTA4mN4QAC5bzsjOMl1","","","","","","","","","","","","","","","","","","","","",""
"html-keyboard-response","51","106012","0.0-23.0","","null","<div style=""font-size:100px;"">+</div>","null","delaylearn","learning","ITI","62b5fea64b239d91783414ff","Xt5RMkhvlDTA4mN4QAC5bzsjOMl1","","","","","","","","","","","","","","","","","","","1671","",""
"html-keyboard-response","52","107154","0.0-24.0-0.0","","1138.3999999985099","<div style=""display: flex; flex-direction: column; align-items: center; margin-top: -40px;""><img src=""images/pattern_7.png"" style=""width: 234px; height: 230px; margin-top: -50px;""><div style=""display: flex; justify-content: space-between; margin-top: 33px;""><img src=""images/choice_trial_12.png"" style=""width: 408px; height: 417px; margin-right: 200px;""><img src=""images/choice_trial_6.png"" style=""width: 408px; height: 417px;""></div></div>","j","delaylearn","learning","trial","62b5fea64b239d91783414ff","Xt5RMkhvlDTA4mN4QAC5bzsjOMl1","3","images/choice_trial_12.png","images/choice_trial_6.png","images/pattern_7.png","j","j","750","12","6","6","1","10","1","1","6","70","","","","",""
"html-keyboard-response","53","108170","0.0-24.0-1.0","","null","<div style=""display: flex; flex-direction: column; align-items: center; margin-top: -40px;""><img src=""images/pattern_7.png"" style=""width: 234px; height: 230px; margin-top: -50px;""><div style=""display: flex; justify-content: space-between; margin-top: 33px;""><img src=""images/choice_trial_6.png"" style=""width: 408px; height: 417px; margin-left:608px;""></div></div>","null","delaylearn","learning","display_response","62b5fea64b239d91783414ff","Xt5RMkhvlDTA4mN4QAC5bzsjOMl1","","","","","","","","","","","","","","","","","chosen stimuli: images/choice_trial_6.png","","","",""
"html-keyboard-response","54","108935","0.0-24.0-2.0","","null","","null","delaylearn","learning","feedback_duration_window","62b5fea64b239d91783414ff","Xt5RMkhvlDTA4mN4QAC5bzsjOMl1","","","","","","","","","","","","","","","","","","750","","",""
"html-keyboard-response","55","110450","0.0-24.0-3.0","","null","<div style='margin:auto;width: auto; font-size: 150%'><span style='font-weight: bold; font-size: 100px; color: green;'>+10 points!</span><br><br></div>","null","delaylearn","learning","feedback_image_window","62b5fea64b239d91783414ff","Xt5RMkhvlDTA4mN4QAC5bzsjOMl1","","","","","","","","","","","","","","","","","","","","",""
"html-keyboard-response","56","112783","0.0-25.0","","null","<div style=""font-size:100px;"">+</div>","null","delaylearn","learning","ITI","62b5fea64b239d91783414ff","Xt5RMkhvlDTA4mN4QAC5bzsjOMl1","","","","","","","","","","","","","","","","","","","2329","",""
"html-keyboard-response","57","114514","0.0-26.0-0.0","","1726.8999999985099","<div style=""display: flex; flex-direction: column; align-items: center; margin-top: -40px;""><img src=""images/pattern_4.png"" style=""width: 234px; height: 230px; margin-top: -50px;""><div style=""display: flex; justify-content: space-between; margin-top: 33px;""><img src=""images/choice_trial_15.png"" style=""width: 408px; height: 417px; margin-right: 200px;""><img src=""images/choice_trial_9.png"" style=""width: 408px; height: 417px;""></div></div>","j","delaylearn","learning","trial","62b5fea64b239d91783414ff","Xt5RMkhvlDTA4mN4QAC5bzsjOMl1","3","images/choice_trial_15.png","images/choice_trial_9.png","images/pattern_4.png","f","f","7000","15","9","3","0","11","0","0","9","70","","","","",""
"html-keyboard-response","58","115527","0.0-26.0-1.0","","null","<div style=""display: flex; flex-direction: column; align-items: center; margin-top: -40px;""><img src=""images/pattern_4.png"" style=""width: 234px; height: 230px; margin-top: -50px;""><div style=""display: flex; justify-content: space-between; margin-top: 33px;""><img src=""images/choice_trial_9.png"" style=""width: 408px; height: 417px; margin-left:608px;""></div></div>","null","delaylearn","learning","display_response","62b5fea64b239d91783414ff","Xt5RMkhvlDTA4mN4QAC5bzsjOMl1","","","","","","","","","","","","","","","","","chosen stimuli: images/choice_trial_9.png","","","",""
"html-keyboard-response","59","122533","0.0-26.0-2.0","","null","","null","delaylearn","learning","feedback_duration_window","62b5fea64b239d91783414ff","Xt5RMkhvlDTA4mN4QAC5bzsjOMl1","","","","","","","","","","","","","","","","","","7000","","",""
"html-keyboard-response","60","124052","0.0-26.0-3.0","","null","<div style='margin:auto;width: auto; font-size: 150%'><span style='font-weight: bold; font-size: 100px; color: red;'>0 points!</span><br><br></div>","null","delaylearn","learning","feedback_image_window","62b5fea64b239d91783414ff","Xt5RMkhvlDTA4mN4QAC5bzsjOMl1","","","","","","","","","","","","","","","","","","","","",""
"html-keyboard-response","61","125751","0.0-27.0","","null","<div style=""font-size:100px;"">+</div>","null","delaylearn","learning","ITI","62b5fea64b239d91783414ff","Xt5RMkhvlDTA4mN4QAC5bzsjOMl1","","","","","","","","","","","","","","","","","","","1694","",""
"html-keyboard-response","62","126925","0.0-28.0-0.0","","1169","<div style=""display: flex; flex-direction: column; align-items: center; margin-top: -40px;""><img src=""images/pattern_5.png"" style=""width: 234px; height: 230px; margin-top: -50px;""><div style=""display: flex; justify-content: space-between; margin-top: 33px;""><img src=""images/choice_trial_2.png"" style=""width: 408px; height: 417px; margin-right: 200px;""><img src=""images/choice_trial_11.png"" style=""width: 408px; height: 417px;""></div></div>","j","delaylearn","learning","trial","62b5fea64b239d91783414ff","Xt5RMkhvlDTA4mN4QAC5bzsjOMl1","3","images/choice_trial_2.png","images/choice_trial_11.png","images/pattern_5.png","j","j","750","2","11","4","1","12","1","1","11","80","","","","",""
"html-keyboard-response","63","127930","0.0-28.0-1.0","","null","<div style=""display: flex; flex-direction: column; align-items: center; margin-top: -40px;""><img src=""images/pattern_5.png"" style=""width: 234px; height: 230px; margin-top: -50px;""><div style=""display: flex; justify-content: space-between; margin-top: 33px;""><img src=""images/choice_trial_11.png"" style=""width: 408px; height: 417px; margin-left:608px;""></div></div>","null","delaylearn","learning","display_response","62b5fea64b239d91783414ff","Xt5RMkhvlDTA4mN4QAC5bzsjOMl1","","","","","","","","","","","","","","","","","chosen stimuli: images/choice_trial_11.png","","","",""
"html-keyboard-response","64","128693","0.0-28.0-2.0","","null","","null","delaylearn","learning","feedback_duration_window","62b5fea64b239d91783414ff","Xt5RMkhvlDTA4mN4QAC5bzsjOMl1","","","","","","","","","","","","","","","","","","750","","",""
"html-keyboard-response","65","130204","0.0-28.0-3.0","","null","<div style='margin:auto;width: auto; font-size: 150%'><span style='font-weight: bold; font-size: 100px; color: green;'>+10 points!</span><br><br></div>","null","delaylearn","learning","feedback_image_window","62b5fea64b239d91783414ff","Xt5RMkhvlDTA4mN4QAC5bzsjOMl1","","","","","","","","","","","","","","","","","","","","",""
"html-keyboard-response","66","131886","0.0-29.0","","null","<div style=""font-size:100px;"">+</div>","null","delaylearn","learning","ITI","62b5fea64b239d91783414ff","Xt5RMkhvlDTA4mN4QAC5bzsjOMl1","","","","","","","","","","","","","","","","","","","1677","",""
"html-keyboard-response","67","133519","0.0-30.0-0.0","","1628.5","<div style=""display: flex; flex-direction: column; align-items: center; margin-top: -40px;""><img src=""images/pattern_6.png"" style=""width: 234px; height: 230px; margin-top: -50px;""><div style=""display: flex; justify-content: space-between; margin-top: 33px;""><img src=""images/choice_trial_16.png"" style=""width: 408px; height: 417px; margin-right: 200px;""><img src=""images/choice_trial_3.png"" style=""width: 408px; height: 417px;""></div></div>","f","delaylearn","learning","trial","62b5fea64b239d91783414ff","Xt5RMkhvlDTA4mN4QAC5bzsjOMl1","3","images/choice_trial_16.png","images/choice_trial_3.png","images/pattern_6.png","j","f","750","16","3","5","0","13","1","0","16","80","","","","",""
"html-keyboard-response","68","134533","0.0-30.0-1.0","","null","<div style=""display: flex; flex-direction: column; align-items: center; margin-top: -40px;""><img src=""images/pattern_6.png"" style=""width: 234px; height: 230px; margin-top: -50px;""><div style=""display: flex; justify-content: space-between; margin-top: 33px;""><img src=""images/choice_trial_16.png"" style=""width: 408px; height: 417px; margin-right: 608px;""></div></div>","null","delaylearn","learning","display_response","62b5fea64b239d91783414ff","Xt5RMkhvlDTA4mN4QAC5bzsjOMl1","","","","","","","","","","","","","","","","","chosen stimuli: images/choice_trial_16.png","","","",""
"html-keyboard-response","69","135293","0.0-30.0-2.0","","null","","null","delaylearn","learning","feedback_duration_window","62b5fea64b239d91783414ff","Xt5RMkhvlDTA4mN4QAC5bzsjOMl1","","","","","","","","","","","","","","","","","","750","","",""
"html-keyboard-response","70","136808","0.0-30.0-3.0","","null","<div style='margin:auto;width: auto; font-size: 150%'><span style='font-weight: bold; font-size: 100px; color: red;'>0 points!</span><br><br></div>","null","delaylearn","learning","feedback_image_window","62b5fea64b239d91783414ff","Xt5RMkhvlDTA4mN4QAC5bzsjOMl1","","","","","","","","","","","","","","","","","","","","",""
"html-keyboard-response","71","137318","0.0-31.0-0.0","","null","","null","","","mood_trial_fixation","","","","","","","","","","","","","","","","","","","","","","",""
"lmdlab-html-vas-response","72","150695","0.0-31.0-1.0","","12364","How happy are you right now?","0.5985603543743079","delaylearn","learning","mood_trial","62b5fea64b239d91783414ff","Xt5RMkhvlDTA4mN4QAC5bzsjOMl1","","","","","","","","","","","","","","","","","","","","[""Very unhappy"",""Very happy""]",""
"html-keyboard-response","73","152272","0.0-32.0","","null","<div style=""font-size:100px;"">+</div>","null","delaylearn","learning","ITI","62b5fea64b239d91783414ff","Xt5RMkhvlDTA4mN4QAC5bzsjOMl1","","","","","","","","","","","","","","","","","","","1572","",""
"html-keyboard-response","74","154214","0.0-33.0-0.0","","1940.5","<div style=""display: flex; flex-direction: column; align-items: center; margin-top: -40px;""><img src=""images/pattern_1.png"" style=""width: 234px; height: 230px; margin-top: -50px;""><div style=""display: flex; justify-content: space-between; margin-top: 33px;""><img src=""images/choice_trial_8.png"" style=""width: 408px; height: 417px; margin-right: 200px;""><img src=""images/choice_trial_14.png"" style=""width: 408px; height: 417px;""></div></div>","j","delaylearn","learning","trial","62b5fea64b239d91783414ff","Xt5RMkhvlDTA4mN4QAC5bzsjOMl1","3","images/choice_trial_8.png","images/choice_trial_14.png","images/pattern_1.png","j","j","7000","8","14","1","1","14","1","1","14","90","","","","",""
"html-keyboard-response","75","155232","0.0-33.0-1.0","","null","<div style=""display: flex; flex-direction: column; align-items: center; margin-top: -40px;""><img src=""images/pattern_1.png"" style=""width: 234px; height: 230px; margin-top: -50px;""><div style=""display: flex; justify-content: space-between; margin-top: 33px;""><img src=""images/choice_trial_14.png"" style=""width: 408px; height: 417px; margin-left:608px;""></div></div>","null","delaylearn","learning","display_response","62b5fea64b239d91783414ff","Xt5RMkhvlDTA4mN4QAC5bzsjOMl1","","","","","","","","","","","","","","","","","chosen stimuli: images/choice_trial_14.png","","","",""
"html-keyboard-response","76","162247","0.0-33.0-2.0","","null","","null","delaylearn","learning","feedback_duration_window","62b5fea64b239d91783414ff","Xt5RMkhvlDTA4mN4QAC5bzsjOMl1","","","","","","","","","","","","","","","","","","7000","","",""
"html-keyboard-response","77","163751","0.0-33.0-3.0","","null","<div style='margin:auto;width: auto; font-size: 150%'><span style='font-weight: bold; font-size: 100px; color: green;'>+10 points!</span><br><br></div>","null","delaylearn","learning","feedback_image_window","62b5fea64b239d91783414ff","Xt5RMkhvlDTA4mN4QAC5bzsjOMl1","","","","","","","","","","","","","","","","","","","","",""
"html-keyboard-response","78","165660","0.0-34.0","","null","<div style=""font-size:100px;"">+</div>","null","delaylearn","learning","ITI","62b5fea64b239d91783414ff","Xt5RMkhvlDTA4mN4QAC5bzsjOMl1","","","","","","","","","","","","","","","","","","","1893","",""
"html-keyboard-response","79","168059","0.0-35.0-0.0","","2396","<div style=""display: flex; flex-direction: column; align-items: center; margin-top: -40px;""><img src=""images/pattern_3.png"" style=""width: 234px; height: 230px; margin-top: -50px;""><div style=""display: flex; justify-content: space-between; margin-top: 33px;""><img src=""images/choice_trial_10.png"" style=""width: 408px; height: 417px; margin-right: 200px;""><img src=""images/choice_trial_13.png"" style=""width: 408px; height: 417px;""></div></div>","j","delaylearn","learning","trial","62b5fea64b239d91783414ff","Xt5RMkhvlDTA4mN4QAC5bzsjOMl1","3","images/choice_trial_10.png","images/choice_trial_13.png","images/pattern_3.png","f","j","7000","10","13","2","1","15","1","0","13","90","","","","",""
"html-keyboard-response","80","169068","0.0-35.0-1.0","","null","<div style=""display: flex; flex-direction: column; align-items: center; margin-top: -40px;""><img src=""images/pattern_3.png"" style=""width: 234px; height: 230px; margin-top: -50px;""><div style=""display: flex; justify-content: space-between; margin-top: 33px;""><img src=""images/choice_trial_13.png"" style=""width: 408px; height: 417px; margin-left:608px;""></div></div>","null","delaylearn","learning","display_response","62b5fea64b239d91783414ff","Xt5RMkhvlDTA4mN4QAC5bzsjOMl1","","","","","","","","","","","","","","","","","chosen stimuli: images/choice_trial_13.png","","","",""
"html-keyboard-response","81","176083","0.0-35.0-2.0","","null","","null","delaylearn","learning","feedback_duration_window","62b5fea64b239d91783414ff","Xt5RMkhvlDTA4mN4QAC5bzsjOMl1","","","","","","","","","","","","","","","","","","7000","","",""
"html-keyboard-response","82","177594","0.0-35.0-3.0","","null","<div style='margin:auto;width: auto; font-size: 150%'><span style='font-weight: bold; font-size: 100px; color: red;'>0 points!</span><br><br></div>","null","delaylearn","learning","feedback_image_window","62b5fea64b239d91783414ff","Xt5RMkhvlDTA4mN4QAC5bzsjOMl1","","","","","","","","","","","","","","","","","","","","",""
"html-keyboard-response","83","179388","0.0-36.0","","null","<div style=""font-size:100px;"">+</div>","null","delaylearn","learning","ITI","62b5fea64b239d91783414ff","Xt5RMkhvlDTA4mN4QAC5bzsjOMl1","","","","","","","","","","","","","","","","","","","1779","",""
"html-keyboard-response","84","181943","0.0-37.0-0.0","","2551.7999999970198","<div style=""display: flex; flex-direction: column; align-items: center; margin-top: -40px;""><img src=""images/pattern_5.png"" style=""width: 234px; height: 230px; margin-top: -50px;""><div style=""display: flex; justify-content: space-between; margin-top: 33px;""><img src=""images/choice_trial_11.png"" style=""width: 408px; height: 417px; margin-right: 200px;""><img src=""images/choice_trial_2.png"" style=""width: 408px; height: 417px;""></div></div>","j","delaylearn","learning","trial","62b5fea64b239d91783414ff","Xt5RMkhvlDTA4mN4QAC5bzsjOMl1","3","images/choice_trial_11.png","images/choice_trial_2.png","images/pattern_5.png","f","f","750","11","2","4","0","16","0","0","2","90","","","","",""
"html-keyboard-response","85","182955","0.0-37.0-1.0","","null","<div style=""display: flex; flex-direction: column; align-items: center; margin-top: -40px;""><img src=""images/pattern_5.png"" style=""width: 234px; height: 230px; margin-top: -50px;""><div style=""display: flex; justify-content: space-between; margin-top: 33px;""><img src=""images/choice_trial_2.png"" style=""width: 408px; height: 417px; margin-left:608px;""></div></div>","null","delaylearn","learning","display_response","62b5fea64b239d91783414ff","Xt5RMkhvlDTA4mN4QAC5bzsjOMl1","","","","","","","","","","","","","","","","","chosen stimuli: images/choice_trial_2.png","","","",""
"html-keyboard-response","86","183713","0.0-37.0-2.0","","null","","null","delaylearn","learning","feedback_duration_window","62b5fea64b239d91783414ff","Xt5RMkhvlDTA4mN4QAC5bzsjOMl1","","","","","","","","","","","","","","","","","","750","","",""
"html-keyboard-response","87","185224","0.0-37.0-3.0","","null","<div style='margin:auto;width: auto; font-size: 150%'><span style='font-weight: bold; font-size: 100px; color: red;'>0 points!</span><br><br></div>","null","delaylearn","learning","feedback_image_window","62b5fea64b239d91783414ff","Xt5RMkhvlDTA4mN4QAC5bzsjOMl1","","","","","","","","","","","","","","","","","","","","",""
"html-keyboard-response","88","185733","0.0-38.0-0.0","","null","","null","","","mood_trial_fixation","","","","","","","","","","","","","","","","","","","","","","",""
"lmdlab-html-vas-response","89","189456","0.0-38.0-1.0","","2713","How happy are you right now?","0.4424141749723145","delaylearn","learning","mood_trial","62b5fea64b239d91783414ff","Xt5RMkhvlDTA4mN4QAC5bzsjOMl1","","","","","","","","","","","","","","","","","","","","[""Very unhappy"",""Very happy""]",""
"html-keyboard-response","90","191575","0.0-39.0","","null","<div style=""font-size:100px;"">+</div>","null","delaylearn","learning","ITI","62b5fea64b239d91783414ff","Xt5RMkhvlDTA4mN4QAC5bzsjOMl1","","","","","","","","","","","","","","","","","","","2112","",""
"html-keyboard-response","91","193418","0.0-40.0-0.0","","1838.6000000014901","<div style=""display: flex; flex-direction: column; align-items: center; margin-top: -40px;""><img src=""images/pattern_6.png"" style=""width: 234px; height: 230px; margin-top: -50px;""><div style=""display: flex; justify-content: space-between; margin-top: 33px;""><img src=""images/choice_trial_16.png"" style=""width: 408px; height: 417px; margin-right: 200px;""><img src=""images/choice_trial_3.png"" style=""width: 408px; height: 417px;""></div></div>","f","delaylearn","learning","trial","62b5fea64b239d91783414ff","Xt5RMkhvlDTA4mN4QAC5bzsjOMl1","3","images/choice_trial_16.png","images/choice_trial_3.png","images/pattern_6.png","f","f","750","16","3","5","0","17","1","1","16","100","","","","",""
"html-keyboard-response","92","194431","0.0-40.0-1.0","","null","<div style=""display: flex; flex-direction: column; align-items: center; margin-top: -40px;""><img src=""images/pattern_6.png"" style=""width: 234px; height: 230px; margin-top: -50px;""><div style=""display: flex; justify-content: space-between; margin-top: 33px;""><img src=""images/choice_trial_16.png"" style=""width: 408px; height: 417px; margin-right: 608px;""></div></div>","null","delaylearn","learning","display_response","62b5fea64b239d91783414ff","Xt5RMkhvlDTA4mN4QAC5bzsjOMl1","","","","","","","","","","","","","","","","","chosen stimuli: images/choice_trial_16.png","","","",""
"html-keyboard-response","93","195195","0.0-40.0-2.0","","null","","null","delaylearn","learning","feedback_duration_window","62b5fea64b239d91783414ff","Xt5RMkhvlDTA4mN4QAC5bzsjOMl1","","","","","","","","","","","","","","","","","","750","","",""
"html-keyboard-response","94","196711","0.0-40.0-3.0","","null","<div style='margin:auto;width: auto; font-size: 150%'><span style='font-weight: bold; font-size: 100px; color: green;'>+10 points!</span><br><br></div>","null","delaylearn","learning","feedback_image_window","62b5fea64b239d91783414ff","Xt5RMkhvlDTA4mN4QAC5bzsjOMl1","","","","","","","","","","","","","","","","","","","","",""
"html-keyboard-response","95","198377","0.0-41.0","","null","<div style=""font-size:100px;"">+</div>","null","delaylearn","learning","ITI","62b5fea64b239d91783414ff","Xt5RMkhvlDTA4mN4QAC5bzsjOMl1","","","","","","","","","","","","","","","","","","","1658","",""
"html-keyboard-response","96","200423","0.0-42.0-0.0","","2042","<div style=""display: flex; flex-direction: column; align-items: center; margin-top: -40px;""><img src=""images/pattern_4.png"" style=""width: 234px; height: 230px; margin-top: -50px;""><div style=""display: flex; justify-content: space-between; margin-top: 33px;""><img src=""images/choice_trial_9.png"" style=""width: 408px; height: 417px; margin-right: 200px;""><img src=""images/choice_trial_15.png"" style=""width: 408px; height: 417px;""></div></div>","f","delaylearn","learning","trial","62b5fea64b239d91783414ff","Xt5RMkhvlDTA4mN4QAC5bzsjOMl1","3","images/choice_trial_9.png","images/choice_trial_15.png","images/pattern_4.png","j","j","7000","9","15","3","1","18","0","0","9","100","","","","",""
"html-keyboard-response","97","201426","0.0-42.0-1.0","","null","<div style=""display: flex; flex-direction: column; align-items: center; margin-top: -40px;""><img src=""images/pattern_4.png"" style=""width: 234px; height: 230px; margin-top: -50px;""><div style=""display: flex; justify-content: space-between; margin-top: 33px;""><img src=""images/choice_trial_9.png"" style=""width: 408px; height: 417px; margin-right: 608px;""></div></div>","null","delaylearn","learning","display_response","62b5fea64b239d91783414ff","Xt5RMkhvlDTA4mN4QAC5bzsjOMl1","","","","","","","","","","","","","","","","","chosen stimuli: images/choice_trial_9.png","","","",""
"html-keyboard-response","98","208432","0.0-42.0-2.0","","null","","null","delaylearn","learning","feedback_duration_window","62b5fea64b239d91783414ff","Xt5RMkhvlDTA4mN4QAC5bzsjOMl1","","","","","","","","","","","","","","","","","","7000","","",""
"html-keyboard-response","99","209935","0.0-42.0-3.0","","null","<div style='margin:auto;width: auto; font-size: 150%'><span style='font-weight: bold; font-size: 100px; color: red;'>0 points!</span><br><br></div>","null","delaylearn","learning","feedback_image_window","62b5fea64b239d91783414ff","Xt5RMkhvlDTA4mN4QAC5bzsjOMl1","","","","","","","","","","","","","","","","","","","","",""
"html-keyboard-response","100","211739","0.0-43.0","","null","<div style=""font-size:100px;"">+</div>","null","delaylearn","learning","ITI","62b5fea64b239d91783414ff","Xt5RMkhvlDTA4mN4QAC5bzsjOMl1","","","","","","","","","","","","","","","","","","","1792","",""
"html-keyboard-response","101","213437","0.0-44.0-0.0","","1695.5","<div style=""display: flex; flex-direction: column; align-items: center; margin-top: -40px;""><img src=""images/pattern_7.png"" style=""width: 234px; height: 230px; margin-top: -50px;""><div style=""display: flex; justify-content: space-between; margin-top: 33px;""><img src=""images/choice_trial_6.png"" style=""width: 408px; height: 417px; margin-right: 200px;""><img src=""images/choice_trial_12.png"" style=""width: 408px; height: 417px;""></div></div>","f","delaylearn","learning","trial","62b5fea64b239d91783414ff","Xt5RMkhvlDTA4mN4QAC5bzsjOMl1","3","images/choice_trial_6.png","images/choice_trial_12.png","images/pattern_7.png","j","f","750","6","12","6","0","19","1","0","6","100","","","","",""
"html-keyboard-response","102","214447","0.0-44.0-1.0","","null","<div style=""display: flex; flex-direction: column; align-items: center; margin-top: -40px;""><img src=""images/pattern_7.png"" style=""width: 234px; height: 230px; margin-top: -50px;""><div style=""display: flex; justify-content: space-between; margin-top: 33px;""><img src=""images/choice_trial_6.png"" style=""width: 408px; height: 417px; margin-right: 608px;""></div></div>","null","delaylearn","learning","display_response","62b5fea64b239d91783414ff","Xt5RMkhvlDTA4mN4QAC5bzsjOMl1","","","","","","","","","","","","","","","","","chosen stimuli: images/choice_trial_6.png","","","",""
"html-keyboard-response","103","215204","0.0-44.0-2.0","","null","","null","delaylearn","learning","feedback_duration_window","62b5fea64b239d91783414ff","Xt5RMkhvlDTA4mN4QAC5bzsjOMl1","","","","","","","","","","","","","","","","","","750","","",""
"html-keyboard-response","104","216718","0.0-44.0-3.0","","null","<div style='margin:auto;width: auto; font-size: 150%'><span style='font-weight: bold; font-size: 100px; color: red;'>0 points!</span><br><br></div>","null","delaylearn","learning","feedback_image_window","62b5fea64b239d91783414ff","Xt5RMkhvlDTA4mN4QAC5bzsjOMl1","","","","","","","","","","","","","","","","","","","","",""
"html-keyboard-response","105","218436","0.0-45.0","","null","<div style=""font-size:100px;"">+</div>","null","delaylearn","learning","ITI","62b5fea64b239d91783414ff","Xt5RMkhvlDTA4mN4QAC5bzsjOMl1","","","","","","","","","","","","","","","","","","","1717","",""
"html-keyboard-response","106","220123","0.0-46.0-0.0","","1684.5","<div style=""display: flex; flex-direction: column; align-items: center; margin-top: -40px;""><img src=""images/pattern_1.png"" style=""width: 234px; height: 230px; margin-top: -50px;""><div style=""display: flex; justify-content: space-between; margin-top: 33px;""><img src=""images/choice_trial_14.png"" style=""width: 408px; height: 417px; margin-right: 200px;""><img src=""images/choice_trial_8.png"" style=""width: 408px; height: 417px;""></div></div>","f","delaylearn","learning","trial","62b5fea64b239d91783414ff","Xt5RMkhvlDTA4mN4QAC5bzsjOMl1","3","images/choice_trial_14.png","images/choice_trial_8.png","images/pattern_1.png","f","f","7000","14","8","1","0","20","1","1","14","110","","","","",""
"html-keyboard-response","107","221136","0.0-46.0-1.0","","null","<div style=""display: flex; flex-direction: column; align-items: center; margin-top: -40px;""><img src=""images/pattern_1.png"" style=""width: 234px; height: 230px; margin-top: -50px;""><div style=""display: flex; justify-content: space-between; margin-top: 33px;""><img src=""images/choice_trial_14.png"" style=""width: 408px; height: 417px; margin-right: 608px;""></div></div>","null","delaylearn","learning","display_response","62b5fea64b239d91783414ff","Xt5RMkhvlDTA4mN4QAC5bzsjOMl1","","","","","","","","","","","","","","","","","chosen stimuli: images/choice_trial_14.png","","","",""
"html-keyboard-response","108","228142","0.0-46.0-2.0","","null","","null","delaylearn","learning","feedback_duration_window","62b5fea64b239d91783414ff","Xt5RMkhvlDTA4mN4QAC5bzsjOMl1","","","","","","","","","","","","","","","","","","7000","","",""
"html-keyboard-response","109","229647","0.0-46.0-3.0","","null","<div style='margin:auto;width: auto; font-size: 150%'><span style='font-weight: bold; font-size: 100px; color: green;'>+10 points!</span><br><br></div>","null","delaylearn","learning","feedback_image_window","62b5fea64b239d91783414ff","Xt5RMkhvlDTA4mN4QAC5bzsjOMl1","","","","","","","","","","","","","","","","","","","","",""
"html-keyboard-response","110","231437","0.0-47.0","","null","<div style=""font-size:100px;"">+</div>","null","delaylearn","learning","ITI","62b5fea64b239d91783414ff","Xt5RMkhvlDTA4mN4QAC5bzsjOMl1","","","","","","","","","","","","","","","","","","","1780","",""
"html-keyboard-response","111","234404","0.0-48.0-0.0","","2962","<div style=""display: flex; flex-direction: column; align-items: center; margin-top: -40px;""><img src=""images/pattern_6.png"" style=""width: 234px; height: 230px; margin-top: -50px;""><div style=""display: flex; justify-content: space-between; margin-top: 33px;""><img src=""images/choice_trial_3.png"" style=""width: 408px; height: 417px; margin-right: 200px;""><img src=""images/choice_trial_16.png"" style=""width: 408px; height: 417px;""></div></div>","f","delaylearn","learning","trial","62b5fea64b239d91783414ff","Xt5RMkhvlDTA4mN4QAC5bzsjOMl1","3","images/choice_trial_3.png","images/choice_trial_16.png","images/pattern_6.png","j","j","750","3","16","5","1","21","0","0","3","110","","","","",""
"html-keyboard-response","112","235415","0.0-48.0-1.0","","null","<div style=""display: flex; flex-direction: column; align-items: center; margin-top: -40px;""><img src=""images/pattern_6.png"" style=""width: 234px; height: 230px; margin-top: -50px;""><div style=""display: flex; justify-content: space-between; margin-top: 33px;""><img src=""images/choice_trial_3.png"" style=""width: 408px; height: 417px; margin-right: 608px;""></div></div>","null","delaylearn","learning","display_response","62b5fea64b239d91783414ff","Xt5RMkhvlDTA4mN4QAC5bzsjOMl1","","","","","","","","","","","","","","","","","chosen stimuli: images/choice_trial_3.png","","","",""
"html-keyboard-response","113","236180","0.0-48.0-2.0","","null","","null","delaylearn","learning","feedback_duration_window","62b5fea64b239d91783414ff","Xt5RMkhvlDTA4mN4QAC5bzsjOMl1","","","","","","","","","","","","","","","","","","750","","",""
"html-keyboard-response","114","237696","0.0-48.0-3.0","","null","<div style='margin:auto;width: auto; font-size: 150%'><span style='font-weight: bold; font-size: 100px; color: red;'>0 points!</span><br><br></div>","null","delaylearn","learning","feedback_image_window","62b5fea64b239d91783414ff","Xt5RMkhvlDTA4mN4QAC5bzsjOMl1","","","","","","","","","","","","","","","","","","","","",""
"html-keyboard-response","115","239691","0.0-49.0","","null","<div style=""font-size:100px;"">+</div>","null","delaylearn","learning","ITI","62b5fea64b239d91783414ff","Xt5RMkhvlDTA4mN4QAC5bzsjOMl1","","","","","","","","","","","","","","","","","","","1983","",""
"html-keyboard-response","116","241789","0.0-50.0-0.0","","2095.89999999851","<div style=""display: flex; flex-direction: column; align-items: center; margin-top: -40px;""><img src=""images/pattern_4.png"" style=""width: 234px; height: 230px; margin-top: -50px;""><div style=""display: flex; justify-content: space-between; margin-top: 33px;""><img src=""images/choice_trial_15.png"" style=""width: 408px; height: 417px; margin-right: 200px;""><img src=""images/choice_trial_9.png"" style=""width: 408px; height: 417px;""></div></div>","j","delaylearn","learning","trial","62b5fea64b239d91783414ff","Xt5RMkhvlDTA4mN4QAC5bzsjOMl1","3","images/choice_trial_15.png","images/choice_trial_9.png","images/pattern_4.png","f","f","7000","15","9","3","0","22","0","0","9","110","","","","",""
"html-keyboard-response","117","242804","0.0-50.0-1.0","","null","<div style=""display: flex; flex-direction: column; align-items: center; margin-top: -40px;""><img src=""images/pattern_4.png"" style=""width: 234px; height: 230px; margin-top: -50px;""><div style=""display: flex; justify-content: space-between; margin-top: 33px;""><img src=""images/choice_trial_9.png"" style=""width: 408px; height: 417px; margin-left:608px;""></div></div>","null","delaylearn","learning","display_response","62b5fea64b239d91783414ff","Xt5RMkhvlDTA4mN4QAC5bzsjOMl1","","","","","","","","","","","","","","","","","chosen stimuli: images/choice_trial_9.png","","","",""
"html-keyboard-response","118","249806","0.0-50.0-2.0","","null","","null","delaylearn","learning","feedback_duration_window","62b5fea64b239d91783414ff","Xt5RMkhvlDTA4mN4QAC5bzsjOMl1","","","","","","","","","","","","","","","","","","7000","","",""
"html-keyboard-response","119","251315","0.0-50.0-3.0","","null","<div style='margin:auto;width: auto; font-size: 150%'><span style='font-weight: bold; font-size: 100px; color: red;'>0 points!</span><br><br></div>","null","delaylearn","learning","feedback_image_window","62b5fea64b239d91783414ff","Xt5RMkhvlDTA4mN4QAC5bzsjOMl1","","","","","","","","","","","","","","","","","","","","",""
"html-keyboard-response","120","251822","0.0-51.0-0.0","","null","","null","","","mood_trial_fixation","","","","","","","","","","","","","","","","","","","","","","",""
"lmdlab-html-vas-response","121","256636","0.0-51.0-1.0","","3806","How happy are you right now?","0.49224806201550386","delaylearn","learning","mood_trial","62b5fea64b239d91783414ff","Xt5RMkhvlDTA4mN4QAC5bzsjOMl1","","","","","","","","","","","","","","","","","","","","[""Very unhappy"",""Very happy""]",""
"html-keyboard-response","122","258316","0.0-52.0","","null","<div style=""font-size:100px;"">+</div>","null","delaylearn","learning","ITI","62b5fea64b239d91783414ff","Xt5RMkhvlDTA4mN4QAC5bzsjOMl1","","","","","","","","","","","","","","","","","","","1670","",""
"html-keyboard-response","123","261087","0.0-53.0-0.0","","2767.39999999851","<div style=""display: flex; flex-direction: column; align-items: center; margin-top: -40px;""><img src=""images/pattern_7.png"" style=""width: 234px; height: 230px; margin-top: -50px;""><div style=""display: flex; justify-content: space-between; margin-top: 33px;""><img src=""images/choice_trial_12.png"" style=""width: 408px; height: 417px; margin-right: 200px;""><img src=""images/choice_trial_6.png"" style=""width: 408px; height: 417px;""></div></div>","f","delaylearn","learning","trial","62b5fea64b239d91783414ff","Xt5RMkhvlDTA4mN4QAC5bzsjOMl1","3","images/choice_trial_12.png","images/choice_trial_6.png","images/pattern_7.png","j","j","750","12","6","6","1","23","0","0","12","110","","","","",""
"html-keyboard-response","124","262096","0.0-53.0-1.0","","null","<div style=""display: flex; flex-direction: column; align-items: center; margin-top: -40px;""><img src=""images/pattern_7.png"" style=""width: 234px; height: 230px; margin-top: -50px;""><div style=""display: flex; justify-content: space-between; margin-top: 33px;""><img src=""images/choice_trial_12.png"" style=""width: 408px; height: 417px; margin-right: 608px;""></div></div>","null","delaylearn","learning","display_response","62b5fea64b239d91783414ff","Xt5RMkhvlDTA4mN4QAC5bzsjOMl1","","","","","","","","","","","","","","","","","chosen stimuli: images/choice_trial_12.png","","","",""
"html-keyboard-response","125","262859","0.0-53.0-2.0","","null","","null","delaylearn","learning","feedback_duration_window","62b5fea64b239d91783414ff","Xt5RMkhvlDTA4mN4QAC5bzsjOMl1","","","","","","","","","","","","","","","","","","750","","",""
"html-keyboard-response","126","264364","0.0-53.0-3.0","","null","<div style='margin:auto;width: auto; font-size: 150%'><span style='font-weight: bold; font-size: 100px; color: red;'>0 points!</span><br><br></div>","null","delaylearn","learning","feedback_image_window","62b5fea64b239d91783414ff","Xt5RMkhvlDTA4mN4QAC5bzsjOMl1","","","","","","","","","","","","","","","","","","","","",""
"html-keyboard-response","127","266065","0.0-54.0","","null","<div style=""font-size:100px;"">+</div>","null","delaylearn","learning","ITI","62b5fea64b239d91783414ff","Xt5RMkhvlDTA4mN4QAC5bzsjOMl1","","","","","","","","","","","","","","","","","","","1695","",""
"html-keyboard-response","128","268571","0.0-55.0-0.0","","2502.2999999970198","<div style=""display: flex; flex-direction: column; align-items: center; margin-top: -40px;""><img src=""images/pattern_1.png"" style=""width: 234px; height: 230px; margin-top: -50px;""><div style=""display: flex; justify-content: space-between; margin-top: 33px;""><img src=""images/choice_trial_8.png"" style=""width: 408px; height: 417px; margin-right: 200px;""><img src=""images/choice_trial_14.png"" style=""width: 408px; height: 417px;""></div></div>","j","delaylearn","learning","trial","62b5fea64b239d91783414ff","Xt5RMkhvlDTA4mN4QAC5bzsjOMl1","3","images/choice_trial_8.png","images/choice_trial_14.png","images/pattern_1.png","f","j","7000","8","14","1","1","24","1","0","14","110","","","","",""
"html-keyboard-response","129","269575","0.0-55.0-1.0","","null","<div style=""display: flex; flex-direction: column; align-items: center; margin-top: -40px;""><img src=""images/pattern_1.png"" style=""width: 234px; height: 230px; margin-top: -50px;""><div style=""display: flex; justify-content: space-between; margin-top: 33px;""><img src=""images/choice_trial_14.png"" style=""width: 408px; height: 417px; margin-left:608px;""></div></div>","null","delaylearn","learning","display_response","62b5fea64b239d91783414ff","Xt5RMkhvlDTA4mN4QAC5bzsjOMl1","","","","","","","","","","","","","","","","","chosen stimuli: images/choice_trial_14.png","","","",""
"html-keyboard-response","130","276581","0.0-55.0-2.0","","null","","null","delaylearn","learning","feedback_duration_window","62b5fea64b239d91783414ff","Xt5RMkhvlDTA4mN4QAC5bzsjOMl1","","","","","","","","","","","","","","","","","","7000","","",""
"html-keyboard-response","131","278097","0.0-55.0-3.0","","null","<div style='margin:auto;width: auto; font-size: 150%'><span style='font-weight: bold; font-size: 100px; color: red;'>0 points!</span><br><br></div>","null","delaylearn","learning","feedback_image_window","62b5fea64b239d91783414ff","Xt5RMkhvlDTA4mN4QAC5bzsjOMl1","","","","","","","","","","","","","","","","","","","","",""
"html-keyboard-response","132","279782","0.0-56.0","","null","<div style=""font-size:100px;"">+</div>","null","delaylearn","learning","ITI","62b5fea64b239d91783414ff","Xt5RMkhvlDTA4mN4QAC5bzsjOMl1","","","","","","","","","","","","","","","","","","","1684","",""
"html-keyboard-response","133","282193","0.0-57.0-0.0","","2407.1999999955297","<div style=""display: flex; flex-direction: column; align-items: center; margin-top: -40px;""><img src=""images/pattern_5.png"" style=""width: 234px; height: 230px; margin-top: -50px;""><div style=""display: flex; justify-content: space-between; margin-top: 33px;""><img src=""images/choice_trial_2.png"" style=""width: 408px; height: 417px; margin-right: 200px;""><img src=""images/choice_trial_11.png"" style=""width: 408px; height: 417px;""></div></div>","j","delaylearn","learning","trial","62b5fea64b239d91783414ff","Xt5RMkhvlDTA4mN4QAC5bzsjOMl1","3","images/choice_trial_2.png","images/choice_trial_11.png","images/pattern_5.png","j","j","750","2","11","4","1","25","1","1","11","120","","","","",""
"html-keyboard-response","134","283205","0.0-57.0-1.0","","null","<div style=""display: flex; flex-direction: column; align-items: center; margin-top: -40px;""><img src=""images/pattern_5.png"" style=""width: 234px; height: 230px; margin-top: -50px;""><div style=""display: flex; justify-content: space-between; margin-top: 33px;""><img src=""images/choice_trial_11.png"" style=""width: 408px; height: 417px; margin-left:608px;""></div></div>","null","delaylearn","learning","display_response","62b5fea64b239d91783414ff","Xt5RMkhvlDTA4mN4QAC5bzsjOMl1","","","","","","","","","","","","","","","","","chosen stimuli: images/choice_trial_11.png","","","",""
"html-keyboard-response","135","283964","0.0-57.0-2.0","","null","","null","delaylearn","learning","feedback_duration_window","62b5fea64b239d91783414ff","Xt5RMkhvlDTA4mN4QAC5bzsjOMl1","","","","","","","","","","","","","","","","","","750","","",""
"html-keyboard-response","136","285474","0.0-57.0-3.0","","null","<div style='margin:auto;width: auto; font-size: 150%'><span style='font-weight: bold; font-size: 100px; color: green;'>+10 points!</span><br><br></div>","null","delaylearn","learning","feedback_image_window","62b5fea64b239d91783414ff","Xt5RMkhvlDTA4mN4QAC5bzsjOMl1","","","","","","","","","","","","","","","","","","","","",""
"html-keyboard-response","137","287038","0.0-58.0","","null","<div style=""font-size:100px;"">+</div>","null","delaylearn","learning","ITI","62b5fea64b239d91783414ff","Xt5RMkhvlDTA4mN4QAC5bzsjOMl1","","","","","","","","","","","","","","","","","","","1552","",""
"html-keyboard-response","138","289049","0.0-59.0-0.0","","2006.5","<div style=""display: flex; flex-direction: column; align-items: center; margin-top: -40px;""><img src=""images/pattern_3.png"" style=""width: 234px; height: 230px; margin-top: -50px;""><div style=""display: flex; justify-content: space-between; margin-top: 33px;""><img src=""images/choice_trial_10.png"" style=""width: 408px; height: 417px; margin-right: 200px;""><img src=""images/choice_trial_13.png"" style=""width: 408px; height: 417px;""></div></div>","f","delaylearn","learning","trial","62b5fea64b239d91783414ff","Xt5RMkhvlDTA4mN4QAC5bzsjOMl1","3","images/choice_trial_10.png","images/choice_trial_13.png","images/pattern_3.png","j","j","7000","10","13","2","1","26","0","0","10","120","","","","",""
"html-keyboard-response","139","290058","0.0-59.0-1.0","","null","<div style=""display: flex; flex-direction: column; align-items: center; margin-top: -40px;""><img src=""images/pattern_3.png"" style=""width: 234px; height: 230px; margin-top: -50px;""><div style=""display: flex; justify-content: space-between; margin-top: 33px;""><img src=""images/choice_trial_10.png"" style=""width: 408px; height: 417px; margin-right: 608px;""></div></div>","null","delaylearn","learning","display_response","62b5fea64b239d91783414ff","Xt5RMkhvlDTA4mN4QAC5bzsjOMl1","","","","","","","","","","","","","","","","","chosen stimuli: images/choice_trial_10.png","","","",""
"html-keyboard-response","140","297068","0.0-59.0-2.0","","null","","null","delaylearn","learning","feedback_duration_window","62b5fea64b239d91783414ff","Xt5RMkhvlDTA4mN4QAC5bzsjOMl1","","","","","","","","","","","","","","","","","","7000","","",""
"html-keyboard-response","141","298574","0.0-59.0-3.0","","null","<div style='margin:auto;width: auto; font-size: 150%'><span style='font-weight: bold; font-size: 100px; color: red;'>0 points!</span><br><br></div>","null","delaylearn","learning","feedback_image_window","62b5fea64b239d91783414ff","Xt5RMkhvlDTA4mN4QAC5bzsjOMl1","","","","","","","","","","","","","","","","","","","","",""
"lmdlab-html-vas-response","142","305564","0.0-60.0-0.0","","5465","*How <b><u>confident</u></b> are you feeling about your answers at this moment?*","0.4955703211517165","rewlearn","rate_confidence","","62b5fea64b239d91783414ff","Xt5RMkhvlDTA4mN4QAC5bzsjOMl1","","","","","","","","","","","","","","","","","","","","[""No confidence"",""Complete confidence""]",""
"lmdlab-rest-trial-limit","143","316293","0.0-60.0-1.0","","9216.70000000298","<div style=""font-size:40px;""><b>Please take a break!</b><br><br><br><br><p>Great work: you earned 120 points.<br><br><br><p>You have completed part(s) 1 of 5.<br><br><br><br>When you are ready to continue<br><br><br>please click the button.</p><br><br>","0","delaylearn","learning","break","62b5fea64b239d91783414ff","Xt5RMkhvlDTA4mN4QAC5bzsjOMl1","","","","","","","","","","","","","","","","","","","","","0"
"html-keyboard-response","144","319302","0.0-60.0-2.0","","null","<div style=""font-size:100px;"">+</div>","null","delaylearn","learning","pre_fixation","62b5fea64b239d91783414ff","","","","","","","","","","","","","","","","","","","","","",""
"lmdlab-html-vas-response","145","322933","0.0-60.0-3.0-0.0","","2625","How happy are you right now?","0.5011074197120708","delaylearn","learning","mood_baseline","62b5fea64b239d91783414ff","Xt5RMkhvlDTA4mN4QAC5bzsjOMl1","","","","","","","","","","","","","","","","","","","","[""Very unhappy"",""Very happy""]",""
"html-keyboard-response","146","324449","0.0-60.0-3.0-1.0","","null","","null","","","mood_baseline_fixation","","","","","","","","","","","","","","","","","","","","","","",""
"html-keyboard-response","147","326880","0.0-61.0","","null","<div style=""font-size:100px;"">+</div>","null","delaylearn","learning","ITI","62b5fea64b239d91783414ff","Xt5RMkhvlDTA4mN4QAC5bzsjOMl1","","","","","","","","","","","","","","","","","","","2428","",""
"html-keyboard-response","148","329692","0.0-62.0-0.0","","2810.39999999851","<div style=""display: flex; flex-direction: column; align-items: center; margin-top: -40px;""><img src=""images/pattern_7.png"" style=""width: 234px; height: 230px; margin-top: -50px;""><div style=""display: flex; justify-content: space-between; margin-top: 33px;""><img src=""images/choice_trial_12.png"" style=""width: 408px; height: 417px; margin-right: 200px;""><img src=""images/choice_trial_6.png"" style=""width: 408px; height: 417px;""></div></div>","j","delaylearn","learning","trial","62b5fea64b239d91783414ff","Xt5RMkhvlDTA4mN4QAC5bzsjOMl1","3","images/choice_trial_12.png","images/choice_trial_6.png","images/pattern_7.png","j","j","750","12","6","6","1","27","1","1","6","130","","","","",""
"html-keyboard-response","149","330696","0.0-62.0-1.0","","null","<div style=""display: flex; flex-direction: column; align-items: center; margin-top: -40px;""><img src=""images/pattern_7.png"" style=""width: 234px; height: 230px; margin-top: -50px;""><div style=""display: flex; justify-content: space-between; margin-top: 33px;""><img src=""images/choice_trial_6.png"" style=""width: 408px; height: 417px; margin-left:608px;""></div></div>","null","delaylearn","learning","display_response","62b5fea64b239d91783414ff","Xt5RMkhvlDTA4mN4QAC5bzsjOMl1","","","","","","","","","","","","","","","","","chosen stimuli: images/choice_trial_6.png","","","",""
"html-keyboard-response","150","331458","0.0-62.0-2.0","","null","","null","delaylearn","learning","feedback_duration_window","62b5fea64b239d91783414ff","Xt5RMkhvlDTA4mN4QAC5bzsjOMl1","","","","","","","","","","","","","","","","","","750","","",""
"html-keyboard-response","151","332974","0.0-62.0-3.0","","null","<div style='margin:auto;width: auto; font-size: 150%'><span style='font-weight: bold; font-size: 100px; color: green;'>+10 points!</span><br><br></div>","null","delaylearn","learning","feedback_image_window","62b5fea64b239d91783414ff","Xt5RMkhvlDTA4mN4QAC5bzsjOMl1","","","","","","","","","","","","","","","","","","","","",""
"html-keyboard-response","152","333484","0.0-63.0-0.0","","null","","null","","","mood_trial_fixation","","","","","","","","","","","","","","","","","","","","","","",""
"lmdlab-html-vas-response","153","337494","0.0-63.0-1.0","","2992","How happy are you right now?","0.4988925802879291","delaylearn","learning","mood_trial","62b5fea64b239d91783414ff","Xt5RMkhvlDTA4mN4QAC5bzsjOMl1","","","","","","","","","","","","","","","","","","","","[""Very unhappy"",""Very happy""]",""
"html-keyboard-response","154","339612","0.0-64.0","","null","<div style=""font-size:100px;"">+</div>","null","delaylearn","learning","ITI","62b5fea64b239d91783414ff","Xt5RMkhvlDTA4mN4QAC5bzsjOMl1","","","","","","","","","","","","","","","","","","","2104","",""
"html-keyboard-response","155","341981","0.0-65.0-0.0","","2363.3000000044703","<div style=""display: flex; flex-direction: column; align-items: center; margin-top: -40px;""><img src=""images/pattern_1.png"" style=""width: 234px; height: 230px; margin-top: -50px;""><div style=""display: flex; justify-content: space-between; margin-top: 33px;""><img src=""images/choice_trial_14.png"" style=""width: 408px; height: 417px; margin-right: 200px;""><img src=""images/choice_trial_8.png"" style=""width: 408px; height: 417px;""></div></div>","f","delaylearn","learning","trial","62b5fea64b239d91783414ff","Xt5RMkhvlDTA4mN4QAC5bzsjOMl1","3","images/choice_trial_14.png","images/choice_trial_8.png","images/pattern_1.png","f","f","7000","14","8","1","0","28","1","1","14","140","","","","",""
"html-keyboard-response","156","342992","0.0-65.0-1.0","","null","<div style=""display: flex; flex-direction: column; align-items: center; margin-top: -40px;""><img src=""images/pattern_1.png"" style=""width: 234px; height: 230px; margin-top: -50px;""><div style=""display: flex; justify-content: space-between; margin-top: 33px;""><img src=""images/choice_trial_14.png"" style=""width: 408px; height: 417px; margin-right: 608px;""></div></div>","null","delaylearn","learning","display_response","62b5fea64b239d91783414ff","Xt5RMkhvlDTA4mN4QAC5bzsjOMl1","","","","","","","","","","","","","","","","","chosen stimuli: images/choice_trial_14.png","","","",""
"html-keyboard-response","157","350008","0.0-65.0-2.0","","null","","null","delaylearn","learning","feedback_duration_window","62b5fea64b239d91783414ff","Xt5RMkhvlDTA4mN4QAC5bzsjOMl1","","","","","","","","","","","","","","","","","","7000","","",""
"html-keyboard-response","158","351516","0.0-65.0-3.0","","null","<div style='margin:auto;width: auto; font-size: 150%'><span style='font-weight: bold; font-size: 100px; color: green;'>+10 points!</span><br><br></div>","null","delaylearn","learning","feedback_image_window","62b5fea64b239d91783414ff","Xt5RMkhvlDTA4mN4QAC5bzsjOMl1","","","","","","","","","","","","","","","","","","","","",""
"html-keyboard-response","159","353371","0.0-66.0","","null","<div style=""font-size:100px;"">+</div>","null","delaylearn","learning","ITI","62b5fea64b239d91783414ff","Xt5RMkhvlDTA4mN4QAC5bzsjOMl1","","","","","","","","","","","","","","","","","","","1847","",""
"html-keyboard-response","160","356169","0.0-67.0-0.0","","2796.2000000029802","<div style=""display: flex; flex-direction: column; align-items: center; margin-top: -40px;""><img src=""images/pattern_5.png"" style=""width: 234px; height: 230px; margin-top: -50px;""><div style=""display: flex; justify-content: space-between; margin-top: 33px;""><img src=""images/choice_trial_11.png"" style=""width: 408px; height: 417px; margin-right: 200px;""><img src=""images/choice_trial_2.png"" style=""width: 408px; height: 417px;""></div></div>","f","delaylearn","learning","trial","62b5fea64b239d91783414ff","Xt5RMkhvlDTA4mN4QAC5bzsjOMl1","3","images/choice_trial_11.png","images/choice_trial_2.png","images/pattern_5.png","f","f","750","11","2","4","0","29","1","1","11","150","","","","",""
"html-keyboard-response","161","357177","0.0-67.0-1.0","","null","<div style=""display: flex; flex-direction: column; align-items: center; margin-top: -40px;""><img src=""images/pattern_5.png"" style=""width: 234px; height: 230px; margin-top: -50px;""><div style=""display: flex; justify-content: space-between; margin-top: 33px;""><img src=""images/choice_trial_11.png"" style=""width: 408px; height: 417px; margin-right: 608px;""></div></div>","null","delaylearn","learning","display_response","62b5fea64b239d91783414ff","Xt5RMkhvlDTA4mN4QAC5bzsjOMl1","","","","","","","","","","","","","","","","","chosen stimuli: images/choice_trial_11.png","","","",""
"html-keyboard-response","162","357932","0.0-67.0-2.0","","null","","null","delaylearn","learning","feedback_duration_window","62b5fea64b239d91783414ff","Xt5RMkhvlDTA4mN4QAC5bzsjOMl1","","","","","","","","","","","","","","","","","","750","","",""
"html-keyboard-response","163","359443","0.0-67.0-3.0","","null","<div style='margin:auto;width: auto; font-size: 150%'><span style='font-weight: bold; font-size: 100px; color: green;'>+10 points!</span><br><br></div>","null","delaylearn","learning","feedback_image_window","62b5fea64b239d91783414ff","Xt5RMkhvlDTA4mN4QAC5bzsjOMl1","","","","","","","","","","","","","","","","","","","","",""
"html-keyboard-response","164","361091","0.0-68.0","","null","<div style=""font-size:100px;"">+</div>","null","delaylearn","learning","ITI","62b5fea64b239d91783414ff","Xt5RMkhvlDTA4mN4QAC5bzsjOMl1","","","","","","","","","","","","","","","","","","","1637","",""
"html-keyboard-response","165","364102","0.0-69.0-0.0","","null","<div style=""display: flex; flex-direction: column; align-items: center; margin-top: -40px;""><img src=""images/pattern_6.png"" style=""width: 234px; height: 230px; margin-top: -50px;""><div style=""display: flex; justify-content: space-between; margin-top: 33px;""><img src=""images/choice_trial_3.png"" style=""width: 408px; height: 417px; margin-right: 200px;""><img src=""images/choice_trial_16.png"" style=""width: 408px; height: 417px;""></div></div>","null","delaylearn","learning","trial","62b5fea64b239d91783414ff","Xt5RMkhvlDTA4mN4QAC5bzsjOMl1","3","images/choice_trial_3.png","images/choice_trial_16.png","images/pattern_6.png","j","j","750","3","16","5","1","30","0","0","0","150","","","","",""
"html-keyboard-response","166","365113","0.0-69.0-1.0","","null","<div style='font-weight: bold; font-size: 75px; color: red;'>Missed Trial <br><br><br><br> Please respond faster</div>","null","delaylearn","learning","display_response","62b5fea64b239d91783414ff","Xt5RMkhvlDTA4mN4QAC5bzsjOMl1","","","","","","","","","","","","","","","","","Missed trial","","","",""
"html-keyboard-response","167","365121","0.0-69.0-2.0","","null","","null","delaylearn","learning","feedback_duration_window","62b5fea64b239d91783414ff","Xt5RMkhvlDTA4mN4QAC5bzsjOMl1","","","","","","","","","","","","","","","","","","0","","",""
"html-keyboard-response","168","365129","0.0-69.0-3.0","","null","","null","delaylearn","learning","feedback_image_window","62b5fea64b239d91783414ff","Xt5RMkhvlDTA4mN4QAC5bzsjOMl1","","","","","","","","","","","","","","","","","","","","",""
"html-keyboard-response","169","365638","0.0-70.0-0.0","","null","","null","","","mood_trial_fixation","","","","","","","","","","","","","","","","","","","","","","",""
"lmdlab-html-vas-response","170","369211","0.0-70.0-1.0","","2570","How happy are you right now?","0.48892580287929127","delaylearn","learning","mood_trial","62b5fea64b239d91783414ff","Xt5RMkhvlDTA4mN4QAC5bzsjOMl1","","","","","","","","","","","","","","","","","","","","[""Very unhappy"",""Very happy""]",""
"html-keyboard-response","171","371521","0.0-71.0","","null","<div style=""font-size:100px;"">+</div>","null","delaylearn","learning","ITI","62b5fea64b239d91783414ff","Xt5RMkhvlDTA4mN4QAC5bzsjOMl1","","","","","","","","","","","","","","","","","","","2297","",""
"html-keyboard-response","172","373030","0.0-72.0-0.0","","1507.2000000029802","<div style=""display: flex; flex-direction: column; align-items: center; margin-top: -40px;""><img src=""images/pattern_4.png"" style=""width: 234px; height: 230px; margin-top: -50px;""><div style=""display: flex; justify-content: space-between; margin-top: 33px;""><img src=""images/choice_trial_9.png"" style=""width: 408px; height: 417px; margin-right: 200px;""><img src=""images/choice_trial_15.png"" style=""width: 408px; height: 417px;""></div></div>","f","delaylearn","learning","trial","62b5fea64b239d91783414ff","Xt5RMkhvlDTA4mN4QAC5bzsjOMl1","3","images/choice_trial_9.png","images/choice_trial_15.png","images/pattern_4.png","j","j","7000","9","15","3","1","31","0","0","9","150","","","","",""
"html-keyboard-response","173","374035","0.0-72.0-1.0","","null","<div style=""display: flex; flex-direction: column; align-items: center; margin-top: -40px;""><img src=""images/pattern_4.png"" style=""width: 234px; height: 230px; margin-top: -50px;""><div style=""display: flex; justify-content: space-between; margin-top: 33px;""><img src=""images/choice_trial_9.png"" style=""width: 408px; height: 417px; margin-right: 608px;""></div></div>","null","delaylearn","learning","display_response","62b5fea64b239d91783414ff","Xt5RMkhvlDTA4mN4QAC5bzsjOMl1","","","","","","","","","","","","","","","","","chosen stimuli: images/choice_trial_9.png","","","",""
"html-keyboard-response","174","381039","0.0-72.0-2.0","","null","","null","delaylearn","learning","feedback_duration_window","62b5fea64b239d91783414ff","Xt5RMkhvlDTA4mN4QAC5bzsjOMl1","","","","","","","","","","","","","","","","","","7000","","",""
"html-keyboard-response","175","382548","0.0-72.0-3.0","","null","<div style='margin:auto;width: auto; font-size: 150%'><span style='font-weight: bold; font-size: 100px; color: red;'>0 points!</span><br><br></div>","null","delaylearn","learning","feedback_image_window","62b5fea64b239d91783414ff","Xt5RMkhvlDTA4mN4QAC5bzsjOMl1","","","","","","","","","","","","","","","","","","","","",""
"html-keyboard-response","176","384617","0.0-73.0","","null","<div style=""font-size:100px;"">+</div>","null","delaylearn","learning","ITI","62b5fea64b239d91783414ff","Xt5RMkhvlDTA4mN4QAC5bzsjOMl1","","","","","","","","","","","","","","","","","","","2056","",""
"html-keyboard-response","177","386403","0.0-74.0-0.0","","1784.7999999970198","<div style=""display: flex; flex-direction: column; align-items: center; margin-top: -40px;""><img src=""images/pattern_3.png"" style=""width: 234px; height: 230px; margin-top: -50px;""><div style=""display: flex; justify-content: space-between; margin-top: 33px;""><img src=""images/choice_trial_10.png"" style=""width: 408px; height: 417px; margin-right: 200px;""><img src=""images/choice_trial_13.png"" style=""width: 408px; height: 417px;""></div></div>","f","delaylearn","learning","trial","62b5fea64b239d91783414ff","Xt5RMkhvlDTA4mN4QAC5bzsjOMl1","3","images/choice_trial_10.png","images/choice_trial_13.png","images/pattern_3.png","j","j","7000","10","13","2","1","32","0","0","10","150","","","","",""
"html-keyboard-response","178","387420","0.0-74.0-1.0","","null","<div style=""display: flex; flex-direction: column; align-items: center; margin-top: -40px;""><img src=""images/pattern_3.png"" style=""width: 234px; height: 230px; margin-top: -50px;""><div style=""display: flex; justify-content: space-between; margin-top: 33px;""><img src=""images/choice_trial_10.png"" style=""width: 408px; height: 417px; margin-right: 608px;""></div></div>","null","delaylearn","learning","display_response","62b5fea64b239d91783414ff","Xt5RMkhvlDTA4mN4QAC5bzsjOMl1","","","","","","","","","","","","","","","","","chosen stimuli: images/choice_trial_10.png","","","",""
"html-keyboard-response","179","394431","0.0-74.0-2.0","","null","","null","delaylearn","learning","feedback_duration_window","62b5fea64b239d91783414ff","Xt5RMkhvlDTA4mN4QAC5bzsjOMl1","","","","","","","","","","","","","","","","","","7000","","",""
"html-keyboard-response","180","395936","0.0-74.0-3.0","","null","<div style='margin:auto;width: auto; font-size: 150%'><span style='font-weight: bold; font-size: 100px; color: red;'>0 points!</span><br><br></div>","null","delaylearn","learning","feedback_image_window","62b5fea64b239d91783414ff","Xt5RMkhvlDTA4mN4QAC5bzsjOMl1","","","","","","","","","","","","","","","","","","","","",""
"html-keyboard-response","181","398100","0.0-75.0","","null","<div style=""font-size:100px;"">+</div>","null","delaylearn","learning","ITI","62b5fea64b239d91783414ff","Xt5RMkhvlDTA4mN4QAC5bzsjOMl1","","","","","","","","","","","","","","","","","","","2155","",""
"html-keyboard-response","182","399820","0.0-76.0-0.0","","1718.0999999940395","<div style=""display: flex; flex-direction: column; align-items: center; margin-top: -40px;""><img src=""images/pattern_5.png"" style=""width: 234px; height: 230px; margin-top: -50px;""><div style=""display: flex; justify-content: space-between; margin-top: 33px;""><img src=""images/choice_trial_11.png"" style=""width: 408px; height: 417px; margin-right: 200px;""><img src=""images/choice_trial_2.png"" style=""width: 408px; height: 417px;""></div></div>","f","delaylearn","learning","trial","62b5fea64b239d91783414ff","Xt5RMkhvlDTA4mN4QAC5bzsjOMl1","3","images/choice_trial_11.png","images/choice_trial_2.png","images/pattern_5.png","j","f","750","11","2","4","0","33","1","0","11","150","","","","",""
"html-keyboard-response","183","400827","0.0-76.0-1.0","","null","<div style=""display: flex; flex-direction: column; align-items: center; margin-top: -40px;""><img src=""images/pattern_5.png"" style=""width: 234px; height: 230px; margin-top: -50px;""><div style=""display: flex; justify-content: space-between; margin-top: 33px;""><img src=""images/choice_trial_11.png"" style=""width: 408px; height: 417px; margin-right: 608px;""></div></div>","null","delaylearn","learning","display_response","62b5fea64b239d91783414ff","Xt5RMkhvlDTA4mN4QAC5bzsjOMl1","","","","","","","","","","","","","","","","","chosen stimuli: images/choice_trial_11.png","","","",""
"html-keyboard-response","184","401594","0.0-76.0-2.0","","null","","null","delaylearn","learning","feedback_duration_window","62b5fea64b239d91783414ff","Xt5RMkhvlDTA4mN4QAC5bzsjOMl1","","","","","","","","","","","","","","","","","","750","","",""
"html-keyboard-response","185","403101","0.0-76.0-3.0","","null","<div style='margin:auto;width: auto; font-size: 150%'><span style='font-weight: bold; font-size: 100px; color: red;'>0 points!</span><br><br></div>","null","delaylearn","learning","feedback_image_window","62b5fea64b239d91783414ff","Xt5RMkhvlDTA4mN4QAC5bzsjOMl1","","","","","","","","","","","","","","","","","","","","",""
"html-keyboard-response","186","405041","0.0-77.0","","null","<div style=""font-size:100px;"">+</div>","null","delaylearn","learning","ITI","62b5fea64b239d91783414ff","Xt5RMkhvlDTA4mN4QAC5bzsjOMl1","","","","","","","","","","","","","","","","","","","1925","",""
"html-keyboard-response","187","406664","0.0-78.0-0.0","","1621.3999999985099","<div style=""display: flex; flex-direction: column; align-items: center; margin-top: -40px;""><img src=""images/pattern_1.png"" style=""width: 234px; height: 230px; margin-top: -50px;""><div style=""display: flex; justify-content: space-between; margin-top: 33px;""><img src=""images/choice_trial_14.png"" style=""width: 408px; height: 417px; margin-right: 200px;""><img src=""images/choice_trial_8.png"" style=""width: 408px; height: 417px;""></div></div>","f","delaylearn","learning","trial","62b5fea64b239d91783414ff","Xt5RMkhvlDTA4mN4QAC5bzsjOMl1","3","images/choice_trial_14.png","images/choice_trial_8.png","images/pattern_1.png","f","f","7000","14","8","1","0","34","1","1","14","160","","","","",""
"html-keyboard-response","188","407673","0.0-78.0-1.0","","null","<div style=""display: flex; flex-direction: column; align-items: center; margin-top: -40px;""><img src=""images/pattern_1.png"" style=""width: 234px; height: 230px; margin-top: -50px;""><div style=""display: flex; justify-content: space-between; margin-top: 33px;""><img src=""images/choice_trial_14.png"" style=""width: 408px; height: 417px; margin-right: 608px;""></div></div>","null","delaylearn","learning","display_response","62b5fea64b239d91783414ff","Xt5RMkhvlDTA4mN4QAC5bzsjOMl1","","","","","","","","","","","","","","","","","chosen stimuli: images/choice_trial_14.png","","","",""
"html-keyboard-response","189","414680","0.0-78.0-2.0","","null","","null","delaylearn","learning","feedback_duration_window","62b5fea64b239d91783414ff","Xt5RMkhvlDTA4mN4QAC5bzsjOMl1","","","","","","","","","","","","","","","","","","7000","","",""
"html-keyboard-response","190","416185","0.0-78.0-3.0","","null","<div style='margin:auto;width: auto; font-size: 150%'><span style='font-weight: bold; font-size: 100px; color: green;'>+10 points!</span><br><br></div>","null","delaylearn","learning","feedback_image_window","62b5fea64b239d91783414ff","Xt5RMkhvlDTA4mN4QAC5bzsjOMl1","","","","","","","","","","","","","","","","","","","","",""
"html-keyboard-response","191","416688","0.0-79.0-0.0","","null","","null","","","mood_trial_fixation","","","","","","","","","","","","","","","","","","","","","","",""
"lmdlab-html-vas-response","192","423697","0.0-79.0-1.0","","6000","How happy are you right now?","0.5011074197120708","delaylearn","learning","mood_trial","62b5fea64b239d91783414ff","Xt5RMkhvlDTA4mN4QAC5bzsjOMl1","","","","","","","","","","","","","","","","","","","","[""Very unhappy"",""Very happy""]",""
"html-keyboard-response","193","425604","0.0-80.0","","null","<div style=""font-size:100px;"">+</div>","null","delaylearn","learning","ITI","62b5fea64b239d91783414ff","Xt5RMkhvlDTA4mN4QAC5bzsjOMl1","","","","","","","","","","","","","","","","","","","1900","",""
"html-keyboard-response","194","427115","0.0-81.0-0.0","","1508.6999999955297","<div style=""display: flex; flex-direction: column; align-items: center; margin-top: -40px;""><img src=""images/pattern_6.png"" style=""width: 234px; height: 230px; margin-top: -50px;""><div style=""display: flex; justify-content: space-between; margin-top: 33px;""><img src=""images/choice_trial_16.png"" style=""width: 408px; height: 417px; margin-right: 200px;""><img src=""images/choice_trial_3.png"" style=""width: 408px; height: 417px;""></div></div>","f","delaylearn","learning","trial","62b5fea64b239d91783414ff","Xt5RMkhvlDTA4mN4QAC5bzsjOMl1","3","images/choice_trial_16.png","images/choice_trial_3.png","images/pattern_6.png","j","f","750","16","3","5","0","35","1","0","16","160","","","","",""
"html-keyboard-response","195","428123","0.0-81.0-1.0","","null","<div style=""display: flex; flex-direction: column; align-items: center; margin-top: -40px;""><img src=""images/pattern_6.png"" style=""width: 234px; height: 230px; margin-top: -50px;""><div style=""display: flex; justify-content: space-between; margin-top: 33px;""><img src=""images/choice_trial_16.png"" style=""width: 408px; height: 417px; margin-right: 608px;""></div></div>","null","delaylearn","learning","display_response","62b5fea64b239d91783414ff","Xt5RMkhvlDTA4mN4QAC5bzsjOMl1","","","","","","","","","","","","","","","","","chosen stimuli: images/choice_trial_16.png","","","",""
"html-keyboard-response","196","428878","0.0-81.0-2.0","","null","","null","delaylearn","learning","feedback_duration_window","62b5fea64b239d91783414ff","Xt5RMkhvlDTA4mN4QAC5bzsjOMl1","","","","","","","","","","","","","","","","","","750","","",""
"html-keyboard-response","197","430390","0.0-81.0-3.0","","null","<div style='margin:auto;width: auto; font-size: 150%'><span style='font-weight: bold; font-size: 100px; color: red;'>0 points!</span><br><br></div>","null","delaylearn","learning","feedback_image_window","62b5fea64b239d91783414ff","Xt5RMkhvlDTA4mN4QAC5bzsjOMl1","","","","","","","","","","","","","","","","","","","","",""
"html-keyboard-response","198","432690","0.0-82.0","","null","<div style=""font-size:100px;"">+</div>","null","delaylearn","learning","ITI","62b5fea64b239d91783414ff","Xt5RMkhvlDTA4mN4QAC5bzsjOMl1","","","","","","","","","","","","","","","","","","","2290","",""
"html-keyboard-response","199","434413","0.0-83.0-0.0","","1721","<div style=""display: flex; flex-direction: column; align-items: center; margin-top: -40px;""><img src=""images/pattern_3.png"" style=""width: 234px; height: 230px; margin-top: -50px;""><div style=""display: flex; justify-content: space-between; margin-top: 33px;""><img src=""images/choice_trial_10.png"" style=""width: 408px; height: 417px; margin-right: 200px;""><img src=""images/choice_trial_13.png"" style=""width: 408px; height: 417px;""></div></div>","j","delaylearn","learning","trial","62b5fea64b239d91783414ff","Xt5RMkhvlDTA4mN4QAC5bzsjOMl1","3","images/choice_trial_10.png","images/choice_trial_13.png","images/pattern_3.png","j","j","7000","10","13","2","1","36","1","1","13","170","","","","",""
"html-keyboard-response","200","435430","0.0-83.0-1.0","","null","<div style=""display: flex; flex-direction: column; align-items: center; margin-top: -40px;""><img src=""images/pattern_3.png"" style=""width: 234px; height: 230px; margin-top: -50px;""><div style=""display: flex; justify-content: space-between; margin-top: 33px;""><img src=""images/choice_trial_13.png"" style=""width: 408px; height: 417px; margin-left:608px;""></div></div>","null","delaylearn","learning","display_response","62b5fea64b239d91783414ff","Xt5RMkhvlDTA4mN4QAC5bzsjOMl1","","","","","","","","","","","","","","","","","chosen stimuli: images/choice_trial_13.png","","","",""
"html-keyboard-response","201","442433","0.0-83.0-2.0","","null","","null","delaylearn","learning","feedback_duration_window","62b5fea64b239d91783414ff","Xt5RMkhvlDTA4mN4QAC5bzsjOMl1","","","","","","","","","","","","","","","","","","7000","","",""
"html-keyboard-response","202","443939","0.0-83.0-3.0","","null","<div style='margin:auto;width: auto; font-size: 150%'><span style='font-weight: bold; font-size: 100px; color: green;'>+10 points!</span><br><br></div>","null","delaylearn","learning","feedback_image_window","62b5fea64b239d91783414ff","Xt5RMkhvlDTA4mN4QAC5bzsjOMl1","","","","","","","","","","","","","","","","","","","","",""
"html-keyboard-response","203","446413","0.0-84.0","","null","<div style=""font-size:100px;"">+</div>","null","delaylearn","learning","ITI","62b5fea64b239d91783414ff","Xt5RMkhvlDTA4mN4QAC5bzsjOMl1","","","","","","","","","","","","","","","","","","","2468","",""
"html-keyboard-response","204","448066","0.0-85.0-0.0","","1651.7000000029802","<div style=""display: flex; flex-direction: column; align-items: center; margin-top: -40px;""><img src=""images/pattern_4.png"" style=""width: 234px; height: 230px; margin-top: -50px;""><div style=""display: flex; justify-content: space-between; margin-top: 33px;""><img src=""images/choice_trial_9.png"" style=""width: 408px; height: 417px; margin-right: 200px;""><img src=""images/choice_trial_15.png"" style=""width: 408px; height: 417px;""></div></div>","f","delaylearn","learning","trial","62b5fea64b239d91783414ff","Xt5RMkhvlDTA4mN4QAC5bzsjOMl1","3","images/choice_trial_9.png","images/choice_trial_15.png","images/pattern_4.png","f","j","7000","9","15","3","1","37","0","1","9","180","","","","",""
"html-keyboard-response","205","449081","0.0-85.0-1.0","","null","<div style=""display: flex; flex-direction: column; align-items: center; margin-top: -40px;""><img src=""images/pattern_4.png"" style=""width: 234px; height: 230px; margin-top: -50px;""><div style=""display: flex; justify-content: space-between; margin-top: 33px;""><img src=""images/choice_trial_9.png"" style=""width: 408px; height: 417px; margin-right: 608px;""></div></div>","null","delaylearn","learning","display_response","62b5fea64b239d91783414ff","Xt5RMkhvlDTA4mN4QAC5bzsjOMl1","","","","","","","","","","","","","","","","","chosen stimuli: images/choice_trial_9.png","","","",""
"html-keyboard-response","206","456092","0.0-85.0-2.0","","null","","null","delaylearn","learning","feedback_duration_window","62b5fea64b239d91783414ff","Xt5RMkhvlDTA4mN4QAC5bzsjOMl1","","","","","","","","","","","","","","","","","","7000","","",""
"html-keyboard-response","207","457601","0.0-85.0-3.0","","null","<div style='margin:auto;width: auto; font-size: 150%'><span style='font-weight: bold; font-size: 100px; color: green;'>+10 points!</span><br><br></div>","null","delaylearn","learning","feedback_image_window","62b5fea64b239d91783414ff","Xt5RMkhvlDTA4mN4QAC5bzsjOMl1","","","","","","","","","","","","","","","","","","","","",""
"html-keyboard-response","208","459971","0.0-86.0","","null","<div style=""font-size:100px;"">+</div>","null","delaylearn","learning","ITI","62b5fea64b239d91783414ff","Xt5RMkhvlDTA4mN4QAC5bzsjOMl1","","","","","","","","","","","","","","","","","","","2354","",""
"html-keyboard-response","209","461698","0.0-87.0-0.0","","1724.5","<div style=""display: flex; flex-direction: column; align-items: center; margin-top: -40px;""><img src=""images/pattern_7.png"" style=""width: 234px; height: 230px; margin-top: -50px;""><div style=""display: flex; justify-content: space-between; margin-top: 33px;""><img src=""images/choice_trial_6.png"" style=""width: 408px; height: 417px; margin-right: 200px;""><img src=""images/choice_trial_12.png"" style=""width: 408px; height: 417px;""></div></div>","f","delaylearn","learning","trial","62b5fea64b239d91783414ff","Xt5RMkhvlDTA4mN4QAC5bzsjOMl1","3","images/choice_trial_6.png","images/choice_trial_12.png","images/pattern_7.png","f","f","750","6","12","6","0","38","1","1","6","190","","","","",""
"html-keyboard-response","210","462707","0.0-87.0-1.0","","null","<div style=""display: flex; flex-direction: column; align-items: center; margin-top: -40px;""><img src=""images/pattern_7.png"" style=""width: 234px; height: 230px; margin-top: -50px;""><div style=""display: flex; justify-content: space-between; margin-top: 33px;""><img src=""images/choice_trial_6.png"" style=""width: 408px; height: 417px; margin-right: 608px;""></div></div>","null","delaylearn","learning","display_response","62b5fea64b239d91783414ff","Xt5RMkhvlDTA4mN4QAC5bzsjOMl1","","","","","","","","","","","","","","","","","chosen stimuli: images/choice_trial_6.png","","","",""
"html-keyboard-response","211","463462","0.0-87.0-2.0","","null","","null","delaylearn","learning","feedback_duration_window","62b5fea64b239d91783414ff","Xt5RMkhvlDTA4mN4QAC5bzsjOMl1","","","","","","","","","","","","","","","","","","750","","",""
"html-keyboard-response","212","464972","0.0-87.0-3.0","","null","<div style='margin:auto;width: auto; font-size: 150%'><span style='font-weight: bold; font-size: 100px; color: green;'>+10 points!</span><br><br></div>","null","delaylearn","learning","feedback_image_window","62b5fea64b239d91783414ff","Xt5RMkhvlDTA4mN4QAC5bzsjOMl1","","","","","","","","","","","","","","","","","","","","",""
"html-keyboard-response","213","466501","0.0-88.0","","null","<div style=""font-size:100px;"">+</div>","null","delaylearn","learning","ITI","62b5fea64b239d91783414ff","Xt5RMkhvlDTA4mN4QAC5bzsjOMl1","","","","","","","","","","","","","","","","","","","1523","",""
"html-keyboard-response","214","468847","0.0-89.0-0.0","","2342.5","<div style=""display: flex; flex-direction: column; align-items: center; margin-top: -40px;""><img src=""images/pattern_1.png"" style=""width: 234px; height: 230px; margin-top: -50px;""><div style=""display: flex; justify-content: space-between; margin-top: 33px;""><img src=""images/choice_trial_14.png"" style=""width: 408px; height: 417px; margin-right: 200px;""><img src=""images/choice_trial_8.png"" style=""width: 408px; height: 417px;""></div></div>","f","delaylearn","learning","trial","62b5fea64b239d91783414ff","Xt5RMkhvlDTA4mN4QAC5bzsjOMl1","3","images/choice_trial_14.png","images/choice_trial_8.png","images/pattern_1.png","f","f","7000","14","8","1","0","39","1","1","14","200","","","","",""
"html-keyboard-response","215","469855","0.0-89.0-1.0","","null","<div style=""display: flex; flex-direction: column; align-items: center; margin-top: -40px;""><img src=""images/pattern_1.png"" style=""width: 234px; height: 230px; margin-top: -50px;""><div style=""display: flex; justify-content: space-between; margin-top: 33px;""><img src=""images/choice_trial_14.png"" style=""width: 408px; height: 417px; margin-right: 608px;""></div></div>","null","delaylearn","learning","display_response","62b5fea64b239d91783414ff","Xt5RMkhvlDTA4mN4QAC5bzsjOMl1","","","","","","","","","","","","","","","","","chosen stimuli: images/choice_trial_14.png","","","",""
"html-keyboard-response","216","476861","0.0-89.0-2.0","","null","","null","delaylearn","learning","feedback_duration_window","62b5fea64b239d91783414ff","Xt5RMkhvlDTA4mN4QAC5bzsjOMl1","","","","","","","","","","","","","","","","","","7000","","",""
"html-keyboard-response","217","478370","0.0-89.0-3.0","","null","<div style='margin:auto;width: auto; font-size: 150%'><span style='font-weight: bold; font-size: 100px; color: green;'>+10 points!</span><br><br></div>","null","delaylearn","learning","feedback_image_window","62b5fea64b239d91783414ff","Xt5RMkhvlDTA4mN4QAC5bzsjOMl1","","","","","","","","","","","","","","","","","","","","",""
"html-keyboard-response","218","478880","0.0-90.0-0.0","","null","","null","","","mood_trial_fixation","","","","","","","","","","","","","","","","","","","","","","",""
"lmdlab-html-vas-response","219","484521","0.0-90.0-1.0","","4618","How happy are you right now?","0.5066445182724253","delaylearn","learning","mood_trial","62b5fea64b239d91783414ff","Xt5RMkhvlDTA4mN4QAC5bzsjOMl1","","","","","","","","","","","","","","","","","","","","[""Very unhappy"",""Very happy""]",""
"html-keyboard-response","220","486556","0.0-91.0","","null","<div style=""font-size:100px;"">+</div>","null","delaylearn","learning","ITI","62b5fea64b239d91783414ff","Xt5RMkhvlDTA4mN4QAC5bzsjOMl1","","","","","","","","","","","","","","","","","","","2018","",""
