"trial_type","trial_index","time_elapsed","internal_node_id","participant","rt","stimulus","response","exp_name","exp_stage","test_part","subjectID","databaseID","counterbal","choice_stimuli_1","choice_stimuli_2","pattern_stimuli","rewarded_answer","correct_answer","feedback_duration_times","stim_left","stim_right","pair","leftright_counter","trial","response_correct","response_rewarded","chosen_stim","counter","displayed_choice","feedback_durations","ITI_duration","labels","rest_warning"
"pavlovia","0","433","0.0-0.0","","","","","","","","","","","","","","","","","","","","","","","","","","","","","",""
"html-keyboard-response","1","3440","0.0-1.0","","null","<div style=""font-size:100px;"">+</div>","null","delaylearn","learning","pre_fixation","65ddeb0d1a44628b53924756","","","","","","","","","","","","","","","","","","","","","",""
"html-keyboard-response","2","4885","0.0-2.0-0.0","","1441","<div style=""display: flex; flex-direction: column; align-items: center; margin-top: -40px;""><img src=""images/demo_images/pattern_1.png"" style=""width: 234px; height: 230px; margin-top: -50px;""><div style=""display: flex; justify-content: space-between; margin-top: 33px;""><img src=""images/demo_images/choice_trial_2.png"" style=""width: 408px; height: 417px; margin-right: 200px;""><img src=""images/demo_images/choice_trial_1.png"" style=""width: 408px; height: 417px;""></div></div>","j","delaylearn","learning","trial","65ddeb0d1a44628b53924756","m5LJgBycrwgxlnEiP878joCq2Pj2","5","images/demo_images/choice_trial_2.png","images/demo_images/choice_trial_1.png","images/demo_images/pattern_1.png","j","j","3000","2","1","20","1","1","1","1","1","10","","","","",""
"html-keyboard-response","3","5893","0.0-2.0-1.0","","null","<div style=""display: flex; flex-direction: column; align-items: center; margin-top: -40px;""><img src=""images/demo_images/pattern_1.png"" style=""width: 234px; height: 230px; margin-top: -50px;""><div style=""display: flex; justify-content: space-between; margin-top: 33px;""><img src=""images/demo_images/choice_trial_1.png"" style=""width: 408px; height: 417px; margin-left:608px;""></div></div>","null","delaylearn","learning","display_response","65ddeb0d1a44628b53924756","m5LJgBycrwgxlnEiP878joCq2Pj2","","","","","","","","","","","","","","","","","chosen stimuli: images/demo_images/choice_trial_1.png","","","",""
"html-keyboard-response","4","8900","0.0-2.0-2.0","","null","","null","delaylearn","learning","feedback_duration_window","65ddeb0d1a44628b53924756","m5LJgBycrwgxlnEiP878joCq2Pj2","","","","","","","","","","","","","","","","","","3000","","",""
"html-keyboard-response","5","10404","0.0-2.0-3.0","","null","<div style='margin:auto;width: auto; font-size: 150%'><span style='font-weight: bold; font-size: 100px; color: green;'>+10 points!</span><br><br></div>","null","delaylearn","learning","feedback_image_window","65ddeb0d1a44628b53924756","m5LJgBycrwgxlnEiP878joCq2Pj2","","","","","","","","","","","","","","","","","","","","",""
"html-keyboard-response","6","12534","0.0-3.0","","null","<div style=""font-size:100px;"">+</div>","null","delaylearn","learning","ITI","65ddeb0d1a44628b53924756","m5LJgBycrwgxlnEiP878joCq2Pj2","","","","","","","","","","","","","","","","","","","2123","",""
"html-keyboard-response","7","14106","0.0-4.0-0.0","","1567.9000000953674","<div style=""display: flex; flex-direction: column; align-items: center; margin-top: -40px;""><img src=""images/demo_images/pattern_1.png"" style=""width: 234px; height: 230px; margin-top: -50px;""><div style=""display: flex; justify-content: space-between; margin-top: 33px;""><img src=""images/demo_images/choice_trial_2.png"" style=""width: 408px; height: 417px; margin-right: 200px;""><img src=""images/demo_images/choice_trial_1.png"" style=""width: 408px; height: 417px;""></div></div>","j","delaylearn","learning","trial","65ddeb0d1a44628b53924756","m5LJgBycrwgxlnEiP878joCq2Pj2","5","images/demo_images/choice_trial_2.png","images/demo_images/choice_trial_1.png","images/demo_images/pattern_1.png","j","j","3000","2","1","20","1","2","1","1","1","20","","","","",""
"html-keyboard-response","8","15112","0.0-4.0-1.0","","null","<div style=""display: flex; flex-direction: column; align-items: center; margin-top: -40px;""><img src=""images/demo_images/pattern_1.png"" style=""width: 234px; height: 230px; margin-top: -50px;""><div style=""display: flex; justify-content: space-between; margin-top: 33px;""><img src=""images/demo_images/choice_trial_1.png"" style=""width: 408px; height: 417px; margin-left:608px;""></div></div>","null","delaylearn","learning","display_response","65ddeb0d1a44628b53924756","m5LJgBycrwgxlnEiP878joCq2Pj2","","","","","","","","","","","","","","","","","chosen stimuli: images/demo_images/choice_trial_1.png","","","",""
"html-keyboard-response","9","18120","0.0-4.0-2.0","","null","","null","delaylearn","learning","feedback_duration_window","65ddeb0d1a44628b53924756","m5LJgBycrwgxlnEiP878joCq2Pj2","","","","","","","","","","","","","","","","","","3000","","",""
"html-keyboard-response","10","19627","0.0-4.0-3.0","","null","<div style='margin:auto;width: auto; font-size: 150%'><span style='font-weight: bold; font-size: 100px; color: green;'>+10 points!</span><br><br></div>","null","delaylearn","learning","feedback_image_window","65ddeb0d1a44628b53924756","m5LJgBycrwgxlnEiP878joCq2Pj2","","","","","","","","","","","","","","","","","","","","",""
"html-keyboard-response","11","21951","0.0-5.0","","null","<div style=""font-size:100px;"">+</div>","null","delaylearn","learning","ITI","65ddeb0d1a44628b53924756","m5LJgBycrwgxlnEiP878joCq2Pj2","","","","","","","","","","","","","","","","","","","2321","",""
"html-keyboard-response","12","22918","0.0-6.0-0.0","","963.5","<div style=""display: flex; flex-direction: column; align-items: center; margin-top: -40px;""><img src=""images/demo_images/pattern_1.png"" style=""width: 234px; height: 230px; margin-top: -50px;""><div style=""display: flex; justify-content: space-between; margin-top: 33px;""><img src=""images/demo_images/choice_trial_1.png"" style=""width: 408px; height: 417px; margin-right: 200px;""><img src=""images/demo_images/choice_trial_2.png"" style=""width: 408px; height: 417px;""></div></div>","f","delaylearn","learning","trial","65ddeb0d1a44628b53924756","m5LJgBycrwgxlnEiP878joCq2Pj2","5","images/demo_images/choice_trial_1.png","images/demo_images/choice_trial_2.png","images/demo_images/pattern_1.png","j","f","3000","1","2","20","0","3","1","0","1","20","","","","",""
"html-keyboard-response","13","23925","0.0-6.0-1.0","","null","<div style=""display: flex; flex-direction: column; align-items: center; margin-top: -40px;""><img src=""images/demo_images/pattern_1.png"" style=""width: 234px; height: 230px; margin-top: -50px;""><div style=""display: flex; justify-content: space-between; margin-top: 33px;""><img src=""images/demo_images/choice_trial_1.png"" style=""width: 408px; height: 417px; margin-right: 608px;""></div></div>","null","delaylearn","learning","display_response","65ddeb0d1a44628b53924756","m5LJgBycrwgxlnEiP878joCq2Pj2","","","","","","","","","","","","","","","","","chosen stimuli: images/demo_images/choice_trial_1.png","","","",""
"html-keyboard-response","14","26929","0.0-6.0-2.0","","null","","null","delaylearn","learning","feedback_duration_window","65ddeb0d1a44628b53924756","m5LJgBycrwgxlnEiP878joCq2Pj2","","","","","","","","","","","","","","","","","","3000","","",""
"html-keyboard-response","15","28436","0.0-6.0-3.0","","null","<div style='margin:auto;width: auto; font-size: 150%'><span style='font-weight: bold; font-size: 100px; color: red;'>0 points!</span><br><br></div>","null","delaylearn","learning","feedback_image_window","65ddeb0d1a44628b53924756","m5LJgBycrwgxlnEiP878joCq2Pj2","","","","","","","","","","","","","","","","","","","","",""
"html-keyboard-response","16","30779","0.0-7.0","","null","<div style=""font-size:100px;"">+</div>","null","delaylearn","learning","ITI","65ddeb0d1a44628b53924756","m5LJgBycrwgxlnEiP878joCq2Pj2","","","","","","","","","","","","","","","","","","","2336","",""
"html-keyboard-response","17","32384","0.0-8.0-0.0","","1602.1000001430511","<div style=""display: flex; flex-direction: column; align-items: center; margin-top: -40px;""><img src=""images/demo_images/pattern_1.png"" style=""width: 234px; height: 230px; margin-top: -50px;""><div style=""display: flex; justify-content: space-between; margin-top: 33px;""><img src=""images/demo_images/choice_trial_1.png"" style=""width: 408px; height: 417px; margin-right: 200px;""><img src=""images/demo_images/choice_trial_2.png"" style=""width: 408px; height: 417px;""></div></div>","j","delaylearn","learning","trial","65ddeb0d1a44628b53924756","m5LJgBycrwgxlnEiP878joCq2Pj2","5","images/demo_images/choice_trial_1.png","images/demo_images/choice_trial_2.png","images/demo_images/pattern_1.png","f","f","3000","1","2","20","0","4","0","0","2","20","","","","",""
"html-keyboard-response","18","33392","0.0-8.0-1.0","","null","<div style=""display: flex; flex-direction: column; align-items: center; margin-top: -40px;""><img src=""images/demo_images/pattern_1.png"" style=""width: 234px; height: 230px; margin-top: -50px;""><div style=""display: flex; justify-content: space-between; margin-top: 33px;""><img src=""images/demo_images/choice_trial_2.png"" style=""width: 408px; height: 417px; margin-left:608px;""></div></div>","null","delaylearn","learning","display_response","65ddeb0d1a44628b53924756","m5LJgBycrwgxlnEiP878joCq2Pj2","","","","","","","","","","","","","","","","","chosen stimuli: images/demo_images/choice_trial_2.png","","","",""
"html-keyboard-response","19","36399","0.0-8.0-2.0","","null","","null","delaylearn","learning","feedback_duration_window","65ddeb0d1a44628b53924756","m5LJgBycrwgxlnEiP878joCq2Pj2","","","","","","","","","","","","","","","","","","3000","","",""
"html-keyboard-response","20","37906","0.0-8.0-3.0","","null","<div style='margin:auto;width: auto; font-size: 150%'><span style='font-weight: bold; font-size: 100px; color: red;'>0 points!</span><br><br></div>","null","delaylearn","learning","feedback_image_window","65ddeb0d1a44628b53924756","m5LJgBycrwgxlnEiP878joCq2Pj2","","","","","","","","","","","","","","","","","","","","",""
"html-keyboard-response","21","38411","0.0-9.0-0.0","","null","","null","","","mood_trial_fixation","","","","","","","","","","","","","","","","","","","","","","",""
"lmdlab-html-vas-response","22","41926","0.0-9.0-1.0","","2502","How happy are you right now?","0.9510869565217391","delaylearn","learning","mood_trial","65ddeb0d1a44628b53924756","m5LJgBycrwgxlnEiP878joCq2Pj2","","","","","","","","","","","","","","","","","","","","[""Very unhappy"",""Very happy""]",""
"html-keyboard-response","23","44223","0.0-10.0","","null","<div style=""font-size:100px;"">+</div>","null","delaylearn","learning","ITI","65ddeb0d1a44628b53924756","m5LJgBycrwgxlnEiP878joCq2Pj2","","","","","","","","","","","","","","","","","","","2291","",""
"html-keyboard-response","24","45015","0.0-11.0-0.0","","788.7999999523163","<div style=""display: flex; flex-direction: column; align-items: center; margin-top: -40px;""><img src=""images/demo_images/pattern_1.png"" style=""width: 234px; height: 230px; margin-top: -50px;""><div style=""display: flex; justify-content: space-between; margin-top: 33px;""><img src=""images/demo_images/choice_trial_2.png"" style=""width: 408px; height: 417px; margin-right: 200px;""><img src=""images/demo_images/choice_trial_1.png"" style=""width: 408px; height: 417px;""></div></div>","f","delaylearn","learning","trial","65ddeb0d1a44628b53924756","m5LJgBycrwgxlnEiP878joCq2Pj2","5","images/demo_images/choice_trial_2.png","images/demo_images/choice_trial_1.png","images/demo_images/pattern_1.png","j","j","3000","2","1","20","1","5","0","0","2","20","","","","",""
"html-keyboard-response","25","46023","0.0-11.0-1.0","","null","<div style=""display: flex; flex-direction: column; align-items: center; margin-top: -40px;""><img src=""images/demo_images/pattern_1.png"" style=""width: 234px; height: 230px; margin-top: -50px;""><div style=""display: flex; justify-content: space-between; margin-top: 33px;""><img src=""images/demo_images/choice_trial_2.png"" style=""width: 408px; height: 417px; margin-right: 608px;""></div></div>","null","delaylearn","learning","display_response","65ddeb0d1a44628b53924756","m5LJgBycrwgxlnEiP878joCq2Pj2","","","","","","","","","","","","","","","","","chosen stimuli: images/demo_images/choice_trial_2.png","","","",""
"html-keyboard-response","26","49030","0.0-11.0-2.0","","null","","null","delaylearn","learning","feedback_duration_window","65ddeb0d1a44628b53924756","m5LJgBycrwgxlnEiP878joCq2Pj2","","","","","","","","","","","","","","","","","","3000","","",""
"html-keyboard-response","27","50538","0.0-11.0-3.0","","null","<div style='margin:auto;width: auto; font-size: 150%'><span style='font-weight: bold; font-size: 100px; color: red;'>0 points!</span><br><br></div>","null","delaylearn","learning","feedback_image_window","65ddeb0d1a44628b53924756","m5LJgBycrwgxlnEiP878joCq2Pj2","","","","","","","","","","","","","","","","","","","","",""
"html-keyboard-response","28","52851","0.0-12.0","","null","<div style=""font-size:100px;"">+</div>","null","delaylearn","learning","ITI","65ddeb0d1a44628b53924756","m5LJgBycrwgxlnEiP878joCq2Pj2","","","","","","","","","","","","","","","","","","","2306","",""
"html-keyboard-response","29","53659","0.0-13.0-0.0","","805.4000000953674","<div style=""display: flex; flex-direction: column; align-items: center; margin-top: -40px;""><img src=""images/demo_images/pattern_1.png"" style=""width: 234px; height: 230px; margin-top: -50px;""><div style=""display: flex; justify-content: space-between; margin-top: 33px;""><img src=""images/demo_images/choice_trial_1.png"" style=""width: 408px; height: 417px; margin-right: 200px;""><img src=""images/demo_images/choice_trial_2.png"" style=""width: 408px; height: 417px;""></div></div>","f","delaylearn","learning","trial","65ddeb0d1a44628b53924756","m5LJgBycrwgxlnEiP878joCq2Pj2","5","images/demo_images/choice_trial_1.png","images/demo_images/choice_trial_2.png","images/demo_images/pattern_1.png","f","f","3000","1","2","20","0","6","1","1","1","30","","","","",""
"html-keyboard-response","30","54666","0.0-13.0-1.0","","null","<div style=""display: flex; flex-direction: column; align-items: center; margin-top: -40px;""><img src=""images/demo_images/pattern_1.png"" style=""width: 234px; height: 230px; margin-top: -50px;""><div style=""display: flex; justify-content: space-between; margin-top: 33px;""><img src=""images/demo_images/choice_trial_1.png"" style=""width: 408px; height: 417px; margin-right: 608px;""></div></div>","null","delaylearn","learning","display_response","65ddeb0d1a44628b53924756","m5LJgBycrwgxlnEiP878joCq2Pj2","","","","","","","","","","","","","","","","","chosen stimuli: images/demo_images/choice_trial_1.png","","","",""
"html-keyboard-response","31","57674","0.0-13.0-2.0","","null","","null","delaylearn","learning","feedback_duration_window","65ddeb0d1a44628b53924756","m5LJgBycrwgxlnEiP878joCq2Pj2","","","","","","","","","","","","","","","","","","3000","","",""
"html-keyboard-response","32","59181","0.0-13.0-3.0","","null","<div style='margin:auto;width: auto; font-size: 150%'><span style='font-weight: bold; font-size: 100px; color: green;'>+10 points!</span><br><br></div>","null","delaylearn","learning","feedback_image_window","65ddeb0d1a44628b53924756","m5LJgBycrwgxlnEiP878joCq2Pj2","","","","","","","","","","","","","","","","","","","","",""
"html-keyboard-response","33","61446","0.0-14.0","","null","<div style=""font-size:100px;"">+</div>","null","delaylearn","learning","ITI","65ddeb0d1a44628b53924756","m5LJgBycrwgxlnEiP878joCq2Pj2","","","","","","","","","","","","","","","","","","","2258","",""
"html-keyboard-response","34","61927","0.0-15.0-0.0","","477.69999980926514","<div style=""display: flex; flex-direction: column; align-items: center; margin-top: -40px;""><img src=""images/demo_images/pattern_1.png"" style=""width: 234px; height: 230px; margin-top: -50px;""><div style=""display: flex; justify-content: space-between; margin-top: 33px;""><img src=""images/demo_images/choice_trial_2.png"" style=""width: 408px; height: 417px; margin-right: 200px;""><img src=""images/demo_images/choice_trial_1.png"" style=""width: 408px; height: 417px;""></div></div>","j","delaylearn","learning","trial","65ddeb0d1a44628b53924756","m5LJgBycrwgxlnEiP878joCq2Pj2","5","images/demo_images/choice_trial_2.png","images/demo_images/choice_trial_1.png","images/demo_images/pattern_1.png","j","j","3000","2","1","20","1","7","1","1","1","40","","","","",""
"html-keyboard-response","35","62934","0.0-15.0-1.0","","null","<div style=""display: flex; flex-direction: column; align-items: center; margin-top: -40px;""><img src=""images/demo_images/pattern_1.png"" style=""width: 234px; height: 230px; margin-top: -50px;""><div style=""display: flex; justify-content: space-between; margin-top: 33px;""><img src=""images/demo_images/choice_trial_1.png"" style=""width: 408px; height: 417px; margin-left:608px;""></div></div>","null","delaylearn","learning","display_response","65ddeb0d1a44628b53924756","m5LJgBycrwgxlnEiP878joCq2Pj2","","","","","","","","","","","","","","","","","chosen stimuli: images/demo_images/choice_trial_1.png","","","",""
"html-keyboard-response","36","65940","0.0-15.0-2.0","","null","","null","delaylearn","learning","feedback_duration_window","65ddeb0d1a44628b53924756","m5LJgBycrwgxlnEiP878joCq2Pj2","","","","","","","","","","","","","","","","","","3000","","",""
"html-keyboard-response","37","67448","0.0-15.0-3.0","","null","<div style='margin:auto;width: auto; font-size: 150%'><span style='font-weight: bold; font-size: 100px; color: green;'>+10 points!</span><br><br></div>","null","delaylearn","learning","feedback_image_window","65ddeb0d1a44628b53924756","m5LJgBycrwgxlnEiP878joCq2Pj2","","","","","","","","","","","","","","","","","","","","",""
"html-keyboard-response","38","69489","0.0-16.0","","null","<div style=""font-size:100px;"">+</div>","null","delaylearn","learning","ITI","65ddeb0d1a44628b53924756","m5LJgBycrwgxlnEiP878joCq2Pj2","","","","","","","","","","","","","","","","","","","2034","",""
"html-keyboard-response","39","70231","0.0-17.0-0.0","","739.3000001907349","<div style=""display: flex; flex-direction: column; align-items: center; margin-top: -40px;""><img src=""images/demo_images/pattern_1.png"" style=""width: 234px; height: 230px; margin-top: -50px;""><div style=""display: flex; justify-content: space-between; margin-top: 33px;""><img src=""images/demo_images/choice_trial_1.png"" style=""width: 408px; height: 417px; margin-right: 200px;""><img src=""images/demo_images/choice_trial_2.png"" style=""width: 408px; height: 417px;""></div></div>","f","delaylearn","learning","trial","65ddeb0d1a44628b53924756","m5LJgBycrwgxlnEiP878joCq2Pj2","5","images/demo_images/choice_trial_1.png","images/demo_images/choice_trial_2.png","images/demo_images/pattern_1.png","f","f","3000","1","2","20","0","8","1","1","1","50","","","","",""
"html-keyboard-response","40","71238","0.0-17.0-1.0","","null","<div style=""display: flex; flex-direction: column; align-items: center; margin-top: -40px;""><img src=""images/demo_images/pattern_1.png"" style=""width: 234px; height: 230px; margin-top: -50px;""><div style=""display: flex; justify-content: space-between; margin-top: 33px;""><img src=""images/demo_images/choice_trial_1.png"" style=""width: 408px; height: 417px; margin-right: 608px;""></div></div>","null","delaylearn","learning","display_response","65ddeb0d1a44628b53924756","m5LJgBycrwgxlnEiP878joCq2Pj2","","","","","","","","","","","","","","","","","chosen stimuli: images/demo_images/choice_trial_1.png","","","",""
"html-keyboard-response","41","74246","0.0-17.0-2.0","","null","","null","delaylearn","learning","feedback_duration_window","65ddeb0d1a44628b53924756","m5LJgBycrwgxlnEiP878joCq2Pj2","","","","","","","","","","","","","","","","","","3000","","",""
"html-keyboard-response","42","75753","0.0-17.0-3.0","","null","<div style='margin:auto;width: auto; font-size: 150%'><span style='font-weight: bold; font-size: 100px; color: green;'>+10 points!</span><br><br></div>","null","delaylearn","learning","feedback_image_window","65ddeb0d1a44628b53924756","m5LJgBycrwgxlnEiP878joCq2Pj2","","","","","","","","","","","","","","","","","","","","",""
"html-button-response","43","78263","0.0-18.0","","2507.399999856949","
  <div style=""display: flex; align-items: center; justify-content: center; height: 80vh;"">
  <div>
          <img src=""images/inst_demo_finish.png"" style=""width: 80vw; height:auto;"">
          <br><br>
      </div>
      <br><br>
  </div>","0","","","","","","","","","","","","","","","","","","","","","","","","","",""
"html-keyboard-response","44","80713","0.0-19.0","","2447.4000000953674","
  <div style=""display: flex; align-items: center; justify-content: center; height: 80vh;"">
  <div>
          <img src=""images/inst_6.png"" style=""width: 80vw; height:auto;"">
          <br><br>
      </div>
      <br><br>
  </div>","j","","","","","","","","","","","","","","","","","","","","","","","","","",""
"html-keyboard-response","45","83717","0.0-20.0","","null","<div style=""font-size:100px;"">+</div>","null","delaylearn","learning","pre_fixation","65ddeb0d1a44628b53924756","","","","","","","","","","","","","","","","","","","","","",""
"html-keyboard-response","46","86110","0.0-21.0","","null","<div style=""font-size:100px;"">+</div>","null","delaylearn","learning","ITI","65ddeb0d1a44628b53924756","m5LJgBycrwgxlnEiP878joCq2Pj2","","","","","","","","","","","","","","","","","","","2385","",""
"html-keyboard-response","47","86820","0.0-22.0-0.0","","707","<div style=""display: flex; flex-direction: column; align-items: center; margin-top: -40px;""><img src=""images/pattern_3.png"" style=""width: 234px; height: 230px; margin-top: -50px;""><div style=""display: flex; justify-content: space-between; margin-top: 33px;""><img src=""images/choice_trial_16.png"" style=""width: 408px; height: 417px; margin-right: 200px;""><img src=""images/choice_trial_2.png"" style=""width: 408px; height: 417px;""></div></div>","f","delaylearn","learning","trial","65ddeb0d1a44628b53924756","m5LJgBycrwgxlnEiP878joCq2Pj2","5","images/choice_trial_16.png","images/choice_trial_2.png","images/pattern_3.png","f","f","7000","16","2","2","0","9","1","1","16","60","","","","",""
"html-keyboard-response","48","87825","0.0-22.0-1.0","","null","<div style=""display: flex; flex-direction: column; align-items: center; margin-top: -40px;""><img src=""images/pattern_3.png"" style=""width: 234px; height: 230px; margin-top: -50px;""><div style=""display: flex; justify-content: space-between; margin-top: 33px;""><img src=""images/choice_trial_16.png"" style=""width: 408px; height: 417px; margin-right: 608px;""></div></div>","null","delaylearn","learning","display_response","65ddeb0d1a44628b53924756","m5LJgBycrwgxlnEiP878joCq2Pj2","","","","","","","","","","","","","","","","","chosen stimuli: images/choice_trial_16.png","","","",""
"html-keyboard-response","49","94833","0.0-22.0-2.0","","null","","null","delaylearn","learning","feedback_duration_window","65ddeb0d1a44628b53924756","m5LJgBycrwgxlnEiP878joCq2Pj2","","","","","","","","","","","","","","","","","","7000","","",""
"html-keyboard-response","50","96340","0.0-22.0-3.0","","null","<div style='margin:auto;width: auto; font-size: 150%'><span style='font-weight: bold; font-size: 100px; color: green;'>+10 points!</span><br><br></div>","null","delaylearn","learning","feedback_image_window","65ddeb0d1a44628b53924756","m5LJgBycrwgxlnEiP878joCq2Pj2","","","","","","","","","","","","","","","","","","","","",""
"html-keyboard-response","51","98550","0.0-23.0","","null","<div style=""font-size:100px;"">+</div>","null","delaylearn","learning","ITI","65ddeb0d1a44628b53924756","m5LJgBycrwgxlnEiP878joCq2Pj2","","","","","","","","","","","","","","","","","","","2205","",""
"html-keyboard-response","52","100785","0.0-24.0-0.0","","2232","<div style=""display: flex; flex-direction: column; align-items: center; margin-top: -40px;""><img src=""images/pattern_7.png"" style=""width: 234px; height: 230px; margin-top: -50px;""><div style=""display: flex; justify-content: space-between; margin-top: 33px;""><img src=""images/choice_trial_10.png"" style=""width: 408px; height: 417px; margin-right: 200px;""><img src=""images/choice_trial_8.png"" style=""width: 408px; height: 417px;""></div></div>","j","delaylearn","learning","trial","65ddeb0d1a44628b53924756","m5LJgBycrwgxlnEiP878joCq2Pj2","5","images/choice_trial_10.png","images/choice_trial_8.png","images/pattern_7.png","j","j","750","10","8","6","1","10","1","1","8","70","","","","",""
"html-keyboard-response","53","101791","0.0-24.0-1.0","","null","<div style=""display: flex; flex-direction: column; align-items: center; margin-top: -40px;""><img src=""images/pattern_7.png"" style=""width: 234px; height: 230px; margin-top: -50px;""><div style=""display: flex; justify-content: space-between; margin-top: 33px;""><img src=""images/choice_trial_8.png"" style=""width: 408px; height: 417px; margin-left:608px;""></div></div>","null","delaylearn","learning","display_response","65ddeb0d1a44628b53924756","m5LJgBycrwgxlnEiP878joCq2Pj2","","","","","","","","","","","","","","","","","chosen stimuli: images/choice_trial_8.png","","","",""
"html-keyboard-response","54","102548","0.0-24.0-2.0","","null","","null","delaylearn","learning","feedback_duration_window","65ddeb0d1a44628b53924756","m5LJgBycrwgxlnEiP878joCq2Pj2","","","","","","","","","","","","","","","","","","750","","",""
"html-keyboard-response","55","104050","0.0-24.0-3.0","","null","<div style='margin:auto;width: auto; font-size: 150%'><span style='font-weight: bold; font-size: 100px; color: green;'>+10 points!</span><br><br></div>","null","delaylearn","learning","feedback_image_window","65ddeb0d1a44628b53924756","m5LJgBycrwgxlnEiP878joCq2Pj2","","","","","","","","","","","","","","","","","","","","",""
"html-keyboard-response","56","105626","0.0-25.0","","null","<div style=""font-size:100px;"">+</div>","null","delaylearn","learning","ITI","65ddeb0d1a44628b53924756","m5LJgBycrwgxlnEiP878joCq2Pj2","","","","","","","","","","","","","","","","","","","1568","",""
"html-keyboard-response","57","106691","0.0-26.0-0.0","","1062.2000000476837","<div style=""display: flex; flex-direction: column; align-items: center; margin-top: -40px;""><img src=""images/pattern_4.png"" style=""width: 234px; height: 230px; margin-top: -50px;""><div style=""display: flex; justify-content: space-between; margin-top: 33px;""><img src=""images/choice_trial_11.png"" style=""width: 408px; height: 417px; margin-right: 200px;""><img src=""images/choice_trial_4.png"" style=""width: 408px; height: 417px;""></div></div>","f","delaylearn","learning","trial","65ddeb0d1a44628b53924756","m5LJgBycrwgxlnEiP878joCq2Pj2","5","images/choice_trial_11.png","images/choice_trial_4.png","images/pattern_4.png","f","f","7000","11","4","3","0","11","1","1","11","80","","","","",""
"html-keyboard-response","58","107698","0.0-26.0-1.0","","null","<div style=""display: flex; flex-direction: column; align-items: center; margin-top: -40px;""><img src=""images/pattern_4.png"" style=""width: 234px; height: 230px; margin-top: -50px;""><div style=""display: flex; justify-content: space-between; margin-top: 33px;""><img src=""images/choice_trial_11.png"" style=""width: 408px; height: 417px; margin-right: 608px;""></div></div>","null","delaylearn","learning","display_response","65ddeb0d1a44628b53924756","m5LJgBycrwgxlnEiP878joCq2Pj2","","","","","","","","","","","","","","","","","chosen stimuli: images/choice_trial_11.png","","","",""
"html-keyboard-response","59","114705","0.0-26.0-2.0","","null","","null","delaylearn","learning","feedback_duration_window","65ddeb0d1a44628b53924756","m5LJgBycrwgxlnEiP878joCq2Pj2","","","","","","","","","","","","","","","","","","7000","","",""
"html-keyboard-response","60","116211","0.0-26.0-3.0","","null","<div style='margin:auto;width: auto; font-size: 150%'><span style='font-weight: bold; font-size: 100px; color: green;'>+10 points!</span><br><br></div>","null","delaylearn","learning","feedback_image_window","65ddeb0d1a44628b53924756","m5LJgBycrwgxlnEiP878joCq2Pj2","","","","","","","","","","","","","","","","","","","","",""
"html-keyboard-response","61","118005","0.0-27.0","","null","<div style=""font-size:100px;"">+</div>","null","delaylearn","learning","ITI","65ddeb0d1a44628b53924756","m5LJgBycrwgxlnEiP878joCq2Pj2","","","","","","","","","","","","","","","","","","","1792","",""
"html-keyboard-response","62","120639","0.0-28.0-0.0","","2630.2999999523163","<div style=""display: flex; flex-direction: column; align-items: center; margin-top: -40px;""><img src=""images/pattern_5.png"" style=""width: 234px; height: 230px; margin-top: -50px;""><div style=""display: flex; justify-content: space-between; margin-top: 33px;""><img src=""images/choice_trial_13.png"" style=""width: 408px; height: 417px; margin-right: 200px;""><img src=""images/choice_trial_7.png"" style=""width: 408px; height: 417px;""></div></div>","j","delaylearn","learning","trial","65ddeb0d1a44628b53924756","m5LJgBycrwgxlnEiP878joCq2Pj2","5","images/choice_trial_13.png","images/choice_trial_7.png","images/pattern_5.png","j","j","750","13","7","4","1","12","1","1","7","90","","","","",""
"html-keyboard-response","63","121645","0.0-28.0-1.0","","null","<div style=""display: flex; flex-direction: column; align-items: center; margin-top: -40px;""><img src=""images/pattern_5.png"" style=""width: 234px; height: 230px; margin-top: -50px;""><div style=""display: flex; justify-content: space-between; margin-top: 33px;""><img src=""images/choice_trial_7.png"" style=""width: 408px; height: 417px; margin-left:608px;""></div></div>","null","delaylearn","learning","display_response","65ddeb0d1a44628b53924756","m5LJgBycrwgxlnEiP878joCq2Pj2","","","","","","","","","","","","","","","","","chosen stimuli: images/choice_trial_7.png","","","",""
"html-keyboard-response","64","122402","0.0-28.0-2.0","","null","","null","delaylearn","learning","feedback_duration_window","65ddeb0d1a44628b53924756","m5LJgBycrwgxlnEiP878joCq2Pj2","","","","","","","","","","","","","","","","","","750","","",""
"html-keyboard-response","65","123908","0.0-28.0-3.0","","null","<div style='margin:auto;width: auto; font-size: 150%'><span style='font-weight: bold; font-size: 100px; color: green;'>+10 points!</span><br><br></div>","null","delaylearn","learning","feedback_image_window","65ddeb0d1a44628b53924756","m5LJgBycrwgxlnEiP878joCq2Pj2","","","","","","","","","","","","","","","","","","","","",""
"html-keyboard-response","66","125615","0.0-29.0","","null","<div style=""font-size:100px;"">+</div>","null","delaylearn","learning","ITI","65ddeb0d1a44628b53924756","m5LJgBycrwgxlnEiP878joCq2Pj2","","","","","","","","","","","","","","","","","","","1702","",""
"html-keyboard-response","67","127023","0.0-30.0-0.0","","1404.5","<div style=""display: flex; flex-direction: column; align-items: center; margin-top: -40px;""><img src=""images/pattern_6.png"" style=""width: 234px; height: 230px; margin-top: -50px;""><div style=""display: flex; justify-content: space-between; margin-top: 33px;""><img src=""images/choice_trial_14.png"" style=""width: 408px; height: 417px; margin-right: 200px;""><img src=""images/choice_trial_9.png"" style=""width: 408px; height: 417px;""></div></div>","j","delaylearn","learning","trial","65ddeb0d1a44628b53924756","m5LJgBycrwgxlnEiP878joCq2Pj2","5","images/choice_trial_14.png","images/choice_trial_9.png","images/pattern_6.png","j","f","750","14","9","5","0","13","0","1","9","100","","","","",""
"html-keyboard-response","68","128031","0.0-30.0-1.0","","null","<div style=""display: flex; flex-direction: column; align-items: center; margin-top: -40px;""><img src=""images/pattern_6.png"" style=""width: 234px; height: 230px; margin-top: -50px;""><div style=""display: flex; justify-content: space-between; margin-top: 33px;""><img src=""images/choice_trial_9.png"" style=""width: 408px; height: 417px; margin-left:608px;""></div></div>","null","delaylearn","learning","display_response","65ddeb0d1a44628b53924756","m5LJgBycrwgxlnEiP878joCq2Pj2","","","","","","","","","","","","","","","","","chosen stimuli: images/choice_trial_9.png","","","",""
"html-keyboard-response","69","128783","0.0-30.0-2.0","","null","","null","delaylearn","learning","feedback_duration_window","65ddeb0d1a44628b53924756","m5LJgBycrwgxlnEiP878joCq2Pj2","","","","","","","","","","","","","","","","","","750","","",""
"html-keyboard-response","70","130291","0.0-30.0-3.0","","null","<div style='margin:auto;width: auto; font-size: 150%'><span style='font-weight: bold; font-size: 100px; color: green;'>+10 points!</span><br><br></div>","null","delaylearn","learning","feedback_image_window","65ddeb0d1a44628b53924756","m5LJgBycrwgxlnEiP878joCq2Pj2","","","","","","","","","","","","","","","","","","","","",""
"html-keyboard-response","71","130795","0.0-31.0-0.0","","null","","null","","","mood_trial_fixation","","","","","","","","","","","","","","","","","","","","","","",""
"lmdlab-html-vas-response","72","133618","0.0-31.0-1.0","","1813","How happy are you right now?","0.9927536231884058","delaylearn","learning","mood_trial","65ddeb0d1a44628b53924756","m5LJgBycrwgxlnEiP878joCq2Pj2","","","","","","","","","","","","","","","","","","","","[""Very unhappy"",""Very happy""]",""
"html-keyboard-response","73","135664","0.0-32.0","","null","<div style=""font-size:100px;"">+</div>","null","delaylearn","learning","ITI","65ddeb0d1a44628b53924756","m5LJgBycrwgxlnEiP878joCq2Pj2","","","","","","","","","","","","","","","","","","","2040","",""
"html-keyboard-response","74","136491","0.0-33.0-0.0","","823.2999999523163","<div style=""display: flex; flex-direction: column; align-items: center; margin-top: -40px;""><img src=""images/pattern_1.png"" style=""width: 234px; height: 230px; margin-top: -50px;""><div style=""display: flex; justify-content: space-between; margin-top: 33px;""><img src=""images/choice_trial_15.png"" style=""width: 408px; height: 417px; margin-right: 200px;""><img src=""images/choice_trial_6.png"" style=""width: 408px; height: 417px;""></div></div>","f","delaylearn","learning","trial","65ddeb0d1a44628b53924756","m5LJgBycrwgxlnEiP878joCq2Pj2","5","images/choice_trial_15.png","images/choice_trial_6.png","images/pattern_1.png","j","j","7000","15","6","1","1","14","0","0","15","100","","","","",""
"html-keyboard-response","75","137499","0.0-33.0-1.0","","null","<div style=""display: flex; flex-direction: column; align-items: center; margin-top: -40px;""><img src=""images/pattern_1.png"" style=""width: 234px; height: 230px; margin-top: -50px;""><div style=""display: flex; justify-content: space-between; margin-top: 33px;""><img src=""images/choice_trial_15.png"" style=""width: 408px; height: 417px; margin-right: 608px;""></div></div>","null","delaylearn","learning","display_response","65ddeb0d1a44628b53924756","m5LJgBycrwgxlnEiP878joCq2Pj2","","","","","","","","","","","","","","","","","chosen stimuli: images/choice_trial_15.png","","","",""
"html-keyboard-response","76","144505","0.0-33.0-2.0","","null","","null","delaylearn","learning","feedback_duration_window","65ddeb0d1a44628b53924756","m5LJgBycrwgxlnEiP878joCq2Pj2","","","","","","","","","","","","","","","","","","7000","","",""
"html-keyboard-response","77","146013","0.0-33.0-3.0","","null","<div style='margin:auto;width: auto; font-size: 150%'><span style='font-weight: bold; font-size: 100px; color: red;'>0 points!</span><br><br></div>","null","delaylearn","learning","feedback_image_window","65ddeb0d1a44628b53924756","m5LJgBycrwgxlnEiP878joCq2Pj2","","","","","","","","","","","","","","","","","","","","",""
"html-keyboard-response","78","148106","0.0-34.0","","null","<div style=""font-size:100px;"">+</div>","null","delaylearn","learning","ITI","65ddeb0d1a44628b53924756","m5LJgBycrwgxlnEiP878joCq2Pj2","","","","","","","","","","","","","","","","","","","2086","",""
"html-keyboard-response","79","149537","0.0-35.0-0.0","","1427.5999999046326","<div style=""display: flex; flex-direction: column; align-items: center; margin-top: -40px;""><img src=""images/pattern_3.png"" style=""width: 234px; height: 230px; margin-top: -50px;""><div style=""display: flex; justify-content: space-between; margin-top: 33px;""><img src=""images/choice_trial_2.png"" style=""width: 408px; height: 417px; margin-right: 200px;""><img src=""images/choice_trial_16.png"" style=""width: 408px; height: 417px;""></div></div>","j","delaylearn","learning","trial","65ddeb0d1a44628b53924756","m5LJgBycrwgxlnEiP878joCq2Pj2","5","images/choice_trial_2.png","images/choice_trial_16.png","images/pattern_3.png","f","j","7000","2","16","2","1","15","1","0","16","100","","","","",""
"html-keyboard-response","80","150541","0.0-35.0-1.0","","null","<div style=""display: flex; flex-direction: column; align-items: center; margin-top: -40px;""><img src=""images/pattern_3.png"" style=""width: 234px; height: 230px; margin-top: -50px;""><div style=""display: flex; justify-content: space-between; margin-top: 33px;""><img src=""images/choice_trial_16.png"" style=""width: 408px; height: 417px; margin-left:608px;""></div></div>","null","delaylearn","learning","display_response","65ddeb0d1a44628b53924756","m5LJgBycrwgxlnEiP878joCq2Pj2","","","","","","","","","","","","","","","","","chosen stimuli: images/choice_trial_16.png","","","",""
"html-keyboard-response","81","157548","0.0-35.0-2.0","","null","","null","delaylearn","learning","feedback_duration_window","65ddeb0d1a44628b53924756","m5LJgBycrwgxlnEiP878joCq2Pj2","","","","","","","","","","","","","","","","","","7000","","",""
"html-keyboard-response","82","159056","0.0-35.0-3.0","","null","<div style='margin:auto;width: auto; font-size: 150%'><span style='font-weight: bold; font-size: 100px; color: red;'>0 points!</span><br><br></div>","null","delaylearn","learning","feedback_image_window","65ddeb0d1a44628b53924756","m5LJgBycrwgxlnEiP878joCq2Pj2","","","","","","","","","","","","","","","","","","","","",""
"html-keyboard-response","83","161017","0.0-36.0","","null","<div style=""font-size:100px;"">+</div>","null","delaylearn","learning","ITI","65ddeb0d1a44628b53924756","m5LJgBycrwgxlnEiP878joCq2Pj2","","","","","","","","","","","","","","","","","","","1954","",""
"html-keyboard-response","84","162160","0.0-37.0-0.0","","1139.9000000953674","<div style=""display: flex; flex-direction: column; align-items: center; margin-top: -40px;""><img src=""images/pattern_5.png"" style=""width: 234px; height: 230px; margin-top: -50px;""><div style=""display: flex; justify-content: space-between; margin-top: 33px;""><img src=""images/choice_trial_7.png"" style=""width: 408px; height: 417px; margin-right: 200px;""><img src=""images/choice_trial_13.png"" style=""width: 408px; height: 417px;""></div></div>","f","delaylearn","learning","trial","65ddeb0d1a44628b53924756","m5LJgBycrwgxlnEiP878joCq2Pj2","5","images/choice_trial_7.png","images/choice_trial_13.png","images/pattern_5.png","f","f","750","7","13","4","0","16","1","1","7","110","","","","",""
"html-keyboard-response","85","163167","0.0-37.0-1.0","","null","<div style=""display: flex; flex-direction: column; align-items: center; margin-top: -40px;""><img src=""images/pattern_5.png"" style=""width: 234px; height: 230px; margin-top: -50px;""><div style=""display: flex; justify-content: space-between; margin-top: 33px;""><img src=""images/choice_trial_7.png"" style=""width: 408px; height: 417px; margin-right: 608px;""></div></div>","null","delaylearn","learning","display_response","65ddeb0d1a44628b53924756","m5LJgBycrwgxlnEiP878joCq2Pj2","","","","","","","","","","","","","","","","","chosen stimuli: images/choice_trial_7.png","","","",""
"html-keyboard-response","86","163924","0.0-37.0-2.0","","null","","null","delaylearn","learning","feedback_duration_window","65ddeb0d1a44628b53924756","m5LJgBycrwgxlnEiP878joCq2Pj2","","","","","","","","","","","","","","","","","","750","","",""
"html-keyboard-response","87","165432","0.0-37.0-3.0","","null","<div style='margin:auto;width: auto; font-size: 150%'><span style='font-weight: bold; font-size: 100px; color: green;'>+10 points!</span><br><br></div>","null","delaylearn","learning","feedback_image_window","65ddeb0d1a44628b53924756","m5LJgBycrwgxlnEiP878joCq2Pj2","","","","","","","","","","","","","","","","","","","","",""
"html-keyboard-response","88","165936","0.0-38.0-0.0","","null","","null","","","mood_trial_fixation","","","","","","","","","","","","","","","","","","","","","","",""
"lmdlab-html-vas-response","89","169094","0.0-38.0-1.0","","2152","How happy are you right now?","0.9873188405797102","delaylearn","learning","mood_trial","65ddeb0d1a44628b53924756","m5LJgBycrwgxlnEiP878joCq2Pj2","","","","","","","","","","","","","","","","","","","","[""Very unhappy"",""Very happy""]",""
"html-keyboard-response","90","171238","0.0-39.0","","null","<div style=""font-size:100px;"">+</div>","null","delaylearn","learning","ITI","65ddeb0d1a44628b53924756","m5LJgBycrwgxlnEiP878joCq2Pj2","","","","","","","","","","","","","","","","","","","2141","",""
"html-keyboard-response","91","172155","0.0-40.0-0.0","","914.0999999046326","<div style=""display: flex; flex-direction: column; align-items: center; margin-top: -40px;""><img src=""images/pattern_6.png"" style=""width: 234px; height: 230px; margin-top: -50px;""><div style=""display: flex; justify-content: space-between; margin-top: 33px;""><img src=""images/choice_trial_14.png"" style=""width: 408px; height: 417px; margin-right: 200px;""><img src=""images/choice_trial_9.png"" style=""width: 408px; height: 417px;""></div></div>","j","delaylearn","learning","trial","65ddeb0d1a44628b53924756","m5LJgBycrwgxlnEiP878joCq2Pj2","5","images/choice_trial_14.png","images/choice_trial_9.png","images/pattern_6.png","f","f","750","14","9","5","0","17","0","0","9","110","","","","",""
"html-keyboard-response","92","173163","0.0-40.0-1.0","","null","<div style=""display: flex; flex-direction: column; align-items: center; margin-top: -40px;""><img src=""images/pattern_6.png"" style=""width: 234px; height: 230px; margin-top: -50px;""><div style=""display: flex; justify-content: space-between; margin-top: 33px;""><img src=""images/choice_trial_9.png"" style=""width: 408px; height: 417px; margin-left:608px;""></div></div>","null","delaylearn","learning","display_response","65ddeb0d1a44628b53924756","m5LJgBycrwgxlnEiP878joCq2Pj2","","","","","","","","","","","","","","","","","chosen stimuli: images/choice_trial_9.png","","","",""
"html-keyboard-response","93","173916","0.0-40.0-2.0","","null","","null","delaylearn","learning","feedback_duration_window","65ddeb0d1a44628b53924756","m5LJgBycrwgxlnEiP878joCq2Pj2","","","","","","","","","","","","","","","","","","750","","",""
"html-keyboard-response","94","175420","0.0-40.0-3.0","","null","<div style='margin:auto;width: auto; font-size: 150%'><span style='font-weight: bold; font-size: 100px; color: red;'>0 points!</span><br><br></div>","null","delaylearn","learning","feedback_image_window","65ddeb0d1a44628b53924756","m5LJgBycrwgxlnEiP878joCq2Pj2","","","","","","","","","","","","","","","","","","","","",""
"html-keyboard-response","95","177700","0.0-41.0","","null","<div style=""font-size:100px;"">+</div>","null","delaylearn","learning","ITI","65ddeb0d1a44628b53924756","m5LJgBycrwgxlnEiP878joCq2Pj2","","","","","","","","","","","","","","","","","","","2273","",""
"html-keyboard-response","96","178755","0.0-42.0-0.0","","1052.2999999523163","<div style=""display: flex; flex-direction: column; align-items: center; margin-top: -40px;""><img src=""images/pattern_4.png"" style=""width: 234px; height: 230px; margin-top: -50px;""><div style=""display: flex; justify-content: space-between; margin-top: 33px;""><img src=""images/choice_trial_4.png"" style=""width: 408px; height: 417px; margin-right: 200px;""><img src=""images/choice_trial_11.png"" style=""width: 408px; height: 417px;""></div></div>","f","delaylearn","learning","trial","65ddeb0d1a44628b53924756","m5LJgBycrwgxlnEiP878joCq2Pj2","5","images/choice_trial_4.png","images/choice_trial_11.png","images/pattern_4.png","j","j","7000","4","11","3","1","18","0","0","4","110","","","","",""
"html-keyboard-response","97","179763","0.0-42.0-1.0","","null","<div style=""display: flex; flex-direction: column; align-items: center; margin-top: -40px;""><img src=""images/pattern_4.png"" style=""width: 234px; height: 230px; margin-top: -50px;""><div style=""display: flex; justify-content: space-between; margin-top: 33px;""><img src=""images/choice_trial_4.png"" style=""width: 408px; height: 417px; margin-right: 608px;""></div></div>","null","delaylearn","learning","display_response","65ddeb0d1a44628b53924756","m5LJgBycrwgxlnEiP878joCq2Pj2","","","","","","","","","","","","","","","","","chosen stimuli: images/choice_trial_4.png","","","",""
"html-keyboard-response","98","186768","0.0-42.0-2.0","","null","","null","delaylearn","learning","feedback_duration_window","65ddeb0d1a44628b53924756","m5LJgBycrwgxlnEiP878joCq2Pj2","","","","","","","","","","","","","","","","","","7000","","",""
"html-keyboard-response","99","188273","0.0-42.0-3.0","","null","<div style='margin:auto;width: auto; font-size: 150%'><span style='font-weight: bold; font-size: 100px; color: red;'>0 points!</span><br><br></div>","null","delaylearn","learning","feedback_image_window","65ddeb0d1a44628b53924756","m5LJgBycrwgxlnEiP878joCq2Pj2","","","","","","","","","","","","","","","","","","","","",""
"html-keyboard-response","100","190610","0.0-43.0","","null","<div style=""font-size:100px;"">+</div>","null","delaylearn","learning","ITI","65ddeb0d1a44628b53924756","m5LJgBycrwgxlnEiP878joCq2Pj2","","","","","","","","","","","","","","","","","","","2332","",""
"html-keyboard-response","101","191744","0.0-44.0-0.0","","1131.5","<div style=""display: flex; flex-direction: column; align-items: center; margin-top: -40px;""><img src=""images/pattern_7.png"" style=""width: 234px; height: 230px; margin-top: -50px;""><div style=""display: flex; justify-content: space-between; margin-top: 33px;""><img src=""images/choice_trial_8.png"" style=""width: 408px; height: 417px; margin-right: 200px;""><img src=""images/choice_trial_10.png"" style=""width: 408px; height: 417px;""></div></div>","f","delaylearn","learning","trial","65ddeb0d1a44628b53924756","m5LJgBycrwgxlnEiP878joCq2Pj2","5","images/choice_trial_8.png","images/choice_trial_10.png","images/pattern_7.png","j","f","750","8","10","6","0","19","1","0","8","110","","","","",""
"html-keyboard-response","102","192752","0.0-44.0-1.0","","null","<div style=""display: flex; flex-direction: column; align-items: center; margin-top: -40px;""><img src=""images/pattern_7.png"" style=""width: 234px; height: 230px; margin-top: -50px;""><div style=""display: flex; justify-content: space-between; margin-top: 33px;""><img src=""images/choice_trial_8.png"" style=""width: 408px; height: 417px; margin-right: 608px;""></div></div>","null","delaylearn","learning","display_response","65ddeb0d1a44628b53924756","m5LJgBycrwgxlnEiP878joCq2Pj2","","","","","","","","","","","","","","","","","chosen stimuli: images/choice_trial_8.png","","","",""
"html-keyboard-response","103","193509","0.0-44.0-2.0","","null","","null","delaylearn","learning","feedback_duration_window","65ddeb0d1a44628b53924756","m5LJgBycrwgxlnEiP878joCq2Pj2","","","","","","","","","","","","","","","","","","750","","",""
"html-keyboard-response","104","195017","0.0-44.0-3.0","","null","<div style='margin:auto;width: auto; font-size: 150%'><span style='font-weight: bold; font-size: 100px; color: red;'>0 points!</span><br><br></div>","null","delaylearn","learning","feedback_image_window","65ddeb0d1a44628b53924756","m5LJgBycrwgxlnEiP878joCq2Pj2","","","","","","","","","","","","","","","","","","","","",""
"html-keyboard-response","105","197210","0.0-45.0","","null","<div style=""font-size:100px;"">+</div>","null","delaylearn","learning","ITI","65ddeb0d1a44628b53924756","m5LJgBycrwgxlnEiP878joCq2Pj2","","","","","","","","","","","","","","","","","","","2187","",""
"html-keyboard-response","106","198191","0.0-46.0-0.0","","977.1999998092651","<div style=""display: flex; flex-direction: column; align-items: center; margin-top: -40px;""><img src=""images/pattern_1.png"" style=""width: 234px; height: 230px; margin-top: -50px;""><div style=""display: flex; justify-content: space-between; margin-top: 33px;""><img src=""images/choice_trial_6.png"" style=""width: 408px; height: 417px; margin-right: 200px;""><img src=""images/choice_trial_15.png"" style=""width: 408px; height: 417px;""></div></div>","j","delaylearn","learning","trial","65ddeb0d1a44628b53924756","m5LJgBycrwgxlnEiP878joCq2Pj2","5","images/choice_trial_6.png","images/choice_trial_15.png","images/pattern_1.png","f","f","7000","6","15","1","0","20","0","0","15","110","","","","",""
"html-keyboard-response","107","199198","0.0-46.0-1.0","","null","<div style=""display: flex; flex-direction: column; align-items: center; margin-top: -40px;""><img src=""images/pattern_1.png"" style=""width: 234px; height: 230px; margin-top: -50px;""><div style=""display: flex; justify-content: space-between; margin-top: 33px;""><img src=""images/choice_trial_15.png"" style=""width: 408px; height: 417px; margin-left:608px;""></div></div>","null","delaylearn","learning","display_response","65ddeb0d1a44628b53924756","m5LJgBycrwgxlnEiP878joCq2Pj2","","","","","","","","","","","","","","","","","chosen stimuli: images/choice_trial_15.png","","","",""
"html-keyboard-response","108","206205","0.0-46.0-2.0","","null","","null","delaylearn","learning","feedback_duration_window","65ddeb0d1a44628b53924756","m5LJgBycrwgxlnEiP878joCq2Pj2","","","","","","","","","","","","","","","","","","7000","","",""
"html-keyboard-response","109","207710","0.0-46.0-3.0","","null","<div style='margin:auto;width: auto; font-size: 150%'><span style='font-weight: bold; font-size: 100px; color: red;'>0 points!</span><br><br></div>","null","delaylearn","learning","feedback_image_window","65ddeb0d1a44628b53924756","m5LJgBycrwgxlnEiP878joCq2Pj2","","","","","","","","","","","","","","","","","","","","",""
"html-keyboard-response","110","209314","0.0-47.0","","null","<div style=""font-size:100px;"">+</div>","null","delaylearn","learning","ITI","65ddeb0d1a44628b53924756","m5LJgBycrwgxlnEiP878joCq2Pj2","","","","","","","","","","","","","","","","","","","1601","",""
"html-keyboard-response","111","210582","0.0-48.0-0.0","","1265","<div style=""display: flex; flex-direction: column; align-items: center; margin-top: -40px;""><img src=""images/pattern_6.png"" style=""width: 234px; height: 230px; margin-top: -50px;""><div style=""display: flex; justify-content: space-between; margin-top: 33px;""><img src=""images/choice_trial_9.png"" style=""width: 408px; height: 417px; margin-right: 200px;""><img src=""images/choice_trial_14.png"" style=""width: 408px; height: 417px;""></div></div>","j","delaylearn","learning","trial","65ddeb0d1a44628b53924756","m5LJgBycrwgxlnEiP878joCq2Pj2","5","images/choice_trial_9.png","images/choice_trial_14.png","images/pattern_6.png","j","j","750","9","14","5","1","21","1","1","14","120","","","","",""
"html-keyboard-response","112","211586","0.0-48.0-1.0","","null","<div style=""display: flex; flex-direction: column; align-items: center; margin-top: -40px;""><img src=""images/pattern_6.png"" style=""width: 234px; height: 230px; margin-top: -50px;""><div style=""display: flex; justify-content: space-between; margin-top: 33px;""><img src=""images/choice_trial_14.png"" style=""width: 408px; height: 417px; margin-left:608px;""></div></div>","null","delaylearn","learning","display_response","65ddeb0d1a44628b53924756","m5LJgBycrwgxlnEiP878joCq2Pj2","","","","","","","","","","","","","","","","","chosen stimuli: images/choice_trial_14.png","","","",""
"html-keyboard-response","113","212339","0.0-48.0-2.0","","null","","null","delaylearn","learning","feedback_duration_window","65ddeb0d1a44628b53924756","m5LJgBycrwgxlnEiP878joCq2Pj2","","","","","","","","","","","","","","","","","","750","","",""
"html-keyboard-response","114","213846","0.0-48.0-3.0","","null","<div style='margin:auto;width: auto; font-size: 150%'><span style='font-weight: bold; font-size: 100px; color: green;'>+10 points!</span><br><br></div>","null","delaylearn","learning","feedback_image_window","65ddeb0d1a44628b53924756","m5LJgBycrwgxlnEiP878joCq2Pj2","","","","","","","","","","","","","","","","","","","","",""
"html-keyboard-response","115","216277","0.0-49.0","","null","<div style=""font-size:100px;"">+</div>","null","delaylearn","learning","ITI","65ddeb0d1a44628b53924756","m5LJgBycrwgxlnEiP878joCq2Pj2","","","","","","","","","","","","","","","","","","","2425","",""
"html-keyboard-response","116","217021","0.0-50.0-0.0","","741.1000001430511","<div style=""display: flex; flex-direction: column; align-items: center; margin-top: -40px;""><img src=""images/pattern_4.png"" style=""width: 234px; height: 230px; margin-top: -50px;""><div style=""display: flex; justify-content: space-between; margin-top: 33px;""><img src=""images/choice_trial_11.png"" style=""width: 408px; height: 417px; margin-right: 200px;""><img src=""images/choice_trial_4.png"" style=""width: 408px; height: 417px;""></div></div>","f","delaylearn","learning","trial","65ddeb0d1a44628b53924756","m5LJgBycrwgxlnEiP878joCq2Pj2","5","images/choice_trial_11.png","images/choice_trial_4.png","images/pattern_4.png","f","f","7000","11","4","3","0","22","1","1","11","130","","","","",""
"html-keyboard-response","117","218024","0.0-50.0-1.0","","null","<div style=""display: flex; flex-direction: column; align-items: center; margin-top: -40px;""><img src=""images/pattern_4.png"" style=""width: 234px; height: 230px; margin-top: -50px;""><div style=""display: flex; justify-content: space-between; margin-top: 33px;""><img src=""images/choice_trial_11.png"" style=""width: 408px; height: 417px; margin-right: 608px;""></div></div>","null","delaylearn","learning","display_response","65ddeb0d1a44628b53924756","m5LJgBycrwgxlnEiP878joCq2Pj2","","","","","","","","","","","","","","","","","chosen stimuli: images/choice_trial_11.png","","","",""
"html-keyboard-response","118","225031","0.0-50.0-2.0","","null","","null","delaylearn","learning","feedback_duration_window","65ddeb0d1a44628b53924756","m5LJgBycrwgxlnEiP878joCq2Pj2","","","","","","","","","","","","","","","","","","7000","","",""
"html-keyboard-response","119","226540","0.0-50.0-3.0","","null","<div style='margin:auto;width: auto; font-size: 150%'><span style='font-weight: bold; font-size: 100px; color: green;'>+10 points!</span><br><br></div>","null","delaylearn","learning","feedback_image_window","65ddeb0d1a44628b53924756","m5LJgBycrwgxlnEiP878joCq2Pj2","","","","","","","","","","","","","","","","","","","","",""
"html-keyboard-response","120","227044","0.0-51.0-0.0","","null","","null","","","mood_trial_fixation","","","","","","","","","","","","","","","","","","","","","","",""
"lmdlab-html-vas-response","121","230101","0.0-51.0-1.0","","2052","How happy are you right now?","0.9728260869565217","delaylearn","learning","mood_trial","65ddeb0d1a44628b53924756","m5LJgBycrwgxlnEiP878joCq2Pj2","","","","","","","","","","","","","","","","","","","","[""Very unhappy"",""Very happy""]",""
"html-keyboard-response","122","232254","0.0-52.0","","null","<div style=""font-size:100px;"">+</div>","null","delaylearn","learning","ITI","65ddeb0d1a44628b53924756","m5LJgBycrwgxlnEiP878joCq2Pj2","","","","","","","","","","","","","","","","","","","2145","",""
"html-keyboard-response","123","233842","0.0-53.0-0.0","","1584.2000000476837","<div style=""display: flex; flex-direction: column; align-items: center; margin-top: -40px;""><img src=""images/pattern_7.png"" style=""width: 234px; height: 230px; margin-top: -50px;""><div style=""display: flex; justify-content: space-between; margin-top: 33px;""><img src=""images/choice_trial_10.png"" style=""width: 408px; height: 417px; margin-right: 200px;""><img src=""images/choice_trial_8.png"" style=""width: 408px; height: 417px;""></div></div>","j","delaylearn","learning","trial","65ddeb0d1a44628b53924756","m5LJgBycrwgxlnEiP878joCq2Pj2","5","images/choice_trial_10.png","images/choice_trial_8.png","images/pattern_7.png","j","j","750","10","8","6","1","23","1","1","8","140","","","","",""
"html-keyboard-response","124","234849","0.0-53.0-1.0","","null","<div style=""display: flex; flex-direction: column; align-items: center; margin-top: -40px;""><img src=""images/pattern_7.png"" style=""width: 234px; height: 230px; margin-top: -50px;""><div style=""display: flex; justify-content: space-between; margin-top: 33px;""><img src=""images/choice_trial_8.png"" style=""width: 408px; height: 417px; margin-left:608px;""></div></div>","null","delaylearn","learning","display_response","65ddeb0d1a44628b53924756","m5LJgBycrwgxlnEiP878joCq2Pj2","","","","","","","","","","","","","","","","","chosen stimuli: images/choice_trial_8.png","","","",""
"html-keyboard-response","125","235602","0.0-53.0-2.0","","null","","null","delaylearn","learning","feedback_duration_window","65ddeb0d1a44628b53924756","m5LJgBycrwgxlnEiP878joCq2Pj2","","","","","","","","","","","","","","","","","","750","","",""
"html-keyboard-response","126","237110","0.0-53.0-3.0","","null","<div style='margin:auto;width: auto; font-size: 150%'><span style='font-weight: bold; font-size: 100px; color: green;'>+10 points!</span><br><br></div>","null","delaylearn","learning","feedback_image_window","65ddeb0d1a44628b53924756","m5LJgBycrwgxlnEiP878joCq2Pj2","","","","","","","","","","","","","","","","","","","","",""
"html-keyboard-response","127","238793","0.0-54.0","","null","<div style=""font-size:100px;"">+</div>","null","delaylearn","learning","ITI","65ddeb0d1a44628b53924756","m5LJgBycrwgxlnEiP878joCq2Pj2","","","","","","","","","","","","","","","","","","","1680","",""
"html-keyboard-response","128","239463","0.0-55.0-0.0","","665.8000001907349","<div style=""display: flex; flex-direction: column; align-items: center; margin-top: -40px;""><img src=""images/pattern_1.png"" style=""width: 234px; height: 230px; margin-top: -50px;""><div style=""display: flex; justify-content: space-between; margin-top: 33px;""><img src=""images/choice_trial_15.png"" style=""width: 408px; height: 417px; margin-right: 200px;""><img src=""images/choice_trial_6.png"" style=""width: 408px; height: 417px;""></div></div>","f","delaylearn","learning","trial","65ddeb0d1a44628b53924756","m5LJgBycrwgxlnEiP878joCq2Pj2","5","images/choice_trial_15.png","images/choice_trial_6.png","images/pattern_1.png","f","j","7000","15","6","1","1","24","0","1","15","150","","","","",""
"html-keyboard-response","129","240468","0.0-55.0-1.0","","null","<div style=""display: flex; flex-direction: column; align-items: center; margin-top: -40px;""><img src=""images/pattern_1.png"" style=""width: 234px; height: 230px; margin-top: -50px;""><div style=""display: flex; justify-content: space-between; margin-top: 33px;""><img src=""images/choice_trial_15.png"" style=""width: 408px; height: 417px; margin-right: 608px;""></div></div>","null","delaylearn","learning","display_response","65ddeb0d1a44628b53924756","m5LJgBycrwgxlnEiP878joCq2Pj2","","","","","","","","","","","","","","","","","chosen stimuli: images/choice_trial_15.png","","","",""
"html-keyboard-response","130","247473","0.0-55.0-2.0","","null","","null","delaylearn","learning","feedback_duration_window","65ddeb0d1a44628b53924756","m5LJgBycrwgxlnEiP878joCq2Pj2","","","","","","","","","","","","","","","","","","7000","","",""
"html-keyboard-response","131","248981","0.0-55.0-3.0","","null","<div style='margin:auto;width: auto; font-size: 150%'><span style='font-weight: bold; font-size: 100px; color: green;'>+10 points!</span><br><br></div>","null","delaylearn","learning","feedback_image_window","65ddeb0d1a44628b53924756","m5LJgBycrwgxlnEiP878joCq2Pj2","","","","","","","","","","","","","","","","","","","","",""
"html-keyboard-response","132","251206","0.0-56.0","","null","<div style=""font-size:100px;"">+</div>","null","delaylearn","learning","ITI","65ddeb0d1a44628b53924756","m5LJgBycrwgxlnEiP878joCq2Pj2","","","","","","","","","","","","","","","","","","","2223","",""
"html-keyboard-response","133","252244","0.0-57.0-0.0","","1035.1999998092651","<div style=""display: flex; flex-direction: column; align-items: center; margin-top: -40px;""><img src=""images/pattern_5.png"" style=""width: 234px; height: 230px; margin-top: -50px;""><div style=""display: flex; justify-content: space-between; margin-top: 33px;""><img src=""images/choice_trial_13.png"" style=""width: 408px; height: 417px; margin-right: 200px;""><img src=""images/choice_trial_7.png"" style=""width: 408px; height: 417px;""></div></div>","f","delaylearn","learning","trial","65ddeb0d1a44628b53924756","m5LJgBycrwgxlnEiP878joCq2Pj2","5","images/choice_trial_13.png","images/choice_trial_7.png","images/pattern_5.png","j","j","750","13","7","4","1","25","0","0","13","150","","","","",""
"html-keyboard-response","134","253250","0.0-57.0-1.0","","null","<div style=""display: flex; flex-direction: column; align-items: center; margin-top: -40px;""><img src=""images/pattern_5.png"" style=""width: 234px; height: 230px; margin-top: -50px;""><div style=""display: flex; justify-content: space-between; margin-top: 33px;""><img src=""images/choice_trial_13.png"" style=""width: 408px; height: 417px; margin-right: 608px;""></div></div>","null","delaylearn","learning","display_response","65ddeb0d1a44628b53924756","m5LJgBycrwgxlnEiP878joCq2Pj2","","","","","","","","","","","","","","","","","chosen stimuli: images/choice_trial_13.png","","","",""
"html-keyboard-response","135","254007","0.0-57.0-2.0","","null","","null","delaylearn","learning","feedback_duration_window","65ddeb0d1a44628b53924756","m5LJgBycrwgxlnEiP878joCq2Pj2","","","","","","","","","","","","","","","","","","750","","",""
"html-keyboard-response","136","255514","0.0-57.0-3.0","","null","<div style='margin:auto;width: auto; font-size: 150%'><span style='font-weight: bold; font-size: 100px; color: red;'>0 points!</span><br><br></div>","null","delaylearn","learning","feedback_image_window","65ddeb0d1a44628b53924756","m5LJgBycrwgxlnEiP878joCq2Pj2","","","","","","","","","","","","","","","","","","","","",""
"html-keyboard-response","137","257068","0.0-58.0","","null","<div style=""font-size:100px;"">+</div>","null","delaylearn","learning","ITI","65ddeb0d1a44628b53924756","m5LJgBycrwgxlnEiP878joCq2Pj2","","","","","","","","","","","","","","","","","","","1547","",""
"html-keyboard-response","138","258332","0.0-59.0-0.0","","1259.2000000476837","<div style=""display: flex; flex-direction: column; align-items: center; margin-top: -40px;""><img src=""images/pattern_3.png"" style=""width: 234px; height: 230px; margin-top: -50px;""><div style=""display: flex; justify-content: space-between; margin-top: 33px;""><img src=""images/choice_trial_2.png"" style=""width: 408px; height: 417px; margin-right: 200px;""><img src=""images/choice_trial_16.png"" style=""width: 408px; height: 417px;""></div></div>","f","delaylearn","learning","trial","65ddeb0d1a44628b53924756","m5LJgBycrwgxlnEiP878joCq2Pj2","5","images/choice_trial_2.png","images/choice_trial_16.png","images/pattern_3.png","j","j","7000","2","16","2","1","26","0","0","2","150","","","","",""
"html-keyboard-response","139","259339","0.0-59.0-1.0","","null","<div style=""display: flex; flex-direction: column; align-items: center; margin-top: -40px;""><img src=""images/pattern_3.png"" style=""width: 234px; height: 230px; margin-top: -50px;""><div style=""display: flex; justify-content: space-between; margin-top: 33px;""><img src=""images/choice_trial_2.png"" style=""width: 408px; height: 417px; margin-right: 608px;""></div></div>","null","delaylearn","learning","display_response","65ddeb0d1a44628b53924756","m5LJgBycrwgxlnEiP878joCq2Pj2","","","","","","","","","","","","","","","","","chosen stimuli: images/choice_trial_2.png","","","",""
"html-keyboard-response","140","266346","0.0-59.0-2.0","","null","","null","delaylearn","learning","feedback_duration_window","65ddeb0d1a44628b53924756","m5LJgBycrwgxlnEiP878joCq2Pj2","","","","","","","","","","","","","","","","","","7000","","",""
"html-keyboard-response","141","267854","0.0-59.0-3.0","","null","<div style='margin:auto;width: auto; font-size: 150%'><span style='font-weight: bold; font-size: 100px; color: red;'>0 points!</span><br><br></div>","null","delaylearn","learning","feedback_image_window","65ddeb0d1a44628b53924756","m5LJgBycrwgxlnEiP878joCq2Pj2","","","","","","","","","","","","","","","","","","","","",""
"lmdlab-html-vas-response","142","272599","0.0-60.0-0.0","","3231","*How <b><u>confident</u></b> are you feeling about your answers at this moment?*","0.5634057971014492","rewlearn","rate_confidence","","65ddeb0d1a44628b53924756","m5LJgBycrwgxlnEiP878joCq2Pj2","","","","","","","","","","","","","","","","","","","","[""No confidence"",""Complete confidence""]",""
"lmdlab-rest-trial-limit","143","283158","0.0-60.0-1.0","","9050","<div style=""font-size:40px;""><b>Please take a break!</b><br><br><br><br><p>Great work: you earned 150 points.<br><br><br><p>You have completed part(s) 1 of 5.<br><br><br><br>When you are ready to continue<br><br><br>please click the button.</p><br><br>","0","delaylearn","learning","break","65ddeb0d1a44628b53924756","m5LJgBycrwgxlnEiP878joCq2Pj2","","","","","","","","","","","","","","","","","","","","","0"
"html-keyboard-response","144","286166","0.0-60.0-2.0","","null","<div style=""font-size:100px;"">+</div>","null","delaylearn","learning","pre_fixation","65ddeb0d1a44628b53924756","","","","","","","","","","","","","","","","","","","","","",""
"lmdlab-html-vas-response","145","289526","0.0-60.0-3.0-0.0","","2354","How happy are you right now?","0.9112318840579711","delaylearn","learning","mood_baseline","65ddeb0d1a44628b53924756","m5LJgBycrwgxlnEiP878joCq2Pj2","","","","","","","","","","","","","","","","","","","","[""Very unhappy"",""Very happy""]",""
"html-keyboard-response","146","291030","0.0-60.0-3.0-1.0","","null","","null","","","mood_baseline_fixation","","","","","","","","","","","","","","","","","","","","","","",""
"html-keyboard-response","147","293417","0.0-61.0","","null","<div style=""font-size:100px;"">+</div>","null","delaylearn","learning","ITI","65ddeb0d1a44628b53924756","m5LJgBycrwgxlnEiP878joCq2Pj2","","","","","","","","","","","","","","","","","","","2383","",""
"html-keyboard-response","148","294385","0.0-62.0-0.0","","964.1000001430511","<div style=""display: flex; flex-direction: column; align-items: center; margin-top: -40px;""><img src=""images/pattern_7.png"" style=""width: 234px; height: 230px; margin-top: -50px;""><div style=""display: flex; justify-content: space-between; margin-top: 33px;""><img src=""images/choice_trial_10.png"" style=""width: 408px; height: 417px; margin-right: 200px;""><img src=""images/choice_trial_8.png"" style=""width: 408px; height: 417px;""></div></div>","f","delaylearn","learning","trial","65ddeb0d1a44628b53924756","m5LJgBycrwgxlnEiP878joCq2Pj2","5","images/choice_trial_10.png","images/choice_trial_8.png","images/pattern_7.png","j","j","750","10","8","6","1","27","0","0","10","150","","","","",""
"html-keyboard-response","149","295394","0.0-62.0-1.0","","null","<div style=""display: flex; flex-direction: column; align-items: center; margin-top: -40px;""><img src=""images/pattern_7.png"" style=""width: 234px; height: 230px; margin-top: -50px;""><div style=""display: flex; justify-content: space-between; margin-top: 33px;""><img src=""images/choice_trial_10.png"" style=""width: 408px; height: 417px; margin-right: 608px;""></div></div>","null","delaylearn","learning","display_response","65ddeb0d1a44628b53924756","m5LJgBycrwgxlnEiP878joCq2Pj2","","","","","","","","","","","","","","","","","chosen stimuli: images/choice_trial_10.png","","","",""
"html-keyboard-response","150","296152","0.0-62.0-2.0","","null","","null","delaylearn","learning","feedback_duration_window","65ddeb0d1a44628b53924756","m5LJgBycrwgxlnEiP878joCq2Pj2","","","","","","","","","","","","","","","","","","750","","",""
"html-keyboard-response","151","297657","0.0-62.0-3.0","","null","<div style='margin:auto;width: auto; font-size: 150%'><span style='font-weight: bold; font-size: 100px; color: red;'>0 points!</span><br><br></div>","null","delaylearn","learning","feedback_image_window","65ddeb0d1a44628b53924756","m5LJgBycrwgxlnEiP878joCq2Pj2","","","","","","","","","","","","","","","","","","","","",""
"html-keyboard-response","152","298164","0.0-63.0-0.0","","null","","null","","","mood_trial_fixation","","","","","","","","","","","","","","","","","","","","","","",""
"lmdlab-html-vas-response","153","301120","0.0-63.0-1.0","","1950","How happy are you right now?","0.8967391304347826","delaylearn","learning","mood_trial","65ddeb0d1a44628b53924756","m5LJgBycrwgxlnEiP878joCq2Pj2","","","","","","","","","","","","","","","","","","","","[""Very unhappy"",""Very happy""]",""
"html-keyboard-response","154","303467","0.0-64.0","","null","<div style=""font-size:100px;"">+</div>","null","delaylearn","learning","ITI","65ddeb0d1a44628b53924756","m5LJgBycrwgxlnEiP878joCq2Pj2","","","","","","","","","","","","","","","","","","","2342","",""
"html-keyboard-response","155","304578","0.0-65.0-0.0","","1107.7000000476837","<div style=""display: flex; flex-direction: column; align-items: center; margin-top: -40px;""><img src=""images/pattern_1.png"" style=""width: 234px; height: 230px; margin-top: -50px;""><div style=""display: flex; justify-content: space-between; margin-top: 33px;""><img src=""images/choice_trial_6.png"" style=""width: 408px; height: 417px; margin-right: 200px;""><img src=""images/choice_trial_15.png"" style=""width: 408px; height: 417px;""></div></div>","j","delaylearn","learning","trial","65ddeb0d1a44628b53924756","m5LJgBycrwgxlnEiP878joCq2Pj2","5","images/choice_trial_6.png","images/choice_trial_15.png","images/pattern_1.png","f","f","7000","6","15","1","0","28","0","0","15","150","","","","",""
"html-keyboard-response","156","305586","0.0-65.0-1.0","","null","<div style=""display: flex; flex-direction: column; align-items: center; margin-top: -40px;""><img src=""images/pattern_1.png"" style=""width: 234px; height: 230px; margin-top: -50px;""><div style=""display: flex; justify-content: space-between; margin-top: 33px;""><img src=""images/choice_trial_15.png"" style=""width: 408px; height: 417px; margin-left:608px;""></div></div>","null","delaylearn","learning","display_response","65ddeb0d1a44628b53924756","m5LJgBycrwgxlnEiP878joCq2Pj2","","","","","","","","","","","","","","","","","chosen stimuli: images/choice_trial_15.png","","","",""
"html-keyboard-response","157","312593","0.0-65.0-2.0","","null","","null","delaylearn","learning","feedback_duration_window","65ddeb0d1a44628b53924756","m5LJgBycrwgxlnEiP878joCq2Pj2","","","","","","","","","","","","","","","","","","7000","","",""
"html-keyboard-response","158","314101","0.0-65.0-3.0","","null","<div style='margin:auto;width: auto; font-size: 150%'><span style='font-weight: bold; font-size: 100px; color: red;'>0 points!</span><br><br></div>","null","delaylearn","learning","feedback_image_window","65ddeb0d1a44628b53924756","m5LJgBycrwgxlnEiP878joCq2Pj2","","","","","","","","","","","","","","","","","","","","",""
"html-keyboard-response","159","316157","0.0-66.0","","null","<div style=""font-size:100px;"">+</div>","null","delaylearn","learning","ITI","65ddeb0d1a44628b53924756","m5LJgBycrwgxlnEiP878joCq2Pj2","","","","","","","","","","","","","","","","","","","2048","",""
"html-keyboard-response","160","317291","0.0-67.0-0.0","","1131.1000001430511","<div style=""display: flex; flex-direction: column; align-items: center; margin-top: -40px;""><img src=""images/pattern_5.png"" style=""width: 234px; height: 230px; margin-top: -50px;""><div style=""display: flex; justify-content: space-between; margin-top: 33px;""><img src=""images/choice_trial_7.png"" style=""width: 408px; height: 417px; margin-right: 200px;""><img src=""images/choice_trial_13.png"" style=""width: 408px; height: 417px;""></div></div>","j","delaylearn","learning","trial","65ddeb0d1a44628b53924756","m5LJgBycrwgxlnEiP878joCq2Pj2","5","images/choice_trial_7.png","images/choice_trial_13.png","images/pattern_5.png","f","f","750","7","13","4","0","29","0","0","13","150","","","","",""
"html-keyboard-response","161","318299","0.0-67.0-1.0","","null","<div style=""display: flex; flex-direction: column; align-items: center; margin-top: -40px;""><img src=""images/pattern_5.png"" style=""width: 234px; height: 230px; margin-top: -50px;""><div style=""display: flex; justify-content: space-between; margin-top: 33px;""><img src=""images/choice_trial_13.png"" style=""width: 408px; height: 417px; margin-left:608px;""></div></div>","null","delaylearn","learning","display_response","65ddeb0d1a44628b53924756","m5LJgBycrwgxlnEiP878joCq2Pj2","","","","","","","","","","","","","","","","","chosen stimuli: images/choice_trial_13.png","","","",""
"html-keyboard-response","162","319054","0.0-67.0-2.0","","null","","null","delaylearn","learning","feedback_duration_window","65ddeb0d1a44628b53924756","m5LJgBycrwgxlnEiP878joCq2Pj2","","","","","","","","","","","","","","","","","","750","","",""
"html-keyboard-response","163","320561","0.0-67.0-3.0","","null","<div style='margin:auto;width: auto; font-size: 150%'><span style='font-weight: bold; font-size: 100px; color: red;'>0 points!</span><br><br></div>","null","delaylearn","learning","feedback_image_window","65ddeb0d1a44628b53924756","m5LJgBycrwgxlnEiP878joCq2Pj2","","","","","","","","","","","","","","","","","","","","",""
"html-keyboard-response","164","322611","0.0-68.0","","null","<div style=""font-size:100px;"">+</div>","null","delaylearn","learning","ITI","65ddeb0d1a44628b53924756","m5LJgBycrwgxlnEiP878joCq2Pj2","","","","","","","","","","","","","","","","","","","2043","",""
"html-keyboard-response","165","324595","0.0-69.0-0.0","","1979.5","<div style=""display: flex; flex-direction: column; align-items: center; margin-top: -40px;""><img src=""images/pattern_6.png"" style=""width: 234px; height: 230px; margin-top: -50px;""><div style=""display: flex; justify-content: space-between; margin-top: 33px;""><img src=""images/choice_trial_9.png"" style=""width: 408px; height: 417px; margin-right: 200px;""><img src=""images/choice_trial_14.png"" style=""width: 408px; height: 417px;""></div></div>","f","delaylearn","learning","trial","65ddeb0d1a44628b53924756","m5LJgBycrwgxlnEiP878joCq2Pj2","5","images/choice_trial_9.png","images/choice_trial_14.png","images/pattern_6.png","j","j","750","9","14","5","1","30","0","0","9","150","","","","",""
"html-keyboard-response","166","325603","0.0-69.0-1.0","","null","<div style=""display: flex; flex-direction: column; align-items: center; margin-top: -40px;""><img src=""images/pattern_6.png"" style=""width: 234px; height: 230px; margin-top: -50px;""><div style=""display: flex; justify-content: space-between; margin-top: 33px;""><img src=""images/choice_trial_9.png"" style=""width: 408px; height: 417px; margin-right: 608px;""></div></div>","null","delaylearn","learning","display_response","65ddeb0d1a44628b53924756","m5LJgBycrwgxlnEiP878joCq2Pj2","","","","","","","","","","","","","","","","","chosen stimuli: images/choice_trial_9.png","","","",""
"html-keyboard-response","167","326358","0.0-69.0-2.0","","null","","null","delaylearn","learning","feedback_duration_window","65ddeb0d1a44628b53924756","m5LJgBycrwgxlnEiP878joCq2Pj2","","","","","","","","","","","","","","","","","","750","","",""
"html-keyboard-response","168","327865","0.0-69.0-3.0","","null","<div style='margin:auto;width: auto; font-size: 150%'><span style='font-weight: bold; font-size: 100px; color: red;'>0 points!</span><br><br></div>","null","delaylearn","learning","feedback_image_window","65ddeb0d1a44628b53924756","m5LJgBycrwgxlnEiP878joCq2Pj2","","","","","","","","","","","","","","","","","","","","",""
"html-keyboard-response","169","328372","0.0-70.0-0.0","","null","","null","","","mood_trial_fixation","","","","","","","","","","","","","","","","","","","","","","",""
"lmdlab-html-vas-response","170","331983","0.0-70.0-1.0","","2600","How happy are you right now?","0.9438405797101449","delaylearn","learning","mood_trial","65ddeb0d1a44628b53924756","m5LJgBycrwgxlnEiP878joCq2Pj2","","","","","","","","","","","","","","","","","","","","[""Very unhappy"",""Very happy""]",""
"html-keyboard-response","171","334368","0.0-71.0","","null","<div style=""font-size:100px;"">+</div>","null","delaylearn","learning","ITI","65ddeb0d1a44628b53924756","m5LJgBycrwgxlnEiP878joCq2Pj2","","","","","","","","","","","","","","","","","","","2382","",""
"html-keyboard-response","172","335099","0.0-72.0-0.0","","727.2000000476837","<div style=""display: flex; flex-direction: column; align-items: center; margin-top: -40px;""><img src=""images/pattern_4.png"" style=""width: 234px; height: 230px; margin-top: -50px;""><div style=""display: flex; justify-content: space-between; margin-top: 33px;""><img src=""images/choice_trial_4.png"" style=""width: 408px; height: 417px; margin-right: 200px;""><img src=""images/choice_trial_11.png"" style=""width: 408px; height: 417px;""></div></div>","j","delaylearn","learning","trial","65ddeb0d1a44628b53924756","m5LJgBycrwgxlnEiP878joCq2Pj2","5","images/choice_trial_4.png","images/choice_trial_11.png","images/pattern_4.png","j","j","7000","4","11","3","1","31","1","1","11","160","","","","",""
"html-keyboard-response","173","336103","0.0-72.0-1.0","","null","<div style=""display: flex; flex-direction: column; align-items: center; margin-top: -40px;""><img src=""images/pattern_4.png"" style=""width: 234px; height: 230px; margin-top: -50px;""><div style=""display: flex; justify-content: space-between; margin-top: 33px;""><img src=""images/choice_trial_11.png"" style=""width: 408px; height: 417px; margin-left:608px;""></div></div>","null","delaylearn","learning","display_response","65ddeb0d1a44628b53924756","m5LJgBycrwgxlnEiP878joCq2Pj2","","","","","","","","","","","","","","","","","chosen stimuli: images/choice_trial_11.png","","","",""
"html-keyboard-response","174","343108","0.0-72.0-2.0","","null","","null","delaylearn","learning","feedback_duration_window","65ddeb0d1a44628b53924756","m5LJgBycrwgxlnEiP878joCq2Pj2","","","","","","","","","","","","","","","","","","7000","","",""
"html-keyboard-response","175","344617","0.0-72.0-3.0","","null","<div style='margin:auto;width: auto; font-size: 150%'><span style='font-weight: bold; font-size: 100px; color: green;'>+10 points!</span><br><br></div>","null","delaylearn","learning","feedback_image_window","65ddeb0d1a44628b53924756","m5LJgBycrwgxlnEiP878joCq2Pj2","","","","","","","","","","","","","","","","","","","","",""
"html-keyboard-response","176","346171","0.0-73.0","","null","<div style=""font-size:100px;"">+</div>","null","delaylearn","learning","ITI","65ddeb0d1a44628b53924756","m5LJgBycrwgxlnEiP878joCq2Pj2","","","","","","","","","","","","","","","","","","","1547","",""
"html-keyboard-response","177","347440","0.0-74.0-0.0","","1265.4000000953674","<div style=""display: flex; flex-direction: column; align-items: center; margin-top: -40px;""><img src=""images/pattern_3.png"" style=""width: 234px; height: 230px; margin-top: -50px;""><div style=""display: flex; justify-content: space-between; margin-top: 33px;""><img src=""images/choice_trial_2.png"" style=""width: 408px; height: 417px; margin-right: 200px;""><img src=""images/choice_trial_16.png"" style=""width: 408px; height: 417px;""></div></div>","f","delaylearn","learning","trial","65ddeb0d1a44628b53924756","m5LJgBycrwgxlnEiP878joCq2Pj2","5","images/choice_trial_2.png","images/choice_trial_16.png","images/pattern_3.png","j","j","7000","2","16","2","1","32","0","0","2","160","","","","",""
"html-keyboard-response","178","348445","0.0-74.0-1.0","","null","<div style=""display: flex; flex-direction: column; align-items: center; margin-top: -40px;""><img src=""images/pattern_3.png"" style=""width: 234px; height: 230px; margin-top: -50px;""><div style=""display: flex; justify-content: space-between; margin-top: 33px;""><img src=""images/choice_trial_2.png"" style=""width: 408px; height: 417px; margin-right: 608px;""></div></div>","null","delaylearn","learning","display_response","65ddeb0d1a44628b53924756","m5LJgBycrwgxlnEiP878joCq2Pj2","","","","","","","","","","","","","","","","","chosen stimuli: images/choice_trial_2.png","","","",""
"html-keyboard-response","179","355450","0.0-74.0-2.0","","null","","null","delaylearn","learning","feedback_duration_window","65ddeb0d1a44628b53924756","m5LJgBycrwgxlnEiP878joCq2Pj2","","","","","","","","","","","","","","","","","","7000","","",""
"html-keyboard-response","180","356958","0.0-74.0-3.0","","null","<div style='margin:auto;width: auto; font-size: 150%'><span style='font-weight: bold; font-size: 100px; color: red;'>0 points!</span><br><br></div>","null","delaylearn","learning","feedback_image_window","65ddeb0d1a44628b53924756","m5LJgBycrwgxlnEiP878joCq2Pj2","","","","","","","","","","","","","","","","","","","","",""
"html-keyboard-response","181","358898","0.0-75.0","","null","<div style=""font-size:100px;"">+</div>","null","delaylearn","learning","ITI","65ddeb0d1a44628b53924756","m5LJgBycrwgxlnEiP878joCq2Pj2","","","","","","","","","","","","","","","","","","","1933","",""
"html-keyboard-response","182","359480","0.0-76.0-0.0","","578.5","<div style=""display: flex; flex-direction: column; align-items: center; margin-top: -40px;""><img src=""images/pattern_5.png"" style=""width: 234px; height: 230px; margin-top: -50px;""><div style=""display: flex; justify-content: space-between; margin-top: 33px;""><img src=""images/choice_trial_7.png"" style=""width: 408px; height: 417px; margin-right: 200px;""><img src=""images/choice_trial_13.png"" style=""width: 408px; height: 417px;""></div></div>","j","delaylearn","learning","trial","65ddeb0d1a44628b53924756","m5LJgBycrwgxlnEiP878joCq2Pj2","5","images/choice_trial_7.png","images/choice_trial_13.png","images/pattern_5.png","j","f","750","7","13","4","0","33","0","1","13","170","","","","",""
"html-keyboard-response","183","360488","0.0-76.0-1.0","","null","<div style=""display: flex; flex-direction: column; align-items: center; margin-top: -40px;""><img src=""images/pattern_5.png"" style=""width: 234px; height: 230px; margin-top: -50px;""><div style=""display: flex; justify-content: space-between; margin-top: 33px;""><img src=""images/choice_trial_13.png"" style=""width: 408px; height: 417px; margin-left:608px;""></div></div>","null","delaylearn","learning","display_response","65ddeb0d1a44628b53924756","m5LJgBycrwgxlnEiP878joCq2Pj2","","","","","","","","","","","","","","","","","chosen stimuli: images/choice_trial_13.png","","","",""
"html-keyboard-response","184","361244","0.0-76.0-2.0","","null","","null","delaylearn","learning","feedback_duration_window","65ddeb0d1a44628b53924756","m5LJgBycrwgxlnEiP878joCq2Pj2","","","","","","","","","","","","","","","","","","750","","",""
"html-keyboard-response","185","362752","0.0-76.0-3.0","","null","<div style='margin:auto;width: auto; font-size: 150%'><span style='font-weight: bold; font-size: 100px; color: green;'>+10 points!</span><br><br></div>","null","delaylearn","learning","feedback_image_window","65ddeb0d1a44628b53924756","m5LJgBycrwgxlnEiP878joCq2Pj2","","","","","","","","","","","","","","","","","","","","",""
"html-keyboard-response","186","365015","0.0-77.0","","null","<div style=""font-size:100px;"">+</div>","null","delaylearn","learning","ITI","65ddeb0d1a44628b53924756","m5LJgBycrwgxlnEiP878joCq2Pj2","","","","","","","","","","","","","","","","","","","2256","",""
"html-keyboard-response","187","365958","0.0-78.0-0.0","","939.1999998092651","<div style=""display: flex; flex-direction: column; align-items: center; margin-top: -40px;""><img src=""images/pattern_1.png"" style=""width: 234px; height: 230px; margin-top: -50px;""><div style=""display: flex; justify-content: space-between; margin-top: 33px;""><img src=""images/choice_trial_6.png"" style=""width: 408px; height: 417px; margin-right: 200px;""><img src=""images/choice_trial_15.png"" style=""width: 408px; height: 417px;""></div></div>","f","delaylearn","learning","trial","65ddeb0d1a44628b53924756","m5LJgBycrwgxlnEiP878joCq2Pj2","5","images/choice_trial_6.png","images/choice_trial_15.png","images/pattern_1.png","f","f","7000","6","15","1","0","34","1","1","6","180","","","","",""
"html-keyboard-response","188","366966","0.0-78.0-1.0","","null","<div style=""display: flex; flex-direction: column; align-items: center; margin-top: -40px;""><img src=""images/pattern_1.png"" style=""width: 234px; height: 230px; margin-top: -50px;""><div style=""display: flex; justify-content: space-between; margin-top: 33px;""><img src=""images/choice_trial_6.png"" style=""width: 408px; height: 417px; margin-right: 608px;""></div></div>","null","delaylearn","learning","display_response","65ddeb0d1a44628b53924756","m5LJgBycrwgxlnEiP878joCq2Pj2","","","","","","","","","","","","","","","","","chosen stimuli: images/choice_trial_6.png","","","",""
"html-keyboard-response","189","373969","0.0-78.0-2.0","","null","","null","delaylearn","learning","feedback_duration_window","65ddeb0d1a44628b53924756","m5LJgBycrwgxlnEiP878joCq2Pj2","","","","","","","","","","","","","","","","","","7000","","",""
"html-keyboard-response","190","375473","0.0-78.0-3.0","","null","<div style='margin:auto;width: auto; font-size: 150%'><span style='font-weight: bold; font-size: 100px; color: green;'>+10 points!</span><br><br></div>","null","delaylearn","learning","feedback_image_window","65ddeb0d1a44628b53924756","m5LJgBycrwgxlnEiP878joCq2Pj2","","","","","","","","","","","","","","","","","","","","",""
"html-keyboard-response","191","375979","0.0-79.0-0.0","","null","","null","","","mood_trial_fixation","","","","","","","","","","","","","","","","","","","","","","",""
"lmdlab-html-vas-response","192","378860","0.0-79.0-1.0","","1873","How happy are you right now?","0.8967391304347826","delaylearn","learning","mood_trial","65ddeb0d1a44628b53924756","m5LJgBycrwgxlnEiP878joCq2Pj2","","","","","","","","","","","","","","","","","","","","[""Very unhappy"",""Very happy""]",""
"html-keyboard-response","193","381341","0.0-80.0","","null","<div style=""font-size:100px;"">+</div>","null","delaylearn","learning","ITI","65ddeb0d1a44628b53924756","m5LJgBycrwgxlnEiP878joCq2Pj2","","","","","","","","","","","","","","","","","","","2474","",""
"html-keyboard-response","194","382153","0.0-81.0-0.0","","808.6000001430511","<div style=""display: flex; flex-direction: column; align-items: center; margin-top: -40px;""><img src=""images/pattern_6.png"" style=""width: 234px; height: 230px; margin-top: -50px;""><div style=""display: flex; justify-content: space-between; margin-top: 33px;""><img src=""images/choice_trial_14.png"" style=""width: 408px; height: 417px; margin-right: 200px;""><img src=""images/choice_trial_9.png"" style=""width: 408px; height: 417px;""></div></div>","j","delaylearn","learning","trial","65ddeb0d1a44628b53924756","m5LJgBycrwgxlnEiP878joCq2Pj2","5","images/choice_trial_14.png","images/choice_trial_9.png","images/pattern_6.png","j","f","750","14","9","5","0","35","0","1","9","190","","","","",""
"html-keyboard-response","195","383158","0.0-81.0-1.0","","null","<div style=""display: flex; flex-direction: column; align-items: center; margin-top: -40px;""><img src=""images/pattern_6.png"" style=""width: 234px; height: 230px; margin-top: -50px;""><div style=""display: flex; justify-content: space-between; margin-top: 33px;""><img src=""images/choice_trial_9.png"" style=""width: 408px; height: 417px; margin-left:608px;""></div></div>","null","delaylearn","learning","display_response","65ddeb0d1a44628b53924756","m5LJgBycrwgxlnEiP878joCq2Pj2","","","","","","","","","","","","","","","","","chosen stimuli: images/choice_trial_9.png","","","",""
"html-keyboard-response","196","383915","0.0-81.0-2.0","","null","","null","delaylearn","learning","feedback_duration_window","65ddeb0d1a44628b53924756","m5LJgBycrwgxlnEiP878joCq2Pj2","","","","","","","","","","","","","","","","","","750","","",""
"html-keyboard-response","197","385424","0.0-81.0-3.0","","null","<div style='margin:auto;width: auto; font-size: 150%'><span style='font-weight: bold; font-size: 100px; color: green;'>+10 points!</span><br><br></div>","null","delaylearn","learning","feedback_image_window","65ddeb0d1a44628b53924756","m5LJgBycrwgxlnEiP878joCq2Pj2","","","","","","","","","","","","","","","","","","","","",""
"html-keyboard-response","198","387297","0.0-82.0","","null","<div style=""font-size:100px;"">+</div>","null","delaylearn","learning","ITI","65ddeb0d1a44628b53924756","m5LJgBycrwgxlnEiP878joCq2Pj2","","","","","","","","","","","","","","","","","","","1867","",""
"html-keyboard-response","199","388343","0.0-83.0-0.0","","1041.7999999523163","<div style=""display: flex; flex-direction: column; align-items: center; margin-top: -40px;""><img src=""images/pattern_3.png"" style=""width: 234px; height: 230px; margin-top: -50px;""><div style=""display: flex; justify-content: space-between; margin-top: 33px;""><img src=""images/choice_trial_2.png"" style=""width: 408px; height: 417px; margin-right: 200px;""><img src=""images/choice_trial_16.png"" style=""width: 408px; height: 417px;""></div></div>","j","delaylearn","learning","trial","65ddeb0d1a44628b53924756","m5LJgBycrwgxlnEiP878joCq2Pj2","5","images/choice_trial_2.png","images/choice_trial_16.png","images/pattern_3.png","j","j","7000","2","16","2","1","36","1","1","16","200","","","","",""
"html-keyboard-response","200","389350","0.0-83.0-1.0","","null","<div style=""display: flex; flex-direction: column; align-items: center; margin-top: -40px;""><img src=""images/pattern_3.png"" style=""width: 234px; height: 230px; margin-top: -50px;""><div style=""display: flex; justify-content: space-between; margin-top: 33px;""><img src=""images/choice_trial_16.png"" style=""width: 408px; height: 417px; margin-left:608px;""></div></div>","null","delaylearn","learning","display_response","65ddeb0d1a44628b53924756","m5LJgBycrwgxlnEiP878joCq2Pj2","","","","","","","","","","","","","","","","","chosen stimuli: images/choice_trial_16.png","","","",""
"html-keyboard-response","201","396354","0.0-83.0-2.0","","null","","null","delaylearn","learning","feedback_duration_window","65ddeb0d1a44628b53924756","m5LJgBycrwgxlnEiP878joCq2Pj2","","","","","","","","","","","","","","","","","","7000","","",""
"html-keyboard-response","202","397861","0.0-83.0-3.0","","null","<div style='margin:auto;width: auto; font-size: 150%'><span style='font-weight: bold; font-size: 100px; color: green;'>+10 points!</span><br><br></div>","null","delaylearn","learning","feedback_image_window","65ddeb0d1a44628b53924756","m5LJgBycrwgxlnEiP878joCq2Pj2","","","","","","","","","","","","","","","","","","","","",""
"html-keyboard-response","203","399620","0.0-84.0","","null","<div style=""font-size:100px;"">+</div>","null","delaylearn","learning","ITI","65ddeb0d1a44628b53924756","m5LJgBycrwgxlnEiP878joCq2Pj2","","","","","","","","","","","","","","","","","","","1753","",""
"html-keyboard-response","204","400588","0.0-85.0-0.0","","963.2999999523163","<div style=""display: flex; flex-direction: column; align-items: center; margin-top: -40px;""><img src=""images/pattern_4.png"" style=""width: 234px; height: 230px; margin-top: -50px;""><div style=""display: flex; justify-content: space-between; margin-top: 33px;""><img src=""images/choice_trial_4.png"" style=""width: 408px; height: 417px; margin-right: 200px;""><img src=""images/choice_trial_11.png"" style=""width: 408px; height: 417px;""></div></div>","f","delaylearn","learning","trial","65ddeb0d1a44628b53924756","m5LJgBycrwgxlnEiP878joCq2Pj2","5","images/choice_trial_4.png","images/choice_trial_11.png","images/pattern_4.png","f","j","7000","4","11","3","1","37","0","1","4","210","","","","",""
"html-keyboard-response","205","401591","0.0-85.0-1.0","","null","<div style=""display: flex; flex-direction: column; align-items: center; margin-top: -40px;""><img src=""images/pattern_4.png"" style=""width: 234px; height: 230px; margin-top: -50px;""><div style=""display: flex; justify-content: space-between; margin-top: 33px;""><img src=""images/choice_trial_4.png"" style=""width: 408px; height: 417px; margin-right: 608px;""></div></div>","null","delaylearn","learning","display_response","65ddeb0d1a44628b53924756","m5LJgBycrwgxlnEiP878joCq2Pj2","","","","","","","","","","","","","","","","","chosen stimuli: images/choice_trial_4.png","","","",""
"html-keyboard-response","206","408597","0.0-85.0-2.0","","null","","null","delaylearn","learning","feedback_duration_window","65ddeb0d1a44628b53924756","m5LJgBycrwgxlnEiP878joCq2Pj2","","","","","","","","","","","","","","","","","","7000","","",""
"html-keyboard-response","207","410105","0.0-85.0-3.0","","null","<div style='margin:auto;width: auto; font-size: 150%'><span style='font-weight: bold; font-size: 100px; color: green;'>+10 points!</span><br><br></div>","null","delaylearn","learning","feedback_image_window","65ddeb0d1a44628b53924756","m5LJgBycrwgxlnEiP878joCq2Pj2","","","","","","","","","","","","","","","","","","","","",""
"html-keyboard-response","208","412268","0.0-86.0","","null","<div style=""font-size:100px;"">+</div>","null","delaylearn","learning","ITI","65ddeb0d1a44628b53924756","m5LJgBycrwgxlnEiP878joCq2Pj2","","","","","","","","","","","","","","","","","","","2156","",""
"html-keyboard-response","209","412850","0.0-87.0-0.0","","578","<div style=""display: flex; flex-direction: column; align-items: center; margin-top: -40px;""><img src=""images/pattern_7.png"" style=""width: 234px; height: 230px; margin-top: -50px;""><div style=""display: flex; justify-content: space-between; margin-top: 33px;""><img src=""images/choice_trial_8.png"" style=""width: 408px; height: 417px; margin-right: 200px;""><img src=""images/choice_trial_10.png"" style=""width: 408px; height: 417px;""></div></div>","j","delaylearn","learning","trial","65ddeb0d1a44628b53924756","m5LJgBycrwgxlnEiP878joCq2Pj2","5","images/choice_trial_8.png","images/choice_trial_10.png","images/pattern_7.png","f","f","750","8","10","6","0","38","0","0","10","210","","","","",""
"html-keyboard-response","210","413857","0.0-87.0-1.0","","null","<div style=""display: flex; flex-direction: column; align-items: center; margin-top: -40px;""><img src=""images/pattern_7.png"" style=""width: 234px; height: 230px; margin-top: -50px;""><div style=""display: flex; justify-content: space-between; margin-top: 33px;""><img src=""images/choice_trial_10.png"" style=""width: 408px; height: 417px; margin-left:608px;""></div></div>","null","delaylearn","learning","display_response","65ddeb0d1a44628b53924756","m5LJgBycrwgxlnEiP878joCq2Pj2","","","","","","","","","","","","","","","","","chosen stimuli: images/choice_trial_10.png","","","",""
"html-keyboard-response","211","414614","0.0-87.0-2.0","","null","","null","delaylearn","learning","feedback_duration_window","65ddeb0d1a44628b53924756","m5LJgBycrwgxlnEiP878joCq2Pj2","","","","","","","","","","","","","","","","","","750","","",""
"html-keyboard-response","212","416121","0.0-87.0-3.0","","null","<div style='margin:auto;width: auto; font-size: 150%'><span style='font-weight: bold; font-size: 100px; color: red;'>0 points!</span><br><br></div>","null","delaylearn","learning","feedback_image_window","65ddeb0d1a44628b53924756","m5LJgBycrwgxlnEiP878joCq2Pj2","","","","","","","","","","","","","","","","","","","","",""
"html-keyboard-response","213","417861","0.0-88.0","","null","<div style=""font-size:100px;"">+</div>","null","delaylearn","learning","ITI","65ddeb0d1a44628b53924756","m5LJgBycrwgxlnEiP878joCq2Pj2","","","","","","","","","","","","","","","","","","","1734","",""
"html-keyboard-response","214","418577","0.0-89.0-0.0","","713","<div style=""display: flex; flex-direction: column; align-items: center; margin-top: -40px;""><img src=""images/pattern_1.png"" style=""width: 234px; height: 230px; margin-top: -50px;""><div style=""display: flex; justify-content: space-between; margin-top: 33px;""><img src=""images/choice_trial_6.png"" style=""width: 408px; height: 417px; margin-right: 200px;""><img src=""images/choice_trial_15.png"" style=""width: 408px; height: 417px;""></div></div>","f","delaylearn","learning","trial","65ddeb0d1a44628b53924756","m5LJgBycrwgxlnEiP878joCq2Pj2","5","images/choice_trial_6.png","images/choice_trial_15.png","images/pattern_1.png","f","f","7000","6","15","1","0","39","1","1","6","220","","","","",""
"html-keyboard-response","215","419585","0.0-89.0-1.0","","null","<div style=""display: flex; flex-direction: column; align-items: center; margin-top: -40px;""><img src=""images/pattern_1.png"" style=""width: 234px; height: 230px; margin-top: -50px;""><div style=""display: flex; justify-content: space-between; margin-top: 33px;""><img src=""images/choice_trial_6.png"" style=""width: 408px; height: 417px; margin-right: 608px;""></div></div>","null","delaylearn","learning","display_response","65ddeb0d1a44628b53924756","m5LJgBycrwgxlnEiP878joCq2Pj2","","","","","","","","","","","","","","","","","chosen stimuli: images/choice_trial_6.png","","","",""
"html-keyboard-response","216","426592","0.0-89.0-2.0","","null","","null","delaylearn","learning","feedback_duration_window","65ddeb0d1a44628b53924756","m5LJgBycrwgxlnEiP878joCq2Pj2","","","","","","","","","","","","","","","","","","7000","","",""
"html-keyboard-response","217","428099","0.0-89.0-3.0","","null","<div style='margin:auto;width: auto; font-size: 150%'><span style='font-weight: bold; font-size: 100px; color: green;'>+10 points!</span><br><br></div>","null","delaylearn","learning","feedback_image_window","65ddeb0d1a44628b53924756","m5LJgBycrwgxlnEiP878joCq2Pj2","","","","","","","","","","","","","","","","","","","","",""
"html-keyboard-response","218","428604","0.0-90.0-0.0","","null","","null","","","mood_trial_fixation","","","","","","","","","","","","","","","","","","","","","","",""
"lmdlab-html-vas-response","219","431792","0.0-90.0-1.0","","2176","How happy are you right now?","0.9003623188405797","delaylearn","learning","mood_trial","65ddeb0d1a44628b53924756","m5LJgBycrwgxlnEiP878joCq2Pj2","","","","","","","","","","","","","","","","","","","","[""Very unhappy"",""Very happy""]",""
"html-keyboard-response","220","433874","0.0-91.0","","null","<div style=""font-size:100px;"">+</div>","null","delaylearn","learning","ITI","65ddeb0d1a44628b53924756","m5LJgBycrwgxlnEiP878joCq2Pj2","","","","","","","","","","","","","","","","","","","2078","",""
