"trial_type","trial_index","time_elapsed","internal_node_id","participant","rt","stimulus","response","exp_name","exp_stage","test_part","subjectID","databaseID","counterbal","choice_stimuli_1","choice_stimuli_2","pattern_stimuli","rewarded_answer","correct_answer","feedback_duration_times","stim_left","stim_right","pair","leftright_counter","trial","response_correct","response_rewarded","chosen_stim","counter","displayed_choice","feedback_durations","ITI_duration","labels","rest_warning"
"pavlovia","0","606","0.0-0.0","","","","","","","","","","","","","","","","","","","","","","","","","","","","","",""
"html-keyboard-response","1","3614","0.0-1.0","","null","<div style=""font-size:100px;"">+</div>","null","delaylearn","learning","pre_fixation","593f105f02d1cc0001071a72","","","","","","","","","","","","","","","","","","","","","",""
"html-keyboard-response","2","5469","0.0-2.0-0.0","","1836.1000000014901","<div style=""display: flex; flex-direction: column; align-items: center; margin-top: -40px;""><img src=""images/demo_images/pattern_1.png"" style=""width: 234px; height: 230px; margin-top: -50px;""><div style=""display: flex; justify-content: space-between; margin-top: 33px;""><img src=""images/demo_images/choice_trial_2.png"" style=""width: 408px; height: 417px; margin-right: 200px;""><img src=""images/demo_images/choice_trial_1.png"" style=""width: 408px; height: 417px;""></div></div>","f","delaylearn","learning","trial","593f105f02d1cc0001071a72","tMZzHRsdQyVnQv4Ed0RRp6dkhzn2","1","images/demo_images/choice_trial_2.png","images/demo_images/choice_trial_1.png","images/demo_images/pattern_1.png","j","j","3000","2","1","20","1","1","0","0","2","0","","","","",""
"html-keyboard-response","3","6487","0.0-2.0-1.0","","null","<div style=""display: flex; flex-direction: column; align-items: center; margin-top: -40px;""><img src=""images/demo_images/pattern_1.png"" style=""width: 234px; height: 230px; margin-top: -50px;""><div style=""display: flex; justify-content: space-between; margin-top: 33px;""><img src=""images/demo_images/choice_trial_2.png"" style=""width: 408px; height: 417px; margin-right: 608px;""></div></div>","null","delaylearn","learning","display_response","593f105f02d1cc0001071a72","tMZzHRsdQyVnQv4Ed0RRp6dkhzn2","","","","","","","","","","","","","","","","","chosen stimuli: images/demo_images/choice_trial_2.png","","","",""
"html-keyboard-response","4","9495","0.0-2.0-2.0","","null","","null","delaylearn","learning","feedback_duration_window","593f105f02d1cc0001071a72","tMZzHRsdQyVnQv4Ed0RRp6dkhzn2","","","","","","","","","","","","","","","","","","3000","","",""
"html-keyboard-response","5","11007","0.0-2.0-3.0","","null","<div style='margin:auto;width: auto; font-size: 150%'><span style='font-weight: bold; font-size: 100px; color: red;'>0 points!</span><br><br></div>","null","delaylearn","learning","feedback_image_window","593f105f02d1cc0001071a72","tMZzHRsdQyVnQv4Ed0RRp6dkhzn2","","","","","","","","","","","","","","","","","","","","",""
"html-keyboard-response","6","13384","0.0-3.0","","null","<div style=""font-size:100px;"">+</div>","null","delaylearn","learning","ITI","593f105f02d1cc0001071a72","tMZzHRsdQyVnQv4Ed0RRp6dkhzn2","","","","","","","","","","","","","","","","","","","2370","",""
"html-keyboard-response","7","15072","0.0-4.0-0.0","","1669.0999999996275","<div style=""display: flex; flex-direction: column; align-items: center; margin-top: -40px;""><img src=""images/demo_images/pattern_1.png"" style=""width: 234px; height: 230px; margin-top: -50px;""><div style=""display: flex; justify-content: space-between; margin-top: 33px;""><img src=""images/demo_images/choice_trial_2.png"" style=""width: 408px; height: 417px; margin-right: 200px;""><img src=""images/demo_images/choice_trial_1.png"" style=""width: 408px; height: 417px;""></div></div>","j","delaylearn","learning","trial","593f105f02d1cc0001071a72","tMZzHRsdQyVnQv4Ed0RRp6dkhzn2","1","images/demo_images/choice_trial_2.png","images/demo_images/choice_trial_1.png","images/demo_images/pattern_1.png","j","j","3000","2","1","20","1","2","1","1","1","10","","","","",""
"html-keyboard-response","8","16083","0.0-4.0-1.0","","null","<div style=""display: flex; flex-direction: column; align-items: center; margin-top: -40px;""><img src=""images/demo_images/pattern_1.png"" style=""width: 234px; height: 230px; margin-top: -50px;""><div style=""display: flex; justify-content: space-between; margin-top: 33px;""><img src=""images/demo_images/choice_trial_1.png"" style=""width: 408px; height: 417px; margin-left:608px;""></div></div>","null","delaylearn","learning","display_response","593f105f02d1cc0001071a72","tMZzHRsdQyVnQv4Ed0RRp6dkhzn2","","","","","","","","","","","","","","","","","chosen stimuli: images/demo_images/choice_trial_1.png","","","",""
"html-keyboard-response","9","19090","0.0-4.0-2.0","","null","","null","delaylearn","learning","feedback_duration_window","593f105f02d1cc0001071a72","tMZzHRsdQyVnQv4Ed0RRp6dkhzn2","","","","","","","","","","","","","","","","","","3000","","",""
"html-keyboard-response","10","20600","0.0-4.0-3.0","","null","<div style='margin:auto;width: auto; font-size: 150%'><span style='font-weight: bold; font-size: 100px; color: green;'>+10 points!</span><br><br></div>","null","delaylearn","learning","feedback_image_window","593f105f02d1cc0001071a72","tMZzHRsdQyVnQv4Ed0RRp6dkhzn2","","","","","","","","","","","","","","","","","","","","",""
"html-keyboard-response","11","22338","0.0-5.0","","null","<div style=""font-size:100px;"">+</div>","null","delaylearn","learning","ITI","593f105f02d1cc0001071a72","tMZzHRsdQyVnQv4Ed0RRp6dkhzn2","","","","","","","","","","","","","","","","","","","1732","",""
"html-keyboard-response","12","23675","0.0-6.0-0.0","","1321.7000000011176","<div style=""display: flex; flex-direction: column; align-items: center; margin-top: -40px;""><img src=""images/demo_images/pattern_1.png"" style=""width: 234px; height: 230px; margin-top: -50px;""><div style=""display: flex; justify-content: space-between; margin-top: 33px;""><img src=""images/demo_images/choice_trial_1.png"" style=""width: 408px; height: 417px; margin-right: 200px;""><img src=""images/demo_images/choice_trial_2.png"" style=""width: 408px; height: 417px;""></div></div>","f","delaylearn","learning","trial","593f105f02d1cc0001071a72","tMZzHRsdQyVnQv4Ed0RRp6dkhzn2","1","images/demo_images/choice_trial_1.png","images/demo_images/choice_trial_2.png","images/demo_images/pattern_1.png","j","f","3000","1","2","20","0","3","1","0","1","10","","","","",""
"html-keyboard-response","13","24688","0.0-6.0-1.0","","null","<div style=""display: flex; flex-direction: column; align-items: center; margin-top: -40px;""><img src=""images/demo_images/pattern_1.png"" style=""width: 234px; height: 230px; margin-top: -50px;""><div style=""display: flex; justify-content: space-between; margin-top: 33px;""><img src=""images/demo_images/choice_trial_1.png"" style=""width: 408px; height: 417px; margin-right: 608px;""></div></div>","null","delaylearn","learning","display_response","593f105f02d1cc0001071a72","tMZzHRsdQyVnQv4Ed0RRp6dkhzn2","","","","","","","","","","","","","","","","","chosen stimuli: images/demo_images/choice_trial_1.png","","","",""
"html-keyboard-response","14","27696","0.0-6.0-2.0","","null","","null","delaylearn","learning","feedback_duration_window","593f105f02d1cc0001071a72","tMZzHRsdQyVnQv4Ed0RRp6dkhzn2","","","","","","","","","","","","","","","","","","3000","","",""
"html-keyboard-response","15","29206","0.0-6.0-3.0","","null","<div style='margin:auto;width: auto; font-size: 150%'><span style='font-weight: bold; font-size: 100px; color: red;'>0 points!</span><br><br></div>","null","delaylearn","learning","feedback_image_window","593f105f02d1cc0001071a72","tMZzHRsdQyVnQv4Ed0RRp6dkhzn2","","","","","","","","","","","","","","","","","","","","",""
"html-keyboard-response","16","31364","0.0-7.0","","null","<div style=""font-size:100px;"">+</div>","null","delaylearn","learning","ITI","593f105f02d1cc0001071a72","tMZzHRsdQyVnQv4Ed0RRp6dkhzn2","","","","","","","","","","","","","","","","","","","2152","",""
"html-keyboard-response","17","34379","0.0-8.0-0.0","","null","<div style=""display: flex; flex-direction: column; align-items: center; margin-top: -40px;""><img src=""images/demo_images/pattern_1.png"" style=""width: 234px; height: 230px; margin-top: -50px;""><div style=""display: flex; justify-content: space-between; margin-top: 33px;""><img src=""images/demo_images/choice_trial_1.png"" style=""width: 408px; height: 417px; margin-right: 200px;""><img src=""images/demo_images/choice_trial_2.png"" style=""width: 408px; height: 417px;""></div></div>","null","delaylearn","learning","trial","593f105f02d1cc0001071a72","tMZzHRsdQyVnQv4Ed0RRp6dkhzn2","1","images/demo_images/choice_trial_1.png","images/demo_images/choice_trial_2.png","images/demo_images/pattern_1.png","f","f","3000","1","2","20","0","4","0","0","0","10","","","","",""
"html-keyboard-response","18","35394","0.0-8.0-1.0","","null","<div style='font-weight: bold; font-size: 75px; color: red;'>Missed Trial <br><br><br><br> Please respond faster</div>","null","delaylearn","learning","display_response","593f105f02d1cc0001071a72","tMZzHRsdQyVnQv4Ed0RRp6dkhzn2","","","","","","","","","","","","","","","","","Missed trial","","","",""
"html-keyboard-response","19","35420","0.0-8.0-2.0","","null","","null","delaylearn","learning","feedback_duration_window","593f105f02d1cc0001071a72","tMZzHRsdQyVnQv4Ed0RRp6dkhzn2","","","","","","","","","","","","","","","","","","0","","",""
"html-keyboard-response","20","35440","0.0-8.0-3.0","","null","","null","delaylearn","learning","feedback_image_window","593f105f02d1cc0001071a72","tMZzHRsdQyVnQv4Ed0RRp6dkhzn2","","","","","","","","","","","","","","","","","","","","",""
"html-keyboard-response","21","35947","0.0-9.0-0.0","","null","","null","","","mood_trial_fixation","","","","","","","","","","","","","","","","","","","","","","",""
"lmdlab-html-vas-response","22","41631","0.0-9.0-1.0","","4586","How happy are you right now?","0.22685185185185186","delaylearn","learning","mood_trial","593f105f02d1cc0001071a72","tMZzHRsdQyVnQv4Ed0RRp6dkhzn2","","","","","","","","","","","","","","","","","","","","[""Very unhappy"",""Very happy""]",""
"html-keyboard-response","23","43166","0.0-10.0","","null","<div style=""font-size:100px;"">+</div>","null","delaylearn","learning","ITI","593f105f02d1cc0001071a72","tMZzHRsdQyVnQv4Ed0RRp6dkhzn2","","","","","","","","","","","","","","","","","","","1525","",""
"html-keyboard-response","24","44274","0.0-11.0-0.0","","1094.9000000003725","<div style=""display: flex; flex-direction: column; align-items: center; margin-top: -40px;""><img src=""images/demo_images/pattern_1.png"" style=""width: 234px; height: 230px; margin-top: -50px;""><div style=""display: flex; justify-content: space-between; margin-top: 33px;""><img src=""images/demo_images/choice_trial_2.png"" style=""width: 408px; height: 417px; margin-right: 200px;""><img src=""images/demo_images/choice_trial_1.png"" style=""width: 408px; height: 417px;""></div></div>","j","delaylearn","learning","trial","593f105f02d1cc0001071a72","tMZzHRsdQyVnQv4Ed0RRp6dkhzn2","1","images/demo_images/choice_trial_2.png","images/demo_images/choice_trial_1.png","images/demo_images/pattern_1.png","j","j","3000","2","1","20","1","5","1","1","1","20","","","","",""
"html-keyboard-response","25","45287","0.0-11.0-1.0","","null","<div style=""display: flex; flex-direction: column; align-items: center; margin-top: -40px;""><img src=""images/demo_images/pattern_1.png"" style=""width: 234px; height: 230px; margin-top: -50px;""><div style=""display: flex; justify-content: space-between; margin-top: 33px;""><img src=""images/demo_images/choice_trial_1.png"" style=""width: 408px; height: 417px; margin-left:608px;""></div></div>","null","delaylearn","learning","display_response","593f105f02d1cc0001071a72","tMZzHRsdQyVnQv4Ed0RRp6dkhzn2","","","","","","","","","","","","","","","","","chosen stimuli: images/demo_images/choice_trial_1.png","","","",""
"html-keyboard-response","26","48294","0.0-11.0-2.0","","null","","null","delaylearn","learning","feedback_duration_window","593f105f02d1cc0001071a72","tMZzHRsdQyVnQv4Ed0RRp6dkhzn2","","","","","","","","","","","","","","","","","","3000","","",""
"html-keyboard-response","27","49805","0.0-11.0-3.0","","null","<div style='margin:auto;width: auto; font-size: 150%'><span style='font-weight: bold; font-size: 100px; color: green;'>+10 points!</span><br><br></div>","null","delaylearn","learning","feedback_image_window","593f105f02d1cc0001071a72","tMZzHRsdQyVnQv4Ed0RRp6dkhzn2","","","","","","","","","","","","","","","","","","","","",""
"html-keyboard-response","28","51824","0.0-12.0","","null","<div style=""font-size:100px;"">+</div>","null","delaylearn","learning","ITI","593f105f02d1cc0001071a72","tMZzHRsdQyVnQv4Ed0RRp6dkhzn2","","","","","","","","","","","","","","","","","","","2012","",""
"html-keyboard-response","29","52920","0.0-13.0-0.0","","1077.4000000003725","<div style=""display: flex; flex-direction: column; align-items: center; margin-top: -40px;""><img src=""images/demo_images/pattern_1.png"" style=""width: 234px; height: 230px; margin-top: -50px;""><div style=""display: flex; justify-content: space-between; margin-top: 33px;""><img src=""images/demo_images/choice_trial_1.png"" style=""width: 408px; height: 417px; margin-right: 200px;""><img src=""images/demo_images/choice_trial_2.png"" style=""width: 408px; height: 417px;""></div></div>","f","delaylearn","learning","trial","593f105f02d1cc0001071a72","tMZzHRsdQyVnQv4Ed0RRp6dkhzn2","1","images/demo_images/choice_trial_1.png","images/demo_images/choice_trial_2.png","images/demo_images/pattern_1.png","f","f","3000","1","2","20","0","6","1","1","1","30","","","","",""
"html-keyboard-response","30","53933","0.0-13.0-1.0","","null","<div style=""display: flex; flex-direction: column; align-items: center; margin-top: -40px;""><img src=""images/demo_images/pattern_1.png"" style=""width: 234px; height: 230px; margin-top: -50px;""><div style=""display: flex; justify-content: space-between; margin-top: 33px;""><img src=""images/demo_images/choice_trial_1.png"" style=""width: 408px; height: 417px; margin-right: 608px;""></div></div>","null","delaylearn","learning","display_response","593f105f02d1cc0001071a72","tMZzHRsdQyVnQv4Ed0RRp6dkhzn2","","","","","","","","","","","","","","","","","chosen stimuli: images/demo_images/choice_trial_1.png","","","",""
"html-keyboard-response","31","56939","0.0-13.0-2.0","","null","","null","delaylearn","learning","feedback_duration_window","593f105f02d1cc0001071a72","tMZzHRsdQyVnQv4Ed0RRp6dkhzn2","","","","","","","","","","","","","","","","","","3000","","",""
"html-keyboard-response","32","58449","0.0-13.0-3.0","","null","<div style='margin:auto;width: auto; font-size: 150%'><span style='font-weight: bold; font-size: 100px; color: green;'>+10 points!</span><br><br></div>","null","delaylearn","learning","feedback_image_window","593f105f02d1cc0001071a72","tMZzHRsdQyVnQv4Ed0RRp6dkhzn2","","","","","","","","","","","","","","","","","","","","",""
"html-keyboard-response","33","60280","0.0-14.0","","null","<div style=""font-size:100px;"">+</div>","null","delaylearn","learning","ITI","593f105f02d1cc0001071a72","tMZzHRsdQyVnQv4Ed0RRp6dkhzn2","","","","","","","","","","","","","","","","","","","1827","",""
"html-keyboard-response","34","61179","0.0-15.0-0.0","","880.4000000003725","<div style=""display: flex; flex-direction: column; align-items: center; margin-top: -40px;""><img src=""images/demo_images/pattern_1.png"" style=""width: 234px; height: 230px; margin-top: -50px;""><div style=""display: flex; justify-content: space-between; margin-top: 33px;""><img src=""images/demo_images/choice_trial_2.png"" style=""width: 408px; height: 417px; margin-right: 200px;""><img src=""images/demo_images/choice_trial_1.png"" style=""width: 408px; height: 417px;""></div></div>","j","delaylearn","learning","trial","593f105f02d1cc0001071a72","tMZzHRsdQyVnQv4Ed0RRp6dkhzn2","1","images/demo_images/choice_trial_2.png","images/demo_images/choice_trial_1.png","images/demo_images/pattern_1.png","j","j","3000","2","1","20","1","7","1","1","1","40","","","","",""
"html-keyboard-response","35","62190","0.0-15.0-1.0","","null","<div style=""display: flex; flex-direction: column; align-items: center; margin-top: -40px;""><img src=""images/demo_images/pattern_1.png"" style=""width: 234px; height: 230px; margin-top: -50px;""><div style=""display: flex; justify-content: space-between; margin-top: 33px;""><img src=""images/demo_images/choice_trial_1.png"" style=""width: 408px; height: 417px; margin-left:608px;""></div></div>","null","delaylearn","learning","display_response","593f105f02d1cc0001071a72","tMZzHRsdQyVnQv4Ed0RRp6dkhzn2","","","","","","","","","","","","","","","","","chosen stimuli: images/demo_images/choice_trial_1.png","","","",""
"html-keyboard-response","36","65200","0.0-15.0-2.0","","null","","null","delaylearn","learning","feedback_duration_window","593f105f02d1cc0001071a72","tMZzHRsdQyVnQv4Ed0RRp6dkhzn2","","","","","","","","","","","","","","","","","","3000","","",""
"html-keyboard-response","37","66709","0.0-15.0-3.0","","null","<div style='margin:auto;width: auto; font-size: 150%'><span style='font-weight: bold; font-size: 100px; color: green;'>+10 points!</span><br><br></div>","null","delaylearn","learning","feedback_image_window","593f105f02d1cc0001071a72","tMZzHRsdQyVnQv4Ed0RRp6dkhzn2","","","","","","","","","","","","","","","","","","","","",""
"html-keyboard-response","38","68248","0.0-16.0","","null","<div style=""font-size:100px;"">+</div>","null","delaylearn","learning","ITI","593f105f02d1cc0001071a72","tMZzHRsdQyVnQv4Ed0RRp6dkhzn2","","","","","","","","","","","","","","","","","","","1534","",""
"html-keyboard-response","39","69304","0.0-17.0-0.0","","1038.4000000003725","<div style=""display: flex; flex-direction: column; align-items: center; margin-top: -40px;""><img src=""images/demo_images/pattern_1.png"" style=""width: 234px; height: 230px; margin-top: -50px;""><div style=""display: flex; justify-content: space-between; margin-top: 33px;""><img src=""images/demo_images/choice_trial_1.png"" style=""width: 408px; height: 417px; margin-right: 200px;""><img src=""images/demo_images/choice_trial_2.png"" style=""width: 408px; height: 417px;""></div></div>","f","delaylearn","learning","trial","593f105f02d1cc0001071a72","tMZzHRsdQyVnQv4Ed0RRp6dkhzn2","1","images/demo_images/choice_trial_1.png","images/demo_images/choice_trial_2.png","images/demo_images/pattern_1.png","f","f","3000","1","2","20","0","8","1","1","1","50","","","","",""
"html-keyboard-response","40","70318","0.0-17.0-1.0","","null","<div style=""display: flex; flex-direction: column; align-items: center; margin-top: -40px;""><img src=""images/demo_images/pattern_1.png"" style=""width: 234px; height: 230px; margin-top: -50px;""><div style=""display: flex; justify-content: space-between; margin-top: 33px;""><img src=""images/demo_images/choice_trial_1.png"" style=""width: 408px; height: 417px; margin-right: 608px;""></div></div>","null","delaylearn","learning","display_response","593f105f02d1cc0001071a72","tMZzHRsdQyVnQv4Ed0RRp6dkhzn2","","","","","","","","","","","","","","","","","chosen stimuli: images/demo_images/choice_trial_1.png","","","",""
"html-keyboard-response","41","73324","0.0-17.0-2.0","","null","","null","delaylearn","learning","feedback_duration_window","593f105f02d1cc0001071a72","tMZzHRsdQyVnQv4Ed0RRp6dkhzn2","","","","","","","","","","","","","","","","","","3000","","",""
"html-keyboard-response","42","74833","0.0-17.0-3.0","","null","<div style='margin:auto;width: auto; font-size: 150%'><span style='font-weight: bold; font-size: 100px; color: green;'>+10 points!</span><br><br></div>","null","delaylearn","learning","feedback_image_window","593f105f02d1cc0001071a72","tMZzHRsdQyVnQv4Ed0RRp6dkhzn2","","","","","","","","","","","","","","","","","","","","",""
"html-button-response","43","83328","0.0-18.0","","8485.199999999255","
  <div style=""display: flex; align-items: center; justify-content: center; height: 80vh;"">
  <div>
          <img src=""images/inst_demo_finish.png"" style=""width: 80vw; height:auto;"">
          <br><br>
      </div>
      <br><br>
  </div>","0","","","","","","","","","","","","","","","","","","","","","","","","","",""
"html-keyboard-response","44","87703","0.0-19.0","","4366.799999998882","
  <div style=""display: flex; align-items: center; justify-content: center; height: 80vh;"">
  <div>
          <img src=""images/inst_6.png"" style=""width: 80vw; height:auto;"">
          <br><br>
      </div>
      <br><br>
  </div>","f","","","","","","","","","","","","","","","","","","","","","","","","","",""
"html-keyboard-response","45","90711","0.0-20.0","","null","<div style=""font-size:100px;"">+</div>","null","delaylearn","learning","pre_fixation","593f105f02d1cc0001071a72","","","","","","","","","","","","","","","","","","","","","",""
"html-keyboard-response","46","93158","0.0-21.0","","null","<div style=""font-size:100px;"">+</div>","null","delaylearn","learning","ITI","593f105f02d1cc0001071a72","tMZzHRsdQyVnQv4Ed0RRp6dkhzn2","","","","","","","","","","","","","","","","","","","2439","",""
"html-keyboard-response","47","94821","0.0-22.0-0.0","","1649.5","<div style=""display: flex; flex-direction: column; align-items: center; margin-top: -40px;""><img src=""images/pattern_3.png"" style=""width: 234px; height: 230px; margin-top: -50px;""><div style=""display: flex; justify-content: space-between; margin-top: 33px;""><img src=""images/choice_trial_5.png"" style=""width: 408px; height: 417px; margin-right: 200px;""><img src=""images/choice_trial_6.png"" style=""width: 408px; height: 417px;""></div></div>","f","delaylearn","learning","trial","593f105f02d1cc0001071a72","tMZzHRsdQyVnQv4Ed0RRp6dkhzn2","1","images/choice_trial_5.png","images/choice_trial_6.png","images/pattern_3.png","f","f","7000","5","6","2","0","9","1","1","5","60","","","","",""
"html-keyboard-response","48","95833","0.0-22.0-1.0","","null","<div style=""display: flex; flex-direction: column; align-items: center; margin-top: -40px;""><img src=""images/pattern_3.png"" style=""width: 234px; height: 230px; margin-top: -50px;""><div style=""display: flex; justify-content: space-between; margin-top: 33px;""><img src=""images/choice_trial_5.png"" style=""width: 408px; height: 417px; margin-right: 608px;""></div></div>","null","delaylearn","learning","display_response","593f105f02d1cc0001071a72","tMZzHRsdQyVnQv4Ed0RRp6dkhzn2","","","","","","","","","","","","","","","","","chosen stimuli: images/choice_trial_5.png","","","",""
"html-keyboard-response","49","102840","0.0-22.0-2.0","","null","","null","delaylearn","learning","feedback_duration_window","593f105f02d1cc0001071a72","tMZzHRsdQyVnQv4Ed0RRp6dkhzn2","","","","","","","","","","","","","","","","","","7000","","",""
"html-keyboard-response","50","104351","0.0-22.0-3.0","","null","<div style='margin:auto;width: auto; font-size: 150%'><span style='font-weight: bold; font-size: 100px; color: green;'>+10 points!</span><br><br></div>","null","delaylearn","learning","feedback_image_window","593f105f02d1cc0001071a72","tMZzHRsdQyVnQv4Ed0RRp6dkhzn2","","","","","","","","","","","","","","","","","","","","",""
"html-keyboard-response","51","106025","0.0-23.0","","null","<div style=""font-size:100px;"">+</div>","null","delaylearn","learning","ITI","593f105f02d1cc0001071a72","tMZzHRsdQyVnQv4Ed0RRp6dkhzn2","","","","","","","","","","","","","","","","","","","1668","",""
"html-keyboard-response","52","108099","0.0-24.0-0.0","","2056.5","<div style=""display: flex; flex-direction: column; align-items: center; margin-top: -40px;""><img src=""images/pattern_7.png"" style=""width: 234px; height: 230px; margin-top: -50px;""><div style=""display: flex; justify-content: space-between; margin-top: 33px;""><img src=""images/choice_trial_14.png"" style=""width: 408px; height: 417px; margin-right: 200px;""><img src=""images/choice_trial_13.png"" style=""width: 408px; height: 417px;""></div></div>","f","delaylearn","learning","trial","593f105f02d1cc0001071a72","tMZzHRsdQyVnQv4Ed0RRp6dkhzn2","1","images/choice_trial_14.png","images/choice_trial_13.png","images/pattern_7.png","j","j","750","14","13","6","1","10","0","0","14","60","","","","",""
"html-keyboard-response","53","109110","0.0-24.0-1.0","","null","<div style=""display: flex; flex-direction: column; align-items: center; margin-top: -40px;""><img src=""images/pattern_7.png"" style=""width: 234px; height: 230px; margin-top: -50px;""><div style=""display: flex; justify-content: space-between; margin-top: 33px;""><img src=""images/choice_trial_14.png"" style=""width: 408px; height: 417px; margin-right: 608px;""></div></div>","null","delaylearn","learning","display_response","593f105f02d1cc0001071a72","tMZzHRsdQyVnQv4Ed0RRp6dkhzn2","","","","","","","","","","","","","","","","","chosen stimuli: images/choice_trial_14.png","","","",""
"html-keyboard-response","54","109867","0.0-24.0-2.0","","null","","null","delaylearn","learning","feedback_duration_window","593f105f02d1cc0001071a72","tMZzHRsdQyVnQv4Ed0RRp6dkhzn2","","","","","","","","","","","","","","","","","","750","","",""
"html-keyboard-response","55","111377","0.0-24.0-3.0","","null","<div style='margin:auto;width: auto; font-size: 150%'><span style='font-weight: bold; font-size: 100px; color: red;'>0 points!</span><br><br></div>","null","delaylearn","learning","feedback_image_window","593f105f02d1cc0001071a72","tMZzHRsdQyVnQv4Ed0RRp6dkhzn2","","","","","","","","","","","","","","","","","","","","",""
"html-keyboard-response","56","113756","0.0-25.0","","null","<div style=""font-size:100px;"">+</div>","null","delaylearn","learning","ITI","593f105f02d1cc0001071a72","tMZzHRsdQyVnQv4Ed0RRp6dkhzn2","","","","","","","","","","","","","","","","","","","2373","",""
"html-keyboard-response","57","115562","0.0-26.0-0.0","","1789.5999999996275","<div style=""display: flex; flex-direction: column; align-items: center; margin-top: -40px;""><img src=""images/pattern_4.png"" style=""width: 234px; height: 230px; margin-top: -50px;""><div style=""display: flex; justify-content: space-between; margin-top: 33px;""><img src=""images/choice_trial_7.png"" style=""width: 408px; height: 417px; margin-right: 200px;""><img src=""images/choice_trial_8.png"" style=""width: 408px; height: 417px;""></div></div>","f","delaylearn","learning","trial","593f105f02d1cc0001071a72","tMZzHRsdQyVnQv4Ed0RRp6dkhzn2","1","images/choice_trial_7.png","images/choice_trial_8.png","images/pattern_4.png","f","f","7000","7","8","3","0","11","1","1","7","70","","","","",""
"html-keyboard-response","58","116575","0.0-26.0-1.0","","null","<div style=""display: flex; flex-direction: column; align-items: center; margin-top: -40px;""><img src=""images/pattern_4.png"" style=""width: 234px; height: 230px; margin-top: -50px;""><div style=""display: flex; justify-content: space-between; margin-top: 33px;""><img src=""images/choice_trial_7.png"" style=""width: 408px; height: 417px; margin-right: 608px;""></div></div>","null","delaylearn","learning","display_response","593f105f02d1cc0001071a72","tMZzHRsdQyVnQv4Ed0RRp6dkhzn2","","","","","","","","","","","","","","","","","chosen stimuli: images/choice_trial_7.png","","","",""
"html-keyboard-response","59","123582","0.0-26.0-2.0","","null","","null","delaylearn","learning","feedback_duration_window","593f105f02d1cc0001071a72","tMZzHRsdQyVnQv4Ed0RRp6dkhzn2","","","","","","","","","","","","","","","","","","7000","","",""
"html-keyboard-response","60","125093","0.0-26.0-3.0","","null","<div style='margin:auto;width: auto; font-size: 150%'><span style='font-weight: bold; font-size: 100px; color: green;'>+10 points!</span><br><br></div>","null","delaylearn","learning","feedback_image_window","593f105f02d1cc0001071a72","tMZzHRsdQyVnQv4Ed0RRp6dkhzn2","","","","","","","","","","","","","","","","","","","","",""
"html-keyboard-response","61","126978","0.0-27.0","","null","<div style=""font-size:100px;"">+</div>","null","delaylearn","learning","ITI","593f105f02d1cc0001071a72","tMZzHRsdQyVnQv4Ed0RRp6dkhzn2","","","","","","","","","","","","","","","","","","","1881","",""
"html-keyboard-response","62","129152","0.0-28.0-0.0","","2161.60000000149","<div style=""display: flex; flex-direction: column; align-items: center; margin-top: -40px;""><img src=""images/pattern_5.png"" style=""width: 234px; height: 230px; margin-top: -50px;""><div style=""display: flex; justify-content: space-between; margin-top: 33px;""><img src=""images/choice_trial_10.png"" style=""width: 408px; height: 417px; margin-right: 200px;""><img src=""images/choice_trial_9.png"" style=""width: 408px; height: 417px;""></div></div>","j","delaylearn","learning","trial","593f105f02d1cc0001071a72","tMZzHRsdQyVnQv4Ed0RRp6dkhzn2","1","images/choice_trial_10.png","images/choice_trial_9.png","images/pattern_5.png","j","j","750","10","9","4","1","12","1","1","9","80","","","","",""
"html-keyboard-response","63","130165","0.0-28.0-1.0","","null","<div style=""display: flex; flex-direction: column; align-items: center; margin-top: -40px;""><img src=""images/pattern_5.png"" style=""width: 234px; height: 230px; margin-top: -50px;""><div style=""display: flex; justify-content: space-between; margin-top: 33px;""><img src=""images/choice_trial_9.png"" style=""width: 408px; height: 417px; margin-left:608px;""></div></div>","null","delaylearn","learning","display_response","593f105f02d1cc0001071a72","tMZzHRsdQyVnQv4Ed0RRp6dkhzn2","","","","","","","","","","","","","","","","","chosen stimuli: images/choice_trial_9.png","","","",""
"html-keyboard-response","64","130921","0.0-28.0-2.0","","null","","null","delaylearn","learning","feedback_duration_window","593f105f02d1cc0001071a72","tMZzHRsdQyVnQv4Ed0RRp6dkhzn2","","","","","","","","","","","","","","","","","","750","","",""
"html-keyboard-response","65","132430","0.0-28.0-3.0","","null","<div style='margin:auto;width: auto; font-size: 150%'><span style='font-weight: bold; font-size: 100px; color: green;'>+10 points!</span><br><br></div>","null","delaylearn","learning","feedback_image_window","593f105f02d1cc0001071a72","tMZzHRsdQyVnQv4Ed0RRp6dkhzn2","","","","","","","","","","","","","","","","","","","","",""
"html-keyboard-response","66","134578","0.0-29.0","","null","<div style=""font-size:100px;"">+</div>","null","delaylearn","learning","ITI","593f105f02d1cc0001071a72","tMZzHRsdQyVnQv4Ed0RRp6dkhzn2","","","","","","","","","","","","","","","","","","","2143","",""
"html-keyboard-response","67","136244","0.0-30.0-0.0","","1648.5","<div style=""display: flex; flex-direction: column; align-items: center; margin-top: -40px;""><img src=""images/pattern_6.png"" style=""width: 234px; height: 230px; margin-top: -50px;""><div style=""display: flex; justify-content: space-between; margin-top: 33px;""><img src=""images/choice_trial_11.png"" style=""width: 408px; height: 417px; margin-right: 200px;""><img src=""images/choice_trial_12.png"" style=""width: 408px; height: 417px;""></div></div>","f","delaylearn","learning","trial","593f105f02d1cc0001071a72","tMZzHRsdQyVnQv4Ed0RRp6dkhzn2","1","images/choice_trial_11.png","images/choice_trial_12.png","images/pattern_6.png","j","f","750","11","12","5","0","13","1","0","11","80","","","","",""
"html-keyboard-response","68","137256","0.0-30.0-1.0","","null","<div style=""display: flex; flex-direction: column; align-items: center; margin-top: -40px;""><img src=""images/pattern_6.png"" style=""width: 234px; height: 230px; margin-top: -50px;""><div style=""display: flex; justify-content: space-between; margin-top: 33px;""><img src=""images/choice_trial_11.png"" style=""width: 408px; height: 417px; margin-right: 608px;""></div></div>","null","delaylearn","learning","display_response","593f105f02d1cc0001071a72","tMZzHRsdQyVnQv4Ed0RRp6dkhzn2","","","","","","","","","","","","","","","","","chosen stimuli: images/choice_trial_11.png","","","",""
"html-keyboard-response","69","138013","0.0-30.0-2.0","","null","","null","delaylearn","learning","feedback_duration_window","593f105f02d1cc0001071a72","tMZzHRsdQyVnQv4Ed0RRp6dkhzn2","","","","","","","","","","","","","","","","","","750","","",""
"html-keyboard-response","70","139522","0.0-30.0-3.0","","null","<div style='margin:auto;width: auto; font-size: 150%'><span style='font-weight: bold; font-size: 100px; color: red;'>0 points!</span><br><br></div>","null","delaylearn","learning","feedback_image_window","593f105f02d1cc0001071a72","tMZzHRsdQyVnQv4Ed0RRp6dkhzn2","","","","","","","","","","","","","","","","","","","","",""
"html-keyboard-response","71","140027","0.0-31.0-0.0","","null","","null","","","mood_trial_fixation","","","","","","","","","","","","","","","","","","","","","","",""
"lmdlab-html-vas-response","72","145937","0.0-31.0-1.0","","4886","How happy are you right now?","0.5740740740740741","delaylearn","learning","mood_trial","593f105f02d1cc0001071a72","tMZzHRsdQyVnQv4Ed0RRp6dkhzn2","","","","","","","","","","","","","","","","","","","","[""Very unhappy"",""Very happy""]",""
"html-keyboard-response","73","148010","0.0-32.0","","null","<div style=""font-size:100px;"">+</div>","null","delaylearn","learning","ITI","593f105f02d1cc0001071a72","tMZzHRsdQyVnQv4Ed0RRp6dkhzn2","","","","","","","","","","","","","","","","","","","2063","",""
"html-keyboard-response","74","149531","0.0-33.0-0.0","","1505.199999999255","<div style=""display: flex; flex-direction: column; align-items: center; margin-top: -40px;""><img src=""images/pattern_1.png"" style=""width: 234px; height: 230px; margin-top: -50px;""><div style=""display: flex; justify-content: space-between; margin-top: 33px;""><img src=""images/choice_trial_2.png"" style=""width: 408px; height: 417px; margin-right: 200px;""><img src=""images/choice_trial_1.png"" style=""width: 408px; height: 417px;""></div></div>","f","delaylearn","learning","trial","593f105f02d1cc0001071a72","tMZzHRsdQyVnQv4Ed0RRp6dkhzn2","1","images/choice_trial_2.png","images/choice_trial_1.png","images/pattern_1.png","j","j","7000","2","1","1","1","14","0","0","2","80","","","","",""
"html-keyboard-response","75","150545","0.0-33.0-1.0","","null","<div style=""display: flex; flex-direction: column; align-items: center; margin-top: -40px;""><img src=""images/pattern_1.png"" style=""width: 234px; height: 230px; margin-top: -50px;""><div style=""display: flex; justify-content: space-between; margin-top: 33px;""><img src=""images/choice_trial_2.png"" style=""width: 408px; height: 417px; margin-right: 608px;""></div></div>","null","delaylearn","learning","display_response","593f105f02d1cc0001071a72","tMZzHRsdQyVnQv4Ed0RRp6dkhzn2","","","","","","","","","","","","","","","","","chosen stimuli: images/choice_trial_2.png","","","",""
"html-keyboard-response","76","157552","0.0-33.0-2.0","","null","","null","delaylearn","learning","feedback_duration_window","593f105f02d1cc0001071a72","tMZzHRsdQyVnQv4Ed0RRp6dkhzn2","","","","","","","","","","","","","","","","","","7000","","",""
"html-keyboard-response","77","159062","0.0-33.0-3.0","","null","<div style='margin:auto;width: auto; font-size: 150%'><span style='font-weight: bold; font-size: 100px; color: red;'>0 points!</span><br><br></div>","null","delaylearn","learning","feedback_image_window","593f105f02d1cc0001071a72","tMZzHRsdQyVnQv4Ed0RRp6dkhzn2","","","","","","","","","","","","","","","","","","","","",""
"html-keyboard-response","78","160598","0.0-34.0","","null","<div style=""font-size:100px;"">+</div>","null","delaylearn","learning","ITI","593f105f02d1cc0001071a72","tMZzHRsdQyVnQv4Ed0RRp6dkhzn2","","","","","","","","","","","","","","","","","","","1530","",""
"html-keyboard-response","79","161820","0.0-35.0-0.0","","1203.800000000745","<div style=""display: flex; flex-direction: column; align-items: center; margin-top: -40px;""><img src=""images/pattern_3.png"" style=""width: 234px; height: 230px; margin-top: -50px;""><div style=""display: flex; justify-content: space-between; margin-top: 33px;""><img src=""images/choice_trial_6.png"" style=""width: 408px; height: 417px; margin-right: 200px;""><img src=""images/choice_trial_5.png"" style=""width: 408px; height: 417px;""></div></div>","j","delaylearn","learning","trial","593f105f02d1cc0001071a72","tMZzHRsdQyVnQv4Ed0RRp6dkhzn2","1","images/choice_trial_6.png","images/choice_trial_5.png","images/pattern_3.png","f","j","7000","6","5","2","1","15","1","0","5","80","","","","",""
"html-keyboard-response","80","162831","0.0-35.0-1.0","","null","<div style=""display: flex; flex-direction: column; align-items: center; margin-top: -40px;""><img src=""images/pattern_3.png"" style=""width: 234px; height: 230px; margin-top: -50px;""><div style=""display: flex; justify-content: space-between; margin-top: 33px;""><img src=""images/choice_trial_5.png"" style=""width: 408px; height: 417px; margin-left:608px;""></div></div>","null","delaylearn","learning","display_response","593f105f02d1cc0001071a72","tMZzHRsdQyVnQv4Ed0RRp6dkhzn2","","","","","","","","","","","","","","","","","chosen stimuli: images/choice_trial_5.png","","","",""
"html-keyboard-response","81","169837","0.0-35.0-2.0","","null","","null","delaylearn","learning","feedback_duration_window","593f105f02d1cc0001071a72","tMZzHRsdQyVnQv4Ed0RRp6dkhzn2","","","","","","","","","","","","","","","","","","7000","","",""
"html-keyboard-response","82","171347","0.0-35.0-3.0","","null","<div style='margin:auto;width: auto; font-size: 150%'><span style='font-weight: bold; font-size: 100px; color: red;'>0 points!</span><br><br></div>","null","delaylearn","learning","feedback_image_window","593f105f02d1cc0001071a72","tMZzHRsdQyVnQv4Ed0RRp6dkhzn2","","","","","","","","","","","","","","","","","","","","",""
"html-keyboard-response","83","173366","0.0-36.0","","null","<div style=""font-size:100px;"">+</div>","null","delaylearn","learning","ITI","593f105f02d1cc0001071a72","tMZzHRsdQyVnQv4Ed0RRp6dkhzn2","","","","","","","","","","","","","","","","","","","2012","",""
"html-keyboard-response","84","175134","0.0-37.0-0.0","","1751","<div style=""display: flex; flex-direction: column; align-items: center; margin-top: -40px;""><img src=""images/pattern_5.png"" style=""width: 234px; height: 230px; margin-top: -50px;""><div style=""display: flex; justify-content: space-between; margin-top: 33px;""><img src=""images/choice_trial_9.png"" style=""width: 408px; height: 417px; margin-right: 200px;""><img src=""images/choice_trial_10.png"" style=""width: 408px; height: 417px;""></div></div>","f","delaylearn","learning","trial","593f105f02d1cc0001071a72","tMZzHRsdQyVnQv4Ed0RRp6dkhzn2","1","images/choice_trial_9.png","images/choice_trial_10.png","images/pattern_5.png","f","f","750","9","10","4","0","16","1","1","9","90","","","","",""
"html-keyboard-response","85","176148","0.0-37.0-1.0","","null","<div style=""display: flex; flex-direction: column; align-items: center; margin-top: -40px;""><img src=""images/pattern_5.png"" style=""width: 234px; height: 230px; margin-top: -50px;""><div style=""display: flex; justify-content: space-between; margin-top: 33px;""><img src=""images/choice_trial_9.png"" style=""width: 408px; height: 417px; margin-right: 608px;""></div></div>","null","delaylearn","learning","display_response","593f105f02d1cc0001071a72","tMZzHRsdQyVnQv4Ed0RRp6dkhzn2","","","","","","","","","","","","","","","","","chosen stimuli: images/choice_trial_9.png","","","",""
"html-keyboard-response","86","176904","0.0-37.0-2.0","","null","","null","delaylearn","learning","feedback_duration_window","593f105f02d1cc0001071a72","tMZzHRsdQyVnQv4Ed0RRp6dkhzn2","","","","","","","","","","","","","","","","","","750","","",""
"html-keyboard-response","87","178415","0.0-37.0-3.0","","null","<div style='margin:auto;width: auto; font-size: 150%'><span style='font-weight: bold; font-size: 100px; color: green;'>+10 points!</span><br><br></div>","null","delaylearn","learning","feedback_image_window","593f105f02d1cc0001071a72","tMZzHRsdQyVnQv4Ed0RRp6dkhzn2","","","","","","","","","","","","","","","","","","","","",""
"html-keyboard-response","88","178920","0.0-38.0-0.0","","null","","null","","","mood_trial_fixation","","","","","","","","","","","","","","","","","","","","","","",""
"lmdlab-html-vas-response","89","183835","0.0-38.0-1.0","","3894","How happy are you right now?","0.48302469135802467","delaylearn","learning","mood_trial","593f105f02d1cc0001071a72","tMZzHRsdQyVnQv4Ed0RRp6dkhzn2","","","","","","","","","","","","","","","","","","","","[""Very unhappy"",""Very happy""]",""
"html-keyboard-response","90","185646","0.0-39.0","","null","<div style=""font-size:100px;"">+</div>","null","delaylearn","learning","ITI","593f105f02d1cc0001071a72","tMZzHRsdQyVnQv4Ed0RRp6dkhzn2","","","","","","","","","","","","","","","","","","","1803","",""
"html-keyboard-response","91","188370","0.0-40.0-0.0","","2707.2999999988824","<div style=""display: flex; flex-direction: column; align-items: center; margin-top: -40px;""><img src=""images/pattern_6.png"" style=""width: 234px; height: 230px; margin-top: -50px;""><div style=""display: flex; justify-content: space-between; margin-top: 33px;""><img src=""images/choice_trial_11.png"" style=""width: 408px; height: 417px; margin-right: 200px;""><img src=""images/choice_trial_12.png"" style=""width: 408px; height: 417px;""></div></div>","j","delaylearn","learning","trial","593f105f02d1cc0001071a72","tMZzHRsdQyVnQv4Ed0RRp6dkhzn2","1","images/choice_trial_11.png","images/choice_trial_12.png","images/pattern_6.png","f","f","750","11","12","5","0","17","0","0","12","90","","","","",""
"html-keyboard-response","92","189383","0.0-40.0-1.0","","null","<div style=""display: flex; flex-direction: column; align-items: center; margin-top: -40px;""><img src=""images/pattern_6.png"" style=""width: 234px; height: 230px; margin-top: -50px;""><div style=""display: flex; justify-content: space-between; margin-top: 33px;""><img src=""images/choice_trial_12.png"" style=""width: 408px; height: 417px; margin-left:608px;""></div></div>","null","delaylearn","learning","display_response","593f105f02d1cc0001071a72","tMZzHRsdQyVnQv4Ed0RRp6dkhzn2","","","","","","","","","","","","","","","","","chosen stimuli: images/choice_trial_12.png","","","",""
"html-keyboard-response","93","190140","0.0-40.0-2.0","","null","","null","delaylearn","learning","feedback_duration_window","593f105f02d1cc0001071a72","tMZzHRsdQyVnQv4Ed0RRp6dkhzn2","","","","","","","","","","","","","","","","","","750","","",""
"html-keyboard-response","94","191651","0.0-40.0-3.0","","null","<div style='margin:auto;width: auto; font-size: 150%'><span style='font-weight: bold; font-size: 100px; color: red;'>0 points!</span><br><br></div>","null","delaylearn","learning","feedback_image_window","593f105f02d1cc0001071a72","tMZzHRsdQyVnQv4Ed0RRp6dkhzn2","","","","","","","","","","","","","","","","","","","","",""
"html-keyboard-response","95","193503","0.0-41.0","","null","<div style=""font-size:100px;"">+</div>","null","delaylearn","learning","ITI","593f105f02d1cc0001071a72","tMZzHRsdQyVnQv4Ed0RRp6dkhzn2","","","","","","","","","","","","","","","","","","","1847","",""
"html-keyboard-response","96","195298","0.0-42.0-0.0","","1780.0999999996275","<div style=""display: flex; flex-direction: column; align-items: center; margin-top: -40px;""><img src=""images/pattern_4.png"" style=""width: 234px; height: 230px; margin-top: -50px;""><div style=""display: flex; justify-content: space-between; margin-top: 33px;""><img src=""images/choice_trial_8.png"" style=""width: 408px; height: 417px; margin-right: 200px;""><img src=""images/choice_trial_7.png"" style=""width: 408px; height: 417px;""></div></div>","j","delaylearn","learning","trial","593f105f02d1cc0001071a72","tMZzHRsdQyVnQv4Ed0RRp6dkhzn2","1","images/choice_trial_8.png","images/choice_trial_7.png","images/pattern_4.png","j","j","7000","8","7","3","1","18","1","1","7","100","","","","",""
"html-keyboard-response","97","196313","0.0-42.0-1.0","","null","<div style=""display: flex; flex-direction: column; align-items: center; margin-top: -40px;""><img src=""images/pattern_4.png"" style=""width: 234px; height: 230px; margin-top: -50px;""><div style=""display: flex; justify-content: space-between; margin-top: 33px;""><img src=""images/choice_trial_7.png"" style=""width: 408px; height: 417px; margin-left:608px;""></div></div>","null","delaylearn","learning","display_response","593f105f02d1cc0001071a72","tMZzHRsdQyVnQv4Ed0RRp6dkhzn2","","","","","","","","","","","","","","","","","chosen stimuli: images/choice_trial_7.png","","","",""
"html-keyboard-response","98","203319","0.0-42.0-2.0","","null","","null","delaylearn","learning","feedback_duration_window","593f105f02d1cc0001071a72","tMZzHRsdQyVnQv4Ed0RRp6dkhzn2","","","","","","","","","","","","","","","","","","7000","","",""
"html-keyboard-response","99","204828","0.0-42.0-3.0","","null","<div style='margin:auto;width: auto; font-size: 150%'><span style='font-weight: bold; font-size: 100px; color: green;'>+10 points!</span><br><br></div>","null","delaylearn","learning","feedback_image_window","593f105f02d1cc0001071a72","tMZzHRsdQyVnQv4Ed0RRp6dkhzn2","","","","","","","","","","","","","","","","","","","","",""
"html-keyboard-response","100","206891","0.0-43.0","","null","<div style=""font-size:100px;"">+</div>","null","delaylearn","learning","ITI","593f105f02d1cc0001071a72","tMZzHRsdQyVnQv4Ed0RRp6dkhzn2","","","","","","","","","","","","","","","","","","","2057","",""
"html-keyboard-response","101","208373","0.0-44.0-0.0","","1464.9000000003725","<div style=""display: flex; flex-direction: column; align-items: center; margin-top: -40px;""><img src=""images/pattern_7.png"" style=""width: 234px; height: 230px; margin-top: -50px;""><div style=""display: flex; justify-content: space-between; margin-top: 33px;""><img src=""images/choice_trial_13.png"" style=""width: 408px; height: 417px; margin-right: 200px;""><img src=""images/choice_trial_14.png"" style=""width: 408px; height: 417px;""></div></div>","f","delaylearn","learning","trial","593f105f02d1cc0001071a72","tMZzHRsdQyVnQv4Ed0RRp6dkhzn2","1","images/choice_trial_13.png","images/choice_trial_14.png","images/pattern_7.png","j","f","750","13","14","6","0","19","1","0","13","100","","","","",""
"html-keyboard-response","102","209387","0.0-44.0-1.0","","null","<div style=""display: flex; flex-direction: column; align-items: center; margin-top: -40px;""><img src=""images/pattern_7.png"" style=""width: 234px; height: 230px; margin-top: -50px;""><div style=""display: flex; justify-content: space-between; margin-top: 33px;""><img src=""images/choice_trial_13.png"" style=""width: 408px; height: 417px; margin-right: 608px;""></div></div>","null","delaylearn","learning","display_response","593f105f02d1cc0001071a72","tMZzHRsdQyVnQv4Ed0RRp6dkhzn2","","","","","","","","","","","","","","","","","chosen stimuli: images/choice_trial_13.png","","","",""
"html-keyboard-response","103","210144","0.0-44.0-2.0","","null","","null","delaylearn","learning","feedback_duration_window","593f105f02d1cc0001071a72","tMZzHRsdQyVnQv4Ed0RRp6dkhzn2","","","","","","","","","","","","","","","","","","750","","",""
"html-keyboard-response","104","211654","0.0-44.0-3.0","","null","<div style='margin:auto;width: auto; font-size: 150%'><span style='font-weight: bold; font-size: 100px; color: red;'>0 points!</span><br><br></div>","null","delaylearn","learning","feedback_image_window","593f105f02d1cc0001071a72","tMZzHRsdQyVnQv4Ed0RRp6dkhzn2","","","","","","","","","","","","","","","","","","","","",""
"html-keyboard-response","105","213798","0.0-45.0","","null","<div style=""font-size:100px;"">+</div>","null","delaylearn","learning","ITI","593f105f02d1cc0001071a72","tMZzHRsdQyVnQv4Ed0RRp6dkhzn2","","","","","","","","","","","","","","","","","","","2138","",""
"html-keyboard-response","106","215623","0.0-46.0-0.0","","1804.2999999988824","<div style=""display: flex; flex-direction: column; align-items: center; margin-top: -40px;""><img src=""images/pattern_1.png"" style=""width: 234px; height: 230px; margin-top: -50px;""><div style=""display: flex; justify-content: space-between; margin-top: 33px;""><img src=""images/choice_trial_1.png"" style=""width: 408px; height: 417px; margin-right: 200px;""><img src=""images/choice_trial_2.png"" style=""width: 408px; height: 417px;""></div></div>","j","delaylearn","learning","trial","593f105f02d1cc0001071a72","tMZzHRsdQyVnQv4Ed0RRp6dkhzn2","1","images/choice_trial_1.png","images/choice_trial_2.png","images/pattern_1.png","f","f","7000","1","2","1","0","20","0","0","2","100","","","","",""
"html-keyboard-response","107","216634","0.0-46.0-1.0","","null","<div style=""display: flex; flex-direction: column; align-items: center; margin-top: -40px;""><img src=""images/pattern_1.png"" style=""width: 234px; height: 230px; margin-top: -50px;""><div style=""display: flex; justify-content: space-between; margin-top: 33px;""><img src=""images/choice_trial_2.png"" style=""width: 408px; height: 417px; margin-left:608px;""></div></div>","null","delaylearn","learning","display_response","593f105f02d1cc0001071a72","tMZzHRsdQyVnQv4Ed0RRp6dkhzn2","","","","","","","","","","","","","","","","","chosen stimuli: images/choice_trial_2.png","","","",""
"html-keyboard-response","108","223641","0.0-46.0-2.0","","null","","null","delaylearn","learning","feedback_duration_window","593f105f02d1cc0001071a72","tMZzHRsdQyVnQv4Ed0RRp6dkhzn2","","","","","","","","","","","","","","","","","","7000","","",""
"html-keyboard-response","109","225152","0.0-46.0-3.0","","null","<div style='margin:auto;width: auto; font-size: 150%'><span style='font-weight: bold; font-size: 100px; color: red;'>0 points!</span><br><br></div>","null","delaylearn","learning","feedback_image_window","593f105f02d1cc0001071a72","tMZzHRsdQyVnQv4Ed0RRp6dkhzn2","","","","","","","","","","","","","","","","","","","","",""
"html-keyboard-response","110","227564","0.0-47.0","","null","<div style=""font-size:100px;"">+</div>","null","delaylearn","learning","ITI","593f105f02d1cc0001071a72","tMZzHRsdQyVnQv4Ed0RRp6dkhzn2","","","","","","","","","","","","","","","","","","","2407","",""
"html-keyboard-response","111","228883","0.0-48.0-0.0","","1302.9000000003725","<div style=""display: flex; flex-direction: column; align-items: center; margin-top: -40px;""><img src=""images/pattern_6.png"" style=""width: 234px; height: 230px; margin-top: -50px;""><div style=""display: flex; justify-content: space-between; margin-top: 33px;""><img src=""images/choice_trial_12.png"" style=""width: 408px; height: 417px; margin-right: 200px;""><img src=""images/choice_trial_11.png"" style=""width: 408px; height: 417px;""></div></div>","j","delaylearn","learning","trial","593f105f02d1cc0001071a72","tMZzHRsdQyVnQv4Ed0RRp6dkhzn2","1","images/choice_trial_12.png","images/choice_trial_11.png","images/pattern_6.png","j","j","750","12","11","5","1","21","1","1","11","110","","","","",""
"html-keyboard-response","112","229892","0.0-48.0-1.0","","null","<div style=""display: flex; flex-direction: column; align-items: center; margin-top: -40px;""><img src=""images/pattern_6.png"" style=""width: 234px; height: 230px; margin-top: -50px;""><div style=""display: flex; justify-content: space-between; margin-top: 33px;""><img src=""images/choice_trial_11.png"" style=""width: 408px; height: 417px; margin-left:608px;""></div></div>","null","delaylearn","learning","display_response","593f105f02d1cc0001071a72","tMZzHRsdQyVnQv4Ed0RRp6dkhzn2","","","","","","","","","","","","","","","","","chosen stimuli: images/choice_trial_11.png","","","",""
"html-keyboard-response","113","230648","0.0-48.0-2.0","","null","","null","delaylearn","learning","feedback_duration_window","593f105f02d1cc0001071a72","tMZzHRsdQyVnQv4Ed0RRp6dkhzn2","","","","","","","","","","","","","","","","","","750","","",""
"html-keyboard-response","114","232157","0.0-48.0-3.0","","null","<div style='margin:auto;width: auto; font-size: 150%'><span style='font-weight: bold; font-size: 100px; color: green;'>+10 points!</span><br><br></div>","null","delaylearn","learning","feedback_image_window","593f105f02d1cc0001071a72","tMZzHRsdQyVnQv4Ed0RRp6dkhzn2","","","","","","","","","","","","","","","","","","","","",""
"html-keyboard-response","115","234103","0.0-49.0","","null","<div style=""font-size:100px;"">+</div>","null","delaylearn","learning","ITI","593f105f02d1cc0001071a72","tMZzHRsdQyVnQv4Ed0RRp6dkhzn2","","","","","","","","","","","","","","","","","","","1940","",""
"html-keyboard-response","116","237052","0.0-50.0-0.0","","2926.300000000745","<div style=""display: flex; flex-direction: column; align-items: center; margin-top: -40px;""><img src=""images/pattern_4.png"" style=""width: 234px; height: 230px; margin-top: -50px;""><div style=""display: flex; justify-content: space-between; margin-top: 33px;""><img src=""images/choice_trial_7.png"" style=""width: 408px; height: 417px; margin-right: 200px;""><img src=""images/choice_trial_8.png"" style=""width: 408px; height: 417px;""></div></div>","f","delaylearn","learning","trial","593f105f02d1cc0001071a72","tMZzHRsdQyVnQv4Ed0RRp6dkhzn2","1","images/choice_trial_7.png","images/choice_trial_8.png","images/pattern_4.png","f","f","7000","7","8","3","0","22","1","1","7","120","","","","",""
"html-keyboard-response","117","238065","0.0-50.0-1.0","","null","<div style=""display: flex; flex-direction: column; align-items: center; margin-top: -40px;""><img src=""images/pattern_4.png"" style=""width: 234px; height: 230px; margin-top: -50px;""><div style=""display: flex; justify-content: space-between; margin-top: 33px;""><img src=""images/choice_trial_7.png"" style=""width: 408px; height: 417px; margin-right: 608px;""></div></div>","null","delaylearn","learning","display_response","593f105f02d1cc0001071a72","tMZzHRsdQyVnQv4Ed0RRp6dkhzn2","","","","","","","","","","","","","","","","","chosen stimuli: images/choice_trial_7.png","","","",""
"html-keyboard-response","118","245072","0.0-50.0-2.0","","null","","null","delaylearn","learning","feedback_duration_window","593f105f02d1cc0001071a72","tMZzHRsdQyVnQv4Ed0RRp6dkhzn2","","","","","","","","","","","","","","","","","","7000","","",""
"html-keyboard-response","119","246583","0.0-50.0-3.0","","null","<div style='margin:auto;width: auto; font-size: 150%'><span style='font-weight: bold; font-size: 100px; color: green;'>+10 points!</span><br><br></div>","null","delaylearn","learning","feedback_image_window","593f105f02d1cc0001071a72","tMZzHRsdQyVnQv4Ed0RRp6dkhzn2","","","","","","","","","","","","","","","","","","","","",""
"html-keyboard-response","120","247088","0.0-51.0-0.0","","null","","null","","","mood_trial_fixation","","","","","","","","","","","","","","","","","","","","","","",""
"lmdlab-html-vas-response","121","251987","0.0-51.0-1.0","","3870","How happy are you right now?","0.6574074074074074","delaylearn","learning","mood_trial","593f105f02d1cc0001071a72","tMZzHRsdQyVnQv4Ed0RRp6dkhzn2","","","","","","","","","","","","","","","","","","","","[""Very unhappy"",""Very happy""]",""
"html-keyboard-response","122","253771","0.0-52.0","","null","<div style=""font-size:100px;"">+</div>","null","delaylearn","learning","ITI","593f105f02d1cc0001071a72","tMZzHRsdQyVnQv4Ed0RRp6dkhzn2","","","","","","","","","","","","","","","","","","","1775","",""
"html-keyboard-response","123","256642","0.0-53.0-0.0","","2851.60000000149","<div style=""display: flex; flex-direction: column; align-items: center; margin-top: -40px;""><img src=""images/pattern_7.png"" style=""width: 234px; height: 230px; margin-top: -50px;""><div style=""display: flex; justify-content: space-between; margin-top: 33px;""><img src=""images/choice_trial_14.png"" style=""width: 408px; height: 417px; margin-right: 200px;""><img src=""images/choice_trial_13.png"" style=""width: 408px; height: 417px;""></div></div>","f","delaylearn","learning","trial","593f105f02d1cc0001071a72","tMZzHRsdQyVnQv4Ed0RRp6dkhzn2","1","images/choice_trial_14.png","images/choice_trial_13.png","images/pattern_7.png","j","j","750","14","13","6","1","23","0","0","14","120","","","","",""
"html-keyboard-response","124","257656","0.0-53.0-1.0","","null","<div style=""display: flex; flex-direction: column; align-items: center; margin-top: -40px;""><img src=""images/pattern_7.png"" style=""width: 234px; height: 230px; margin-top: -50px;""><div style=""display: flex; justify-content: space-between; margin-top: 33px;""><img src=""images/choice_trial_14.png"" style=""width: 408px; height: 417px; margin-right: 608px;""></div></div>","null","delaylearn","learning","display_response","593f105f02d1cc0001071a72","tMZzHRsdQyVnQv4Ed0RRp6dkhzn2","","","","","","","","","","","","","","","","","chosen stimuli: images/choice_trial_14.png","","","",""
"html-keyboard-response","125","258413","0.0-53.0-2.0","","null","","null","delaylearn","learning","feedback_duration_window","593f105f02d1cc0001071a72","tMZzHRsdQyVnQv4Ed0RRp6dkhzn2","","","","","","","","","","","","","","","","","","750","","",""
"html-keyboard-response","126","259922","0.0-53.0-3.0","","null","<div style='margin:auto;width: auto; font-size: 150%'><span style='font-weight: bold; font-size: 100px; color: red;'>0 points!</span><br><br></div>","null","delaylearn","learning","feedback_image_window","593f105f02d1cc0001071a72","tMZzHRsdQyVnQv4Ed0RRp6dkhzn2","","","","","","","","","","","","","","","","","","","","",""
"html-keyboard-response","127","261907","0.0-54.0","","null","<div style=""font-size:100px;"">+</div>","null","delaylearn","learning","ITI","593f105f02d1cc0001071a72","tMZzHRsdQyVnQv4Ed0RRp6dkhzn2","","","","","","","","","","","","","","","","","","","1980","",""
"html-keyboard-response","128","264869","0.0-55.0-0.0","","2944.0999999996275","<div style=""display: flex; flex-direction: column; align-items: center; margin-top: -40px;""><img src=""images/pattern_1.png"" style=""width: 234px; height: 230px; margin-top: -50px;""><div style=""display: flex; justify-content: space-between; margin-top: 33px;""><img src=""images/choice_trial_2.png"" style=""width: 408px; height: 417px; margin-right: 200px;""><img src=""images/choice_trial_1.png"" style=""width: 408px; height: 417px;""></div></div>","j","delaylearn","learning","trial","593f105f02d1cc0001071a72","tMZzHRsdQyVnQv4Ed0RRp6dkhzn2","1","images/choice_trial_2.png","images/choice_trial_1.png","images/pattern_1.png","f","j","7000","2","1","1","1","24","1","0","1","120","","","","",""
"html-keyboard-response","129","265885","0.0-55.0-1.0","","null","<div style=""display: flex; flex-direction: column; align-items: center; margin-top: -40px;""><img src=""images/pattern_1.png"" style=""width: 234px; height: 230px; margin-top: -50px;""><div style=""display: flex; justify-content: space-between; margin-top: 33px;""><img src=""images/choice_trial_1.png"" style=""width: 408px; height: 417px; margin-left:608px;""></div></div>","null","delaylearn","learning","display_response","593f105f02d1cc0001071a72","tMZzHRsdQyVnQv4Ed0RRp6dkhzn2","","","","","","","","","","","","","","","","","chosen stimuli: images/choice_trial_1.png","","","",""
"html-keyboard-response","130","272892","0.0-55.0-2.0","","null","","null","delaylearn","learning","feedback_duration_window","593f105f02d1cc0001071a72","tMZzHRsdQyVnQv4Ed0RRp6dkhzn2","","","","","","","","","","","","","","","","","","7000","","",""
"html-keyboard-response","131","274403","0.0-55.0-3.0","","null","<div style='margin:auto;width: auto; font-size: 150%'><span style='font-weight: bold; font-size: 100px; color: red;'>0 points!</span><br><br></div>","null","delaylearn","learning","feedback_image_window","593f105f02d1cc0001071a72","tMZzHRsdQyVnQv4Ed0RRp6dkhzn2","","","","","","","","","","","","","","","","","","","","",""
"html-keyboard-response","132","276616","0.0-56.0","","null","<div style=""font-size:100px;"">+</div>","null","delaylearn","learning","ITI","593f105f02d1cc0001071a72","tMZzHRsdQyVnQv4Ed0RRp6dkhzn2","","","","","","","","","","","","","","","","","","","2207","",""
"html-keyboard-response","133","278785","0.0-57.0-0.0","","2149.5","<div style=""display: flex; flex-direction: column; align-items: center; margin-top: -40px;""><img src=""images/pattern_5.png"" style=""width: 234px; height: 230px; margin-top: -50px;""><div style=""display: flex; justify-content: space-between; margin-top: 33px;""><img src=""images/choice_trial_10.png"" style=""width: 408px; height: 417px; margin-right: 200px;""><img src=""images/choice_trial_9.png"" style=""width: 408px; height: 417px;""></div></div>","j","delaylearn","learning","trial","593f105f02d1cc0001071a72","tMZzHRsdQyVnQv4Ed0RRp6dkhzn2","1","images/choice_trial_10.png","images/choice_trial_9.png","images/pattern_5.png","j","j","750","10","9","4","1","25","1","1","9","130","","","","",""
"html-keyboard-response","134","279797","0.0-57.0-1.0","","null","<div style=""display: flex; flex-direction: column; align-items: center; margin-top: -40px;""><img src=""images/pattern_5.png"" style=""width: 234px; height: 230px; margin-top: -50px;""><div style=""display: flex; justify-content: space-between; margin-top: 33px;""><img src=""images/choice_trial_9.png"" style=""width: 408px; height: 417px; margin-left:608px;""></div></div>","null","delaylearn","learning","display_response","593f105f02d1cc0001071a72","tMZzHRsdQyVnQv4Ed0RRp6dkhzn2","","","","","","","","","","","","","","","","","chosen stimuli: images/choice_trial_9.png","","","",""
"html-keyboard-response","135","280554","0.0-57.0-2.0","","null","","null","delaylearn","learning","feedback_duration_window","593f105f02d1cc0001071a72","tMZzHRsdQyVnQv4Ed0RRp6dkhzn2","","","","","","","","","","","","","","","","","","750","","",""
"html-keyboard-response","136","282063","0.0-57.0-3.0","","null","<div style='margin:auto;width: auto; font-size: 150%'><span style='font-weight: bold; font-size: 100px; color: green;'>+10 points!</span><br><br></div>","null","delaylearn","learning","feedback_image_window","593f105f02d1cc0001071a72","tMZzHRsdQyVnQv4Ed0RRp6dkhzn2","","","","","","","","","","","","","","","","","","","","",""
"html-keyboard-response","137","283861","0.0-58.0","","null","<div style=""font-size:100px;"">+</div>","null","delaylearn","learning","ITI","593f105f02d1cc0001071a72","tMZzHRsdQyVnQv4Ed0RRp6dkhzn2","","","","","","","","","","","","","","","","","","","1792","",""
"html-keyboard-response","138","285357","0.0-59.0-0.0","","1480.0999999996275","<div style=""display: flex; flex-direction: column; align-items: center; margin-top: -40px;""><img src=""images/pattern_3.png"" style=""width: 234px; height: 230px; margin-top: -50px;""><div style=""display: flex; justify-content: space-between; margin-top: 33px;""><img src=""images/choice_trial_6.png"" style=""width: 408px; height: 417px; margin-right: 200px;""><img src=""images/choice_trial_5.png"" style=""width: 408px; height: 417px;""></div></div>","f","delaylearn","learning","trial","593f105f02d1cc0001071a72","tMZzHRsdQyVnQv4Ed0RRp6dkhzn2","1","images/choice_trial_6.png","images/choice_trial_5.png","images/pattern_3.png","j","j","7000","6","5","2","1","26","0","0","6","130","","","","",""
"html-keyboard-response","139","286370","0.0-59.0-1.0","","null","<div style=""display: flex; flex-direction: column; align-items: center; margin-top: -40px;""><img src=""images/pattern_3.png"" style=""width: 234px; height: 230px; margin-top: -50px;""><div style=""display: flex; justify-content: space-between; margin-top: 33px;""><img src=""images/choice_trial_6.png"" style=""width: 408px; height: 417px; margin-right: 608px;""></div></div>","null","delaylearn","learning","display_response","593f105f02d1cc0001071a72","tMZzHRsdQyVnQv4Ed0RRp6dkhzn2","","","","","","","","","","","","","","","","","chosen stimuli: images/choice_trial_6.png","","","",""
"html-keyboard-response","140","293378","0.0-59.0-2.0","","null","","null","delaylearn","learning","feedback_duration_window","593f105f02d1cc0001071a72","tMZzHRsdQyVnQv4Ed0RRp6dkhzn2","","","","","","","","","","","","","","","","","","7000","","",""
"html-keyboard-response","141","294887","0.0-59.0-3.0","","null","<div style='margin:auto;width: auto; font-size: 150%'><span style='font-weight: bold; font-size: 100px; color: red;'>0 points!</span><br><br></div>","null","delaylearn","learning","feedback_image_window","593f105f02d1cc0001071a72","tMZzHRsdQyVnQv4Ed0RRp6dkhzn2","","","","","","","","","","","","","","","","","","","","",""
"lmdlab-html-vas-response","142","301254","0.0-60.0-0.0","","4801","*How <b><u>confident</u></b> are you feeling about your answers at this moment?*","0.35033275462962965","rewlearn","rate_confidence","","593f105f02d1cc0001071a72","tMZzHRsdQyVnQv4Ed0RRp6dkhzn2","","","","","","","","","","","","","","","","","","","","[""No confidence"",""Complete confidence""]",""
"lmdlab-rest-trial-limit","143","2024031","0.0-60.0-1.0","","1721261.8999999985","<div style=""font-size:40px;""><b>Please take a break!</b><br><br><br><br><p>Great work: you earned 130 points.<br><br><br><p>You have completed part(s) 1 of 5.<br><br><br><br>When you are ready to continue<br><br><br>please click the button.</p><br><br>","0","delaylearn","learning","break","593f105f02d1cc0001071a72","tMZzHRsdQyVnQv4Ed0RRp6dkhzn2","","","","","","","","","","","","","","","","","","","","","1"
"html-keyboard-response","144","2027040","0.0-60.0-2.0","","null","<div style=""font-size:100px;"">+</div>","null","delaylearn","learning","pre_fixation","593f105f02d1cc0001071a72","","","","","","","","","","","","","","","","","","","","","",""
"lmdlab-html-vas-response","145","2051082","0.0-60.0-3.0-0.0","","null","How happy are you right now?","","delaylearn","learning","mood_baseline","593f105f02d1cc0001071a72","tMZzHRsdQyVnQv4Ed0RRp6dkhzn2","","","","","","","","","","","","","","","","","","","","[""Very unhappy"",""Very happy""]",""
"html-keyboard-response","146","2052590","0.0-60.0-3.0-1.0","","null","","null","","","mood_baseline_fixation","","","","","","","","","","","","","","","","","","","","","","",""
"html-keyboard-response","147","2054997","0.0-61.0","","null","<div style=""font-size:100px;"">+</div>","null","delaylearn","learning","ITI","593f105f02d1cc0001071a72","tMZzHRsdQyVnQv4Ed0RRp6dkhzn2","","","","","","","","","","","","","","","","","","","2401","",""
"html-keyboard-response","148","2058014","0.0-62.0-0.0","","null","<div style=""display: flex; flex-direction: column; align-items: center; margin-top: -40px;""><img src=""images/pattern_7.png"" style=""width: 234px; height: 230px; margin-top: -50px;""><div style=""display: flex; justify-content: space-between; margin-top: 33px;""><img src=""images/choice_trial_14.png"" style=""width: 408px; height: 417px; margin-right: 200px;""><img src=""images/choice_trial_13.png"" style=""width: 408px; height: 417px;""></div></div>","null","delaylearn","learning","trial","593f105f02d1cc0001071a72","tMZzHRsdQyVnQv4Ed0RRp6dkhzn2","1","images/choice_trial_14.png","images/choice_trial_13.png","images/pattern_7.png","j","j","750","14","13","6","1","27","0","0","0","130","","","","",""
"html-keyboard-response","149","2059026","0.0-62.0-1.0","","null","<div style='font-weight: bold; font-size: 75px; color: red;'>Missed Trial <br><br><br><br> Please respond faster</div>","null","delaylearn","learning","display_response","593f105f02d1cc0001071a72","tMZzHRsdQyVnQv4Ed0RRp6dkhzn2","","","","","","","","","","","","","","","","","Missed trial","","","",""
"html-keyboard-response","150","2059042","0.0-62.0-2.0","","null","","null","delaylearn","learning","feedback_duration_window","593f105f02d1cc0001071a72","tMZzHRsdQyVnQv4Ed0RRp6dkhzn2","","","","","","","","","","","","","","","","","","0","","",""
"html-keyboard-response","151","2059060","0.0-62.0-3.0","","null","","null","delaylearn","learning","feedback_image_window","593f105f02d1cc0001071a72","tMZzHRsdQyVnQv4Ed0RRp6dkhzn2","","","","","","","","","","","","","","","","","","","","",""
"html-keyboard-response","152","2059565","0.0-63.0-0.0","","null","","null","","","mood_trial_fixation","","","","","","","","","","","","","","","","","","","","","","",""
"lmdlab-html-vas-response","153","2064476","0.0-63.0-1.0","","3890","How happy are you right now?","0.30864197530864196","delaylearn","learning","mood_trial","593f105f02d1cc0001071a72","tMZzHRsdQyVnQv4Ed0RRp6dkhzn2","","","","","","","","","","","","","","","","","","","","[""Very unhappy"",""Very happy""]",""
"html-keyboard-response","154","2066846","0.0-64.0","","null","<div style=""font-size:100px;"">+</div>","null","delaylearn","learning","ITI","593f105f02d1cc0001071a72","tMZzHRsdQyVnQv4Ed0RRp6dkhzn2","","","","","","","","","","","","","","","","","","","2362","",""
"html-keyboard-response","155","2067700","0.0-65.0-0.0","","838.7000000011176","<div style=""display: flex; flex-direction: column; align-items: center; margin-top: -40px;""><img src=""images/pattern_1.png"" style=""width: 234px; height: 230px; margin-top: -50px;""><div style=""display: flex; justify-content: space-between; margin-top: 33px;""><img src=""images/choice_trial_1.png"" style=""width: 408px; height: 417px; margin-right: 200px;""><img src=""images/choice_trial_2.png"" style=""width: 408px; height: 417px;""></div></div>","j","delaylearn","learning","trial","593f105f02d1cc0001071a72","tMZzHRsdQyVnQv4Ed0RRp6dkhzn2","1","images/choice_trial_1.png","images/choice_trial_2.png","images/pattern_1.png","f","f","7000","1","2","1","0","28","0","0","2","130","","","","",""
"html-keyboard-response","156","2068710","0.0-65.0-1.0","","null","<div style=""display: flex; flex-direction: column; align-items: center; margin-top: -40px;""><img src=""images/pattern_1.png"" style=""width: 234px; height: 230px; margin-top: -50px;""><div style=""display: flex; justify-content: space-between; margin-top: 33px;""><img src=""images/choice_trial_2.png"" style=""width: 408px; height: 417px; margin-left:608px;""></div></div>","null","delaylearn","learning","display_response","593f105f02d1cc0001071a72","tMZzHRsdQyVnQv4Ed0RRp6dkhzn2","","","","","","","","","","","","","","","","","chosen stimuli: images/choice_trial_2.png","","","",""
"html-keyboard-response","157","2075715","0.0-65.0-2.0","","null","","null","delaylearn","learning","feedback_duration_window","593f105f02d1cc0001071a72","tMZzHRsdQyVnQv4Ed0RRp6dkhzn2","","","","","","","","","","","","","","","","","","7000","","",""
"html-keyboard-response","158","2077224","0.0-65.0-3.0","","null","<div style='margin:auto;width: auto; font-size: 150%'><span style='font-weight: bold; font-size: 100px; color: red;'>0 points!</span><br><br></div>","null","delaylearn","learning","feedback_image_window","593f105f02d1cc0001071a72","tMZzHRsdQyVnQv4Ed0RRp6dkhzn2","","","","","","","","","","","","","","","","","","","","",""
"html-keyboard-response","159","2078795","0.0-66.0","","null","<div style=""font-size:100px;"">+</div>","null","delaylearn","learning","ITI","593f105f02d1cc0001071a72","tMZzHRsdQyVnQv4Ed0RRp6dkhzn2","","","","","","","","","","","","","","","","","","","1565","",""
"html-keyboard-response","160","2080713","0.0-67.0-0.0","","1902.6000000014901","<div style=""display: flex; flex-direction: column; align-items: center; margin-top: -40px;""><img src=""images/pattern_5.png"" style=""width: 234px; height: 230px; margin-top: -50px;""><div style=""display: flex; justify-content: space-between; margin-top: 33px;""><img src=""images/choice_trial_9.png"" style=""width: 408px; height: 417px; margin-right: 200px;""><img src=""images/choice_trial_10.png"" style=""width: 408px; height: 417px;""></div></div>","j","delaylearn","learning","trial","593f105f02d1cc0001071a72","tMZzHRsdQyVnQv4Ed0RRp6dkhzn2","1","images/choice_trial_9.png","images/choice_trial_10.png","images/pattern_5.png","f","f","750","9","10","4","0","29","0","0","10","130","","","","",""
"html-keyboard-response","161","2081726","0.0-67.0-1.0","","null","<div style=""display: flex; flex-direction: column; align-items: center; margin-top: -40px;""><img src=""images/pattern_5.png"" style=""width: 234px; height: 230px; margin-top: -50px;""><div style=""display: flex; justify-content: space-between; margin-top: 33px;""><img src=""images/choice_trial_10.png"" style=""width: 408px; height: 417px; margin-left:608px;""></div></div>","null","delaylearn","learning","display_response","593f105f02d1cc0001071a72","tMZzHRsdQyVnQv4Ed0RRp6dkhzn2","","","","","","","","","","","","","","","","","chosen stimuli: images/choice_trial_10.png","","","",""
"html-keyboard-response","162","2082483","0.0-67.0-2.0","","null","","null","delaylearn","learning","feedback_duration_window","593f105f02d1cc0001071a72","tMZzHRsdQyVnQv4Ed0RRp6dkhzn2","","","","","","","","","","","","","","","","","","750","","",""
"html-keyboard-response","163","2083992","0.0-67.0-3.0","","null","<div style='margin:auto;width: auto; font-size: 150%'><span style='font-weight: bold; font-size: 100px; color: red;'>0 points!</span><br><br></div>","null","delaylearn","learning","feedback_image_window","593f105f02d1cc0001071a72","tMZzHRsdQyVnQv4Ed0RRp6dkhzn2","","","","","","","","","","","","","","","","","","","","",""
"html-keyboard-response","164","2086004","0.0-68.0","","null","<div style=""font-size:100px;"">+</div>","null","delaylearn","learning","ITI","593f105f02d1cc0001071a72","tMZzHRsdQyVnQv4Ed0RRp6dkhzn2","","","","","","","","","","","","","","","","","","","2007","",""
"html-keyboard-response","165","2087477","0.0-69.0-0.0","","1459.300000000745","<div style=""display: flex; flex-direction: column; align-items: center; margin-top: -40px;""><img src=""images/pattern_6.png"" style=""width: 234px; height: 230px; margin-top: -50px;""><div style=""display: flex; justify-content: space-between; margin-top: 33px;""><img src=""images/choice_trial_12.png"" style=""width: 408px; height: 417px; margin-right: 200px;""><img src=""images/choice_trial_11.png"" style=""width: 408px; height: 417px;""></div></div>","j","delaylearn","learning","trial","593f105f02d1cc0001071a72","tMZzHRsdQyVnQv4Ed0RRp6dkhzn2","1","images/choice_trial_12.png","images/choice_trial_11.png","images/pattern_6.png","j","j","750","12","11","5","1","30","1","1","11","140","","","","",""
"html-keyboard-response","166","2088489","0.0-69.0-1.0","","null","<div style=""display: flex; flex-direction: column; align-items: center; margin-top: -40px;""><img src=""images/pattern_6.png"" style=""width: 234px; height: 230px; margin-top: -50px;""><div style=""display: flex; justify-content: space-between; margin-top: 33px;""><img src=""images/choice_trial_11.png"" style=""width: 408px; height: 417px; margin-left:608px;""></div></div>","null","delaylearn","learning","display_response","593f105f02d1cc0001071a72","tMZzHRsdQyVnQv4Ed0RRp6dkhzn2","","","","","","","","","","","","","","","","","chosen stimuli: images/choice_trial_11.png","","","",""
"html-keyboard-response","167","2089246","0.0-69.0-2.0","","null","","null","delaylearn","learning","feedback_duration_window","593f105f02d1cc0001071a72","tMZzHRsdQyVnQv4Ed0RRp6dkhzn2","","","","","","","","","","","","","","","","","","750","","",""
"html-keyboard-response","168","2090755","0.0-69.0-3.0","","null","<div style='margin:auto;width: auto; font-size: 150%'><span style='font-weight: bold; font-size: 100px; color: green;'>+10 points!</span><br><br></div>","null","delaylearn","learning","feedback_image_window","593f105f02d1cc0001071a72","tMZzHRsdQyVnQv4Ed0RRp6dkhzn2","","","","","","","","","","","","","","","","","","","","",""
"html-keyboard-response","169","2091261","0.0-70.0-0.0","","null","","null","","","mood_trial_fixation","","","","","","","","","","","","","","","","","","","","","","",""
"lmdlab-html-vas-response","170","2096019","0.0-70.0-1.0","","3732","How happy are you right now?","0.5169753086419753","delaylearn","learning","mood_trial","593f105f02d1cc0001071a72","tMZzHRsdQyVnQv4Ed0RRp6dkhzn2","","","","","","","","","","","","","","","","","","","","[""Very unhappy"",""Very happy""]",""
"html-keyboard-response","171","2098270","0.0-71.0","","null","<div style=""font-size:100px;"">+</div>","null","delaylearn","learning","ITI","593f105f02d1cc0001071a72","tMZzHRsdQyVnQv4Ed0RRp6dkhzn2","","","","","","","","","","","","","","","","","","","2244","",""
"html-keyboard-response","172","2100183","0.0-72.0-0.0","","1898","<div style=""display: flex; flex-direction: column; align-items: center; margin-top: -40px;""><img src=""images/pattern_4.png"" style=""width: 234px; height: 230px; margin-top: -50px;""><div style=""display: flex; justify-content: space-between; margin-top: 33px;""><img src=""images/choice_trial_8.png"" style=""width: 408px; height: 417px; margin-right: 200px;""><img src=""images/choice_trial_7.png"" style=""width: 408px; height: 417px;""></div></div>","j","delaylearn","learning","trial","593f105f02d1cc0001071a72","tMZzHRsdQyVnQv4Ed0RRp6dkhzn2","1","images/choice_trial_8.png","images/choice_trial_7.png","images/pattern_4.png","j","j","7000","8","7","3","1","31","1","1","7","150","","","","",""
"html-keyboard-response","173","2101197","0.0-72.0-1.0","","null","<div style=""display: flex; flex-direction: column; align-items: center; margin-top: -40px;""><img src=""images/pattern_4.png"" style=""width: 234px; height: 230px; margin-top: -50px;""><div style=""display: flex; justify-content: space-between; margin-top: 33px;""><img src=""images/choice_trial_7.png"" style=""width: 408px; height: 417px; margin-left:608px;""></div></div>","null","delaylearn","learning","display_response","593f105f02d1cc0001071a72","tMZzHRsdQyVnQv4Ed0RRp6dkhzn2","","","","","","","","","","","","","","","","","chosen stimuli: images/choice_trial_7.png","","","",""
"html-keyboard-response","174","2108204","0.0-72.0-2.0","","null","","null","delaylearn","learning","feedback_duration_window","593f105f02d1cc0001071a72","tMZzHRsdQyVnQv4Ed0RRp6dkhzn2","","","","","","","","","","","","","","","","","","7000","","",""
"html-keyboard-response","175","2109717","0.0-72.0-3.0","","null","<div style='margin:auto;width: auto; font-size: 150%'><span style='font-weight: bold; font-size: 100px; color: green;'>+10 points!</span><br><br></div>","null","delaylearn","learning","feedback_image_window","593f105f02d1cc0001071a72","tMZzHRsdQyVnQv4Ed0RRp6dkhzn2","","","","","","","","","","","","","","","","","","","","",""
"html-keyboard-response","176","2111561","0.0-73.0","","null","<div style=""font-size:100px;"">+</div>","null","delaylearn","learning","ITI","593f105f02d1cc0001071a72","tMZzHRsdQyVnQv4Ed0RRp6dkhzn2","","","","","","","","","","","","","","","","","","","1838","",""
"html-keyboard-response","177","2113186","0.0-74.0-0.0","","1599.9000000003725","<div style=""display: flex; flex-direction: column; align-items: center; margin-top: -40px;""><img src=""images/pattern_3.png"" style=""width: 234px; height: 230px; margin-top: -50px;""><div style=""display: flex; justify-content: space-between; margin-top: 33px;""><img src=""images/choice_trial_6.png"" style=""width: 408px; height: 417px; margin-right: 200px;""><img src=""images/choice_trial_5.png"" style=""width: 408px; height: 417px;""></div></div>","f","delaylearn","learning","trial","593f105f02d1cc0001071a72","tMZzHRsdQyVnQv4Ed0RRp6dkhzn2","1","images/choice_trial_6.png","images/choice_trial_5.png","images/pattern_3.png","j","j","7000","6","5","2","1","32","0","0","6","150","","","","",""
"html-keyboard-response","178","2114200","0.0-74.0-1.0","","null","<div style=""display: flex; flex-direction: column; align-items: center; margin-top: -40px;""><img src=""images/pattern_3.png"" style=""width: 234px; height: 230px; margin-top: -50px;""><div style=""display: flex; justify-content: space-between; margin-top: 33px;""><img src=""images/choice_trial_6.png"" style=""width: 408px; height: 417px; margin-right: 608px;""></div></div>","null","delaylearn","learning","display_response","593f105f02d1cc0001071a72","tMZzHRsdQyVnQv4Ed0RRp6dkhzn2","","","","","","","","","","","","","","","","","chosen stimuli: images/choice_trial_6.png","","","",""
"html-keyboard-response","179","2121206","0.0-74.0-2.0","","null","","null","delaylearn","learning","feedback_duration_window","593f105f02d1cc0001071a72","tMZzHRsdQyVnQv4Ed0RRp6dkhzn2","","","","","","","","","","","","","","","","","","7000","","",""
"html-keyboard-response","180","2122714","0.0-74.0-3.0","","null","<div style='margin:auto;width: auto; font-size: 150%'><span style='font-weight: bold; font-size: 100px; color: red;'>0 points!</span><br><br></div>","null","delaylearn","learning","feedback_image_window","593f105f02d1cc0001071a72","tMZzHRsdQyVnQv4Ed0RRp6dkhzn2","","","","","","","","","","","","","","","","","","","","",""
"html-keyboard-response","181","2125019","0.0-75.0","","null","<div style=""font-size:100px;"">+</div>","null","delaylearn","learning","ITI","593f105f02d1cc0001071a72","tMZzHRsdQyVnQv4Ed0RRp6dkhzn2","","","","","","","","","","","","","","","","","","","2298","",""
"html-keyboard-response","182","2127514","0.0-76.0-0.0","","2476.5999999996275","<div style=""display: flex; flex-direction: column; align-items: center; margin-top: -40px;""><img src=""images/pattern_5.png"" style=""width: 234px; height: 230px; margin-top: -50px;""><div style=""display: flex; justify-content: space-between; margin-top: 33px;""><img src=""images/choice_trial_9.png"" style=""width: 408px; height: 417px; margin-right: 200px;""><img src=""images/choice_trial_10.png"" style=""width: 408px; height: 417px;""></div></div>","f","delaylearn","learning","trial","593f105f02d1cc0001071a72","tMZzHRsdQyVnQv4Ed0RRp6dkhzn2","1","images/choice_trial_9.png","images/choice_trial_10.png","images/pattern_5.png","j","f","750","9","10","4","0","33","1","0","9","150","","","","",""
"html-keyboard-response","183","2128525","0.0-76.0-1.0","","null","<div style=""display: flex; flex-direction: column; align-items: center; margin-top: -40px;""><img src=""images/pattern_5.png"" style=""width: 234px; height: 230px; margin-top: -50px;""><div style=""display: flex; justify-content: space-between; margin-top: 33px;""><img src=""images/choice_trial_9.png"" style=""width: 408px; height: 417px; margin-right: 608px;""></div></div>","null","delaylearn","learning","display_response","593f105f02d1cc0001071a72","tMZzHRsdQyVnQv4Ed0RRp6dkhzn2","","","","","","","","","","","","","","","","","chosen stimuli: images/choice_trial_9.png","","","",""
"html-keyboard-response","184","2129282","0.0-76.0-2.0","","null","","null","delaylearn","learning","feedback_duration_window","593f105f02d1cc0001071a72","tMZzHRsdQyVnQv4Ed0RRp6dkhzn2","","","","","","","","","","","","","","","","","","750","","",""
"html-keyboard-response","185","2130791","0.0-76.0-3.0","","null","<div style='margin:auto;width: auto; font-size: 150%'><span style='font-weight: bold; font-size: 100px; color: red;'>0 points!</span><br><br></div>","null","delaylearn","learning","feedback_image_window","593f105f02d1cc0001071a72","tMZzHRsdQyVnQv4Ed0RRp6dkhzn2","","","","","","","","","","","","","","","","","","","","",""
"html-keyboard-response","186","2132767","0.0-77.0","","null","<div style=""font-size:100px;"">+</div>","null","delaylearn","learning","ITI","593f105f02d1cc0001071a72","tMZzHRsdQyVnQv4Ed0RRp6dkhzn2","","","","","","","","","","","","","","","","","","","1970","",""
"html-keyboard-response","187","2134790","0.0-78.0-0.0","","2006.6000000014901","<div style=""display: flex; flex-direction: column; align-items: center; margin-top: -40px;""><img src=""images/pattern_1.png"" style=""width: 234px; height: 230px; margin-top: -50px;""><div style=""display: flex; justify-content: space-between; margin-top: 33px;""><img src=""images/choice_trial_1.png"" style=""width: 408px; height: 417px; margin-right: 200px;""><img src=""images/choice_trial_2.png"" style=""width: 408px; height: 417px;""></div></div>","j","delaylearn","learning","trial","593f105f02d1cc0001071a72","tMZzHRsdQyVnQv4Ed0RRp6dkhzn2","1","images/choice_trial_1.png","images/choice_trial_2.png","images/pattern_1.png","f","f","7000","1","2","1","0","34","0","0","2","150","","","","",""
"html-keyboard-response","188","2135801","0.0-78.0-1.0","","null","<div style=""display: flex; flex-direction: column; align-items: center; margin-top: -40px;""><img src=""images/pattern_1.png"" style=""width: 234px; height: 230px; margin-top: -50px;""><div style=""display: flex; justify-content: space-between; margin-top: 33px;""><img src=""images/choice_trial_2.png"" style=""width: 408px; height: 417px; margin-left:608px;""></div></div>","null","delaylearn","learning","display_response","593f105f02d1cc0001071a72","tMZzHRsdQyVnQv4Ed0RRp6dkhzn2","","","","","","","","","","","","","","","","","chosen stimuli: images/choice_trial_2.png","","","",""
"html-keyboard-response","189","2142808","0.0-78.0-2.0","","null","","null","delaylearn","learning","feedback_duration_window","593f105f02d1cc0001071a72","tMZzHRsdQyVnQv4Ed0RRp6dkhzn2","","","","","","","","","","","","","","","","","","7000","","",""
"html-keyboard-response","190","2144317","0.0-78.0-3.0","","null","<div style='margin:auto;width: auto; font-size: 150%'><span style='font-weight: bold; font-size: 100px; color: red;'>0 points!</span><br><br></div>","null","delaylearn","learning","feedback_image_window","593f105f02d1cc0001071a72","tMZzHRsdQyVnQv4Ed0RRp6dkhzn2","","","","","","","","","","","","","","","","","","","","",""
"html-keyboard-response","191","2144822","0.0-79.0-0.0","","null","","null","","","mood_trial_fixation","","","","","","","","","","","","","","","","","","","","","","",""
"lmdlab-html-vas-response","192","2150301","0.0-79.0-1.0","","4450","How happy are you right now?","0.2762345679012346","delaylearn","learning","mood_trial","593f105f02d1cc0001071a72","tMZzHRsdQyVnQv4Ed0RRp6dkhzn2","","","","","","","","","","","","","","","","","","","","[""Very unhappy"",""Very happy""]",""
"html-keyboard-response","193","2152203","0.0-80.0","","null","<div style=""font-size:100px;"">+</div>","null","delaylearn","learning","ITI","593f105f02d1cc0001071a72","tMZzHRsdQyVnQv4Ed0RRp6dkhzn2","","","","","","","","","","","","","","","","","","","1892","",""
"html-keyboard-response","194","2155220","0.0-81.0-0.0","","null","<div style=""display: flex; flex-direction: column; align-items: center; margin-top: -40px;""><img src=""images/pattern_6.png"" style=""width: 234px; height: 230px; margin-top: -50px;""><div style=""display: flex; justify-content: space-between; margin-top: 33px;""><img src=""images/choice_trial_11.png"" style=""width: 408px; height: 417px; margin-right: 200px;""><img src=""images/choice_trial_12.png"" style=""width: 408px; height: 417px;""></div></div>","null","delaylearn","learning","trial","593f105f02d1cc0001071a72","tMZzHRsdQyVnQv4Ed0RRp6dkhzn2","1","images/choice_trial_11.png","images/choice_trial_12.png","images/pattern_6.png","j","f","750","11","12","5","0","35","0","0","0","150","","","","",""
"html-keyboard-response","195","2156231","0.0-81.0-1.0","","null","<div style='font-weight: bold; font-size: 75px; color: red;'>Missed Trial <br><br><br><br> Please respond faster</div>","null","delaylearn","learning","display_response","593f105f02d1cc0001071a72","tMZzHRsdQyVnQv4Ed0RRp6dkhzn2","","","","","","","","","","","","","","","","","Missed trial","","","",""
"html-keyboard-response","196","2156241","0.0-81.0-2.0","","null","","null","delaylearn","learning","feedback_duration_window","593f105f02d1cc0001071a72","tMZzHRsdQyVnQv4Ed0RRp6dkhzn2","","","","","","","","","","","","","","","","","","0","","",""
"html-keyboard-response","197","2156249","0.0-81.0-3.0","","null","","null","delaylearn","learning","feedback_image_window","593f105f02d1cc0001071a72","tMZzHRsdQyVnQv4Ed0RRp6dkhzn2","","","","","","","","","","","","","","","","","","","","",""
"html-keyboard-response","198","2158612","0.0-82.0","","null","<div style=""font-size:100px;"">+</div>","null","delaylearn","learning","ITI","593f105f02d1cc0001071a72","tMZzHRsdQyVnQv4Ed0RRp6dkhzn2","","","","","","","","","","","","","","","","","","","2358","",""
"html-keyboard-response","199","2159723","0.0-83.0-0.0","","1085.0999999996275","<div style=""display: flex; flex-direction: column; align-items: center; margin-top: -40px;""><img src=""images/pattern_3.png"" style=""width: 234px; height: 230px; margin-top: -50px;""><div style=""display: flex; justify-content: space-between; margin-top: 33px;""><img src=""images/choice_trial_6.png"" style=""width: 408px; height: 417px; margin-right: 200px;""><img src=""images/choice_trial_5.png"" style=""width: 408px; height: 417px;""></div></div>","j","delaylearn","learning","trial","593f105f02d1cc0001071a72","tMZzHRsdQyVnQv4Ed0RRp6dkhzn2","1","images/choice_trial_6.png","images/choice_trial_5.png","images/pattern_3.png","j","j","7000","6","5","2","1","36","1","1","5","160","","","","",""
"html-keyboard-response","200","2160734","0.0-83.0-1.0","","null","<div style=""display: flex; flex-direction: column; align-items: center; margin-top: -40px;""><img src=""images/pattern_3.png"" style=""width: 234px; height: 230px; margin-top: -50px;""><div style=""display: flex; justify-content: space-between; margin-top: 33px;""><img src=""images/choice_trial_5.png"" style=""width: 408px; height: 417px; margin-left:608px;""></div></div>","null","delaylearn","learning","display_response","593f105f02d1cc0001071a72","tMZzHRsdQyVnQv4Ed0RRp6dkhzn2","","","","","","","","","","","","","","","","","chosen stimuli: images/choice_trial_5.png","","","",""
"html-keyboard-response","201","2167740","0.0-83.0-2.0","","null","","null","delaylearn","learning","feedback_duration_window","593f105f02d1cc0001071a72","tMZzHRsdQyVnQv4Ed0RRp6dkhzn2","","","","","","","","","","","","","","","","","","7000","","",""
"html-keyboard-response","202","2169252","0.0-83.0-3.0","","null","<div style='margin:auto;width: auto; font-size: 150%'><span style='font-weight: bold; font-size: 100px; color: green;'>+10 points!</span><br><br></div>","null","delaylearn","learning","feedback_image_window","593f105f02d1cc0001071a72","tMZzHRsdQyVnQv4Ed0RRp6dkhzn2","","","","","","","","","","","","","","","","","","","","",""
"html-keyboard-response","203","2170874","0.0-84.0","","null","<div style=""font-size:100px;"">+</div>","null","delaylearn","learning","ITI","593f105f02d1cc0001071a72","tMZzHRsdQyVnQv4Ed0RRp6dkhzn2","","","","","","","","","","","","","","","","","","","1614","",""
"html-keyboard-response","204","2173056","0.0-85.0-0.0","","2162.800000000745","<div style=""display: flex; flex-direction: column; align-items: center; margin-top: -40px;""><img src=""images/pattern_4.png"" style=""width: 234px; height: 230px; margin-top: -50px;""><div style=""display: flex; justify-content: space-between; margin-top: 33px;""><img src=""images/choice_trial_8.png"" style=""width: 408px; height: 417px; margin-right: 200px;""><img src=""images/choice_trial_7.png"" style=""width: 408px; height: 417px;""></div></div>","j","delaylearn","learning","trial","593f105f02d1cc0001071a72","tMZzHRsdQyVnQv4Ed0RRp6dkhzn2","1","images/choice_trial_8.png","images/choice_trial_7.png","images/pattern_4.png","f","j","7000","8","7","3","1","37","1","0","7","160","","","","",""
"html-keyboard-response","205","2174067","0.0-85.0-1.0","","null","<div style=""display: flex; flex-direction: column; align-items: center; margin-top: -40px;""><img src=""images/pattern_4.png"" style=""width: 234px; height: 230px; margin-top: -50px;""><div style=""display: flex; justify-content: space-between; margin-top: 33px;""><img src=""images/choice_trial_7.png"" style=""width: 408px; height: 417px; margin-left:608px;""></div></div>","null","delaylearn","learning","display_response","593f105f02d1cc0001071a72","tMZzHRsdQyVnQv4Ed0RRp6dkhzn2","","","","","","","","","","","","","","","","","chosen stimuli: images/choice_trial_7.png","","","",""
"html-keyboard-response","206","2181074","0.0-85.0-2.0","","null","","null","delaylearn","learning","feedback_duration_window","593f105f02d1cc0001071a72","tMZzHRsdQyVnQv4Ed0RRp6dkhzn2","","","","","","","","","","","","","","","","","","7000","","",""
"html-keyboard-response","207","2182584","0.0-85.0-3.0","","null","<div style='margin:auto;width: auto; font-size: 150%'><span style='font-weight: bold; font-size: 100px; color: red;'>0 points!</span><br><br></div>","null","delaylearn","learning","feedback_image_window","593f105f02d1cc0001071a72","tMZzHRsdQyVnQv4Ed0RRp6dkhzn2","","","","","","","","","","","","","","","","","","","","",""
"html-keyboard-response","208","2184597","0.0-86.0","","null","<div style=""font-size:100px;"">+</div>","null","delaylearn","learning","ITI","593f105f02d1cc0001071a72","tMZzHRsdQyVnQv4Ed0RRp6dkhzn2","","","","","","","","","","","","","","","","","","","2007","",""
"html-keyboard-response","209","2186583","0.0-87.0-0.0","","1969.5999999996275","<div style=""display: flex; flex-direction: column; align-items: center; margin-top: -40px;""><img src=""images/pattern_7.png"" style=""width: 234px; height: 230px; margin-top: -50px;""><div style=""display: flex; justify-content: space-between; margin-top: 33px;""><img src=""images/choice_trial_13.png"" style=""width: 408px; height: 417px; margin-right: 200px;""><img src=""images/choice_trial_14.png"" style=""width: 408px; height: 417px;""></div></div>","j","delaylearn","learning","trial","593f105f02d1cc0001071a72","tMZzHRsdQyVnQv4Ed0RRp6dkhzn2","1","images/choice_trial_13.png","images/choice_trial_14.png","images/pattern_7.png","f","f","750","13","14","6","0","38","0","0","14","160","","","","",""
"html-keyboard-response","210","2187597","0.0-87.0-1.0","","null","<div style=""display: flex; flex-direction: column; align-items: center; margin-top: -40px;""><img src=""images/pattern_7.png"" style=""width: 234px; height: 230px; margin-top: -50px;""><div style=""display: flex; justify-content: space-between; margin-top: 33px;""><img src=""images/choice_trial_14.png"" style=""width: 408px; height: 417px; margin-left:608px;""></div></div>","null","delaylearn","learning","display_response","593f105f02d1cc0001071a72","tMZzHRsdQyVnQv4Ed0RRp6dkhzn2","","","","","","","","","","","","","","","","","chosen stimuli: images/choice_trial_14.png","","","",""
"html-keyboard-response","211","2188356","0.0-87.0-2.0","","null","","null","delaylearn","learning","feedback_duration_window","593f105f02d1cc0001071a72","tMZzHRsdQyVnQv4Ed0RRp6dkhzn2","","","","","","","","","","","","","","","","","","750","","",""
"html-keyboard-response","212","2189867","0.0-87.0-3.0","","null","<div style='margin:auto;width: auto; font-size: 150%'><span style='font-weight: bold; font-size: 100px; color: red;'>0 points!</span><br><br></div>","null","delaylearn","learning","feedback_image_window","593f105f02d1cc0001071a72","tMZzHRsdQyVnQv4Ed0RRp6dkhzn2","","","","","","","","","","","","","","","","","","","","",""
"html-keyboard-response","213","2192083","0.0-88.0","","null","<div style=""font-size:100px;"">+</div>","null","delaylearn","learning","ITI","593f105f02d1cc0001071a72","tMZzHRsdQyVnQv4Ed0RRp6dkhzn2","","","","","","","","","","","","","","","","","","","2209","",""
"html-keyboard-response","214","2193951","0.0-89.0-0.0","","1848.7000000011176","<div style=""display: flex; flex-direction: column; align-items: center; margin-top: -40px;""><img src=""images/pattern_1.png"" style=""width: 234px; height: 230px; margin-top: -50px;""><div style=""display: flex; justify-content: space-between; margin-top: 33px;""><img src=""images/choice_trial_1.png"" style=""width: 408px; height: 417px; margin-right: 200px;""><img src=""images/choice_trial_2.png"" style=""width: 408px; height: 417px;""></div></div>","j","delaylearn","learning","trial","593f105f02d1cc0001071a72","tMZzHRsdQyVnQv4Ed0RRp6dkhzn2","1","images/choice_trial_1.png","images/choice_trial_2.png","images/pattern_1.png","f","f","7000","1","2","1","0","39","0","0","2","160","","","","",""
"html-keyboard-response","215","2194966","0.0-89.0-1.0","","null","<div style=""display: flex; flex-direction: column; align-items: center; margin-top: -40px;""><img src=""images/pattern_1.png"" style=""width: 234px; height: 230px; margin-top: -50px;""><div style=""display: flex; justify-content: space-between; margin-top: 33px;""><img src=""images/choice_trial_2.png"" style=""width: 408px; height: 417px; margin-left:608px;""></div></div>","null","delaylearn","learning","display_response","593f105f02d1cc0001071a72","tMZzHRsdQyVnQv4Ed0RRp6dkhzn2","","","","","","","","","","","","","","","","","chosen stimuli: images/choice_trial_2.png","","","",""
"html-keyboard-response","216","2201973","0.0-89.0-2.0","","null","","null","delaylearn","learning","feedback_duration_window","593f105f02d1cc0001071a72","tMZzHRsdQyVnQv4Ed0RRp6dkhzn2","","","","","","","","","","","","","","","","","","7000","","",""
"html-keyboard-response","217","2203485","0.0-89.0-3.0","","null","<div style='margin:auto;width: auto; font-size: 150%'><span style='font-weight: bold; font-size: 100px; color: red;'>0 points!</span><br><br></div>","null","delaylearn","learning","feedback_image_window","593f105f02d1cc0001071a72","tMZzHRsdQyVnQv4Ed0RRp6dkhzn2","","","","","","","","","","","","","","","","","","","","",""
"html-keyboard-response","218","2203991","0.0-90.0-0.0","","null","","null","","","mood_trial_fixation","","","","","","","","","","","","","","","","","","","","","","",""
"lmdlab-html-vas-response","219","2228029","0.0-90.0-1.0","","null","How happy are you right now?","","delaylearn","learning","mood_trial","593f105f02d1cc0001071a72","tMZzHRsdQyVnQv4Ed0RRp6dkhzn2","","","","","","","","","","","","","","","","","","","","[""Very unhappy"",""Very happy""]",""
"html-keyboard-response","220","2229825","0.0-91.0","","null","<div style=""font-size:100px;"">+</div>","null","delaylearn","learning","ITI","593f105f02d1cc0001071a72","tMZzHRsdQyVnQv4Ed0RRp6dkhzn2","","","","","","","","","","","","","","","","","","","1780","",""
"html-keyboard-response","221","2231480","0.0-92.0-0.0","","1631","<div style=""display: flex; flex-direction: column; align-items: center; margin-top: -40px;""><img src=""images/pattern_3.png"" style=""width: 234px; height: 230px; margin-top: -50px;""><div style=""display: flex; justify-content: space-between; margin-top: 33px;""><img src=""images/choice_trial_5.png"" style=""width: 408px; height: 417px; margin-right: 200px;""><img src=""images/choice_trial_6.png"" style=""width: 408px; height: 417px;""></div></div>","f","delaylearn","learning","trial","593f105f02d1cc0001071a72","tMZzHRsdQyVnQv4Ed0RRp6dkhzn2","1","images/choice_trial_5.png","images/choice_trial_6.png","images/pattern_3.png","j","f","7000","5","6","2","0","40","1","0","5","160","","","","",""
"html-keyboard-response","222","2232491","0.0-92.0-1.0","","null","<div style=""display: flex; flex-direction: column; align-items: center; margin-top: -40px;""><img src=""images/pattern_3.png"" style=""width: 234px; height: 230px; margin-top: -50px;""><div style=""display: flex; justify-content: space-between; margin-top: 33px;""><img src=""images/choice_trial_5.png"" style=""width: 408px; height: 417px; margin-right: 608px;""></div></div>","null","delaylearn","learning","display_response","593f105f02d1cc0001071a72","tMZzHRsdQyVnQv4Ed0RRp6dkhzn2","","","","","","","","","","","","","","","","","chosen stimuli: images/choice_trial_5.png","","","",""
