"trial_type","trial_index","time_elapsed","internal_node_id","participant","rt","stimulus","response","exp_name","exp_stage","test_part","subjectID","databaseID","counterbal","choice_stimuli_1","choice_stimuli_2","pattern_stimuli","rewarded_answer","correct_answer","feedback_duration_times","stim_left","stim_right","pair","leftright_counter","trial","response_correct","response_rewarded","chosen_stim","counter","displayed_choice","feedback_durations","ITI_duration","labels","rest_warning"
"pavlovia","0","504","0.0-0.0","","","","","","","","","","","","","","","","","","","","","","","","","","","","","",""
"html-keyboard-response","1","3520","0.0-1.0","","null","<div style=""font-size:100px;"">+</div>","null","delaylearn","learning","pre_fixation","65ff408b32980a820b6742c7","","","","","","","","","","","","","","","","","","","","","",""
"html-keyboard-response","2","4499","0.0-2.0-0.0","","978","<div style=""display: flex; flex-direction: column; align-items: center; margin-top: -40px;""><img src=""images/demo_images/pattern_1.png"" style=""width: 234px; height: 230px; margin-top: -50px;""><div style=""display: flex; justify-content: space-between; margin-top: 33px;""><img src=""images/demo_images/choice_trial_2.png"" style=""width: 408px; height: 417px; margin-right: 200px;""><img src=""images/demo_images/choice_trial_1.png"" style=""width: 408px; height: 417px;""></div></div>","f","delaylearn","learning","trial","65ff408b32980a820b6742c7","fZUVT5F1DIPXd0MSpuiiBTjg2BG3","1","images/demo_images/choice_trial_2.png","images/demo_images/choice_trial_1.png","images/demo_images/pattern_1.png","j","j","3000","2","1","20","1","1","0","0","2","0","","","","",""
"html-keyboard-response","3","5512","0.0-2.0-1.0","","null","<div style=""display: flex; flex-direction: column; align-items: center; margin-top: -40px;""><img src=""images/demo_images/pattern_1.png"" style=""width: 234px; height: 230px; margin-top: -50px;""><div style=""display: flex; justify-content: space-between; margin-top: 33px;""><img src=""images/demo_images/choice_trial_2.png"" style=""width: 408px; height: 417px; margin-right: 608px;""></div></div>","null","delaylearn","learning","display_response","65ff408b32980a820b6742c7","fZUVT5F1DIPXd0MSpuiiBTjg2BG3","","","","","","","","","","","","","","","","","chosen stimuli: images/demo_images/choice_trial_2.png","","","",""
"html-keyboard-response","4","8520","0.0-2.0-2.0","","null","","null","delaylearn","learning","feedback_duration_window","65ff408b32980a820b6742c7","fZUVT5F1DIPXd0MSpuiiBTjg2BG3","","","","","","","","","","","","","","","","","","3000","","",""
"html-keyboard-response","5","10034","0.0-2.0-3.0","","null","<div style='margin:auto;width: auto; font-size: 150%'><span style='font-weight: bold; font-size: 100px; color: red;'>0 points!</span><br><br></div>","null","delaylearn","learning","feedback_image_window","65ff408b32980a820b6742c7","fZUVT5F1DIPXd0MSpuiiBTjg2BG3","","","","","","","","","","","","","","","","","","","","",""
"html-keyboard-response","6","11579","0.0-3.0","","null","<div style=""font-size:100px;"">+</div>","null","delaylearn","learning","ITI","65ff408b32980a820b6742c7","fZUVT5F1DIPXd0MSpuiiBTjg2BG3","","","","","","","","","","","","","","","","","","","1542","",""
"html-keyboard-response","7","13508","0.0-4.0-0.0","","1927","<div style=""display: flex; flex-direction: column; align-items: center; margin-top: -40px;""><img src=""images/demo_images/pattern_1.png"" style=""width: 234px; height: 230px; margin-top: -50px;""><div style=""display: flex; justify-content: space-between; margin-top: 33px;""><img src=""images/demo_images/choice_trial_2.png"" style=""width: 408px; height: 417px; margin-right: 200px;""><img src=""images/demo_images/choice_trial_1.png"" style=""width: 408px; height: 417px;""></div></div>","f","delaylearn","learning","trial","65ff408b32980a820b6742c7","fZUVT5F1DIPXd0MSpuiiBTjg2BG3","1","images/demo_images/choice_trial_2.png","images/demo_images/choice_trial_1.png","images/demo_images/pattern_1.png","j","j","3000","2","1","20","1","2","0","0","2","0","","","","",""
"html-keyboard-response","8","14514","0.0-4.0-1.0","","null","<div style=""display: flex; flex-direction: column; align-items: center; margin-top: -40px;""><img src=""images/demo_images/pattern_1.png"" style=""width: 234px; height: 230px; margin-top: -50px;""><div style=""display: flex; justify-content: space-between; margin-top: 33px;""><img src=""images/demo_images/choice_trial_2.png"" style=""width: 408px; height: 417px; margin-right: 608px;""></div></div>","null","delaylearn","learning","display_response","65ff408b32980a820b6742c7","fZUVT5F1DIPXd0MSpuiiBTjg2BG3","","","","","","","","","","","","","","","","","chosen stimuli: images/demo_images/choice_trial_2.png","","","",""
"html-keyboard-response","9","17523","0.0-4.0-2.0","","null","","null","delaylearn","learning","feedback_duration_window","65ff408b32980a820b6742c7","fZUVT5F1DIPXd0MSpuiiBTjg2BG3","","","","","","","","","","","","","","","","","","3000","","",""
"html-keyboard-response","10","19036","0.0-4.0-3.0","","null","<div style='margin:auto;width: auto; font-size: 150%'><span style='font-weight: bold; font-size: 100px; color: red;'>0 points!</span><br><br></div>","null","delaylearn","learning","feedback_image_window","65ff408b32980a820b6742c7","fZUVT5F1DIPXd0MSpuiiBTjg2BG3","","","","","","","","","","","","","","","","","","","","",""
"html-keyboard-response","11","20653","0.0-5.0","","null","<div style=""font-size:100px;"">+</div>","null","delaylearn","learning","ITI","65ff408b32980a820b6742c7","fZUVT5F1DIPXd0MSpuiiBTjg2BG3","","","","","","","","","","","","","","","","","","","1616","",""
"html-keyboard-response","12","21520","0.0-6.0-0.0","","866","<div style=""display: flex; flex-direction: column; align-items: center; margin-top: -40px;""><img src=""images/demo_images/pattern_1.png"" style=""width: 234px; height: 230px; margin-top: -50px;""><div style=""display: flex; justify-content: space-between; margin-top: 33px;""><img src=""images/demo_images/choice_trial_1.png"" style=""width: 408px; height: 417px; margin-right: 200px;""><img src=""images/demo_images/choice_trial_2.png"" style=""width: 408px; height: 417px;""></div></div>","f","delaylearn","learning","trial","65ff408b32980a820b6742c7","fZUVT5F1DIPXd0MSpuiiBTjg2BG3","1","images/demo_images/choice_trial_1.png","images/demo_images/choice_trial_2.png","images/demo_images/pattern_1.png","j","f","3000","1","2","20","0","3","1","0","1","0","","","","",""
"html-keyboard-response","13","22522","0.0-6.0-1.0","","null","<div style=""display: flex; flex-direction: column; align-items: center; margin-top: -40px;""><img src=""images/demo_images/pattern_1.png"" style=""width: 234px; height: 230px; margin-top: -50px;""><div style=""display: flex; justify-content: space-between; margin-top: 33px;""><img src=""images/demo_images/choice_trial_1.png"" style=""width: 408px; height: 417px; margin-right: 608px;""></div></div>","null","delaylearn","learning","display_response","65ff408b32980a820b6742c7","fZUVT5F1DIPXd0MSpuiiBTjg2BG3","","","","","","","","","","","","","","","","","chosen stimuli: images/demo_images/choice_trial_1.png","","","",""
"html-keyboard-response","14","25528","0.0-6.0-2.0","","null","","null","delaylearn","learning","feedback_duration_window","65ff408b32980a820b6742c7","fZUVT5F1DIPXd0MSpuiiBTjg2BG3","","","","","","","","","","","","","","","","","","3000","","",""
"html-keyboard-response","15","27041","0.0-6.0-3.0","","null","<div style='margin:auto;width: auto; font-size: 150%'><span style='font-weight: bold; font-size: 100px; color: red;'>0 points!</span><br><br></div>","null","delaylearn","learning","feedback_image_window","65ff408b32980a820b6742c7","fZUVT5F1DIPXd0MSpuiiBTjg2BG3","","","","","","","","","","","","","","","","","","","","",""
"html-keyboard-response","16","28705","0.0-7.0","","null","<div style=""font-size:100px;"">+</div>","null","delaylearn","learning","ITI","65ff408b32980a820b6742c7","fZUVT5F1DIPXd0MSpuiiBTjg2BG3","","","","","","","","","","","","","","","","","","","1656","",""
"html-keyboard-response","17","31713","0.0-8.0-0.0","","null","<div style=""display: flex; flex-direction: column; align-items: center; margin-top: -40px;""><img src=""images/demo_images/pattern_1.png"" style=""width: 234px; height: 230px; margin-top: -50px;""><div style=""display: flex; justify-content: space-between; margin-top: 33px;""><img src=""images/demo_images/choice_trial_1.png"" style=""width: 408px; height: 417px; margin-right: 200px;""><img src=""images/demo_images/choice_trial_2.png"" style=""width: 408px; height: 417px;""></div></div>","null","delaylearn","learning","trial","65ff408b32980a820b6742c7","fZUVT5F1DIPXd0MSpuiiBTjg2BG3","1","images/demo_images/choice_trial_1.png","images/demo_images/choice_trial_2.png","images/demo_images/pattern_1.png","f","f","3000","1","2","20","0","4","0","0","0","0","","","","",""
"html-keyboard-response","18","32716","0.0-8.0-1.0","","null","<div style='font-weight: bold; font-size: 75px; color: red;'>Missed Trial <br><br><br><br> Please respond faster</div>","null","delaylearn","learning","display_response","65ff408b32980a820b6742c7","fZUVT5F1DIPXd0MSpuiiBTjg2BG3","","","","","","","","","","","","","","","","","Missed trial","","","",""
"html-keyboard-response","19","32732","0.0-8.0-2.0","","null","","null","delaylearn","learning","feedback_duration_window","65ff408b32980a820b6742c7","fZUVT5F1DIPXd0MSpuiiBTjg2BG3","","","","","","","","","","","","","","","","","","0","","",""
"html-keyboard-response","20","32747","0.0-8.0-3.0","","null","","null","delaylearn","learning","feedback_image_window","65ff408b32980a820b6742c7","fZUVT5F1DIPXd0MSpuiiBTjg2BG3","","","","","","","","","","","","","","","","","","","","",""
"html-keyboard-response","21","33257","0.0-9.0-0.0","","null","","null","","","mood_trial_fixation","","","","","","","","","","","","","","","","","","","","","","",""
"lmdlab-html-vas-response","22","39490","0.0-9.0-1.0","","5229","How happy are you right now?","0.41975308641975306","delaylearn","learning","mood_trial","65ff408b32980a820b6742c7","fZUVT5F1DIPXd0MSpuiiBTjg2BG3","","","","","","","","","","","","","","","","","","","","[""Very unhappy"",""Very happy""]",""
"html-keyboard-response","23","41868","0.0-10.0","","null","<div style=""font-size:100px;"">+</div>","null","delaylearn","learning","ITI","65ff408b32980a820b6742c7","fZUVT5F1DIPXd0MSpuiiBTjg2BG3","","","","","","","","","","","","","","","","","","","2369","",""
"html-keyboard-response","24","42538","0.0-11.0-0.0","","669","<div style=""display: flex; flex-direction: column; align-items: center; margin-top: -40px;""><img src=""images/demo_images/pattern_1.png"" style=""width: 234px; height: 230px; margin-top: -50px;""><div style=""display: flex; justify-content: space-between; margin-top: 33px;""><img src=""images/demo_images/choice_trial_2.png"" style=""width: 408px; height: 417px; margin-right: 200px;""><img src=""images/demo_images/choice_trial_1.png"" style=""width: 408px; height: 417px;""></div></div>","j","delaylearn","learning","trial","65ff408b32980a820b6742c7","fZUVT5F1DIPXd0MSpuiiBTjg2BG3","1","images/demo_images/choice_trial_2.png","images/demo_images/choice_trial_1.png","images/demo_images/pattern_1.png","j","j","3000","2","1","20","1","5","1","1","1","10","","","","",""
"html-keyboard-response","25","43549","0.0-11.0-1.0","","null","<div style=""display: flex; flex-direction: column; align-items: center; margin-top: -40px;""><img src=""images/demo_images/pattern_1.png"" style=""width: 234px; height: 230px; margin-top: -50px;""><div style=""display: flex; justify-content: space-between; margin-top: 33px;""><img src=""images/demo_images/choice_trial_1.png"" style=""width: 408px; height: 417px; margin-left:608px;""></div></div>","null","delaylearn","learning","display_response","65ff408b32980a820b6742c7","fZUVT5F1DIPXd0MSpuiiBTjg2BG3","","","","","","","","","","","","","","","","","chosen stimuli: images/demo_images/choice_trial_1.png","","","",""
"html-keyboard-response","26","46563","0.0-11.0-2.0","","null","","null","delaylearn","learning","feedback_duration_window","65ff408b32980a820b6742c7","fZUVT5F1DIPXd0MSpuiiBTjg2BG3","","","","","","","","","","","","","","","","","","3000","","",""
"html-keyboard-response","27","48078","0.0-11.0-3.0","","null","<div style='margin:auto;width: auto; font-size: 150%'><span style='font-weight: bold; font-size: 100px; color: green;'>+10 points!</span><br><br></div>","null","delaylearn","learning","feedback_image_window","65ff408b32980a820b6742c7","fZUVT5F1DIPXd0MSpuiiBTjg2BG3","","","","","","","","","","","","","","","","","","","","",""
"html-keyboard-response","28","50361","0.0-12.0","","null","<div style=""font-size:100px;"">+</div>","null","delaylearn","learning","ITI","65ff408b32980a820b6742c7","fZUVT5F1DIPXd0MSpuiiBTjg2BG3","","","","","","","","","","","","","","","","","","","2271","",""
"html-keyboard-response","29","52556","0.0-13.0-0.0","","2193","<div style=""display: flex; flex-direction: column; align-items: center; margin-top: -40px;""><img src=""images/demo_images/pattern_1.png"" style=""width: 234px; height: 230px; margin-top: -50px;""><div style=""display: flex; justify-content: space-between; margin-top: 33px;""><img src=""images/demo_images/choice_trial_1.png"" style=""width: 408px; height: 417px; margin-right: 200px;""><img src=""images/demo_images/choice_trial_2.png"" style=""width: 408px; height: 417px;""></div></div>","f","delaylearn","learning","trial","65ff408b32980a820b6742c7","fZUVT5F1DIPXd0MSpuiiBTjg2BG3","1","images/demo_images/choice_trial_1.png","images/demo_images/choice_trial_2.png","images/demo_images/pattern_1.png","f","f","3000","1","2","20","0","6","1","1","1","20","","","","",""
"html-keyboard-response","30","53572","0.0-13.0-1.0","","null","<div style=""display: flex; flex-direction: column; align-items: center; margin-top: -40px;""><img src=""images/demo_images/pattern_1.png"" style=""width: 234px; height: 230px; margin-top: -50px;""><div style=""display: flex; justify-content: space-between; margin-top: 33px;""><img src=""images/demo_images/choice_trial_1.png"" style=""width: 408px; height: 417px; margin-right: 608px;""></div></div>","null","delaylearn","learning","display_response","65ff408b32980a820b6742c7","fZUVT5F1DIPXd0MSpuiiBTjg2BG3","","","","","","","","","","","","","","","","","chosen stimuli: images/demo_images/choice_trial_1.png","","","",""
"html-keyboard-response","31","56598","0.0-13.0-2.0","","null","","null","delaylearn","learning","feedback_duration_window","65ff408b32980a820b6742c7","fZUVT5F1DIPXd0MSpuiiBTjg2BG3","","","","","","","","","","","","","","","","","","3000","","",""
"html-keyboard-response","32","58111","0.0-13.0-3.0","","null","<div style='margin:auto;width: auto; font-size: 150%'><span style='font-weight: bold; font-size: 100px; color: green;'>+10 points!</span><br><br></div>","null","delaylearn","learning","feedback_image_window","65ff408b32980a820b6742c7","fZUVT5F1DIPXd0MSpuiiBTjg2BG3","","","","","","","","","","","","","","","","","","","","",""
"html-keyboard-response","33","60168","0.0-14.0","","null","<div style=""font-size:100px;"">+</div>","null","delaylearn","learning","ITI","65ff408b32980a820b6742c7","fZUVT5F1DIPXd0MSpuiiBTjg2BG3","","","","","","","","","","","","","","","","","","","2041","",""
"html-keyboard-response","34","60654","0.0-15.0-0.0","","485","<div style=""display: flex; flex-direction: column; align-items: center; margin-top: -40px;""><img src=""images/demo_images/pattern_1.png"" style=""width: 234px; height: 230px; margin-top: -50px;""><div style=""display: flex; justify-content: space-between; margin-top: 33px;""><img src=""images/demo_images/choice_trial_2.png"" style=""width: 408px; height: 417px; margin-right: 200px;""><img src=""images/demo_images/choice_trial_1.png"" style=""width: 408px; height: 417px;""></div></div>","j","delaylearn","learning","trial","65ff408b32980a820b6742c7","fZUVT5F1DIPXd0MSpuiiBTjg2BG3","1","images/demo_images/choice_trial_2.png","images/demo_images/choice_trial_1.png","images/demo_images/pattern_1.png","j","j","3000","2","1","20","1","7","1","1","1","30","","","","",""
"html-keyboard-response","35","61667","0.0-15.0-1.0","","null","<div style=""display: flex; flex-direction: column; align-items: center; margin-top: -40px;""><img src=""images/demo_images/pattern_1.png"" style=""width: 234px; height: 230px; margin-top: -50px;""><div style=""display: flex; justify-content: space-between; margin-top: 33px;""><img src=""images/demo_images/choice_trial_1.png"" style=""width: 408px; height: 417px; margin-left:608px;""></div></div>","null","delaylearn","learning","display_response","65ff408b32980a820b6742c7","fZUVT5F1DIPXd0MSpuiiBTjg2BG3","","","","","","","","","","","","","","","","","chosen stimuli: images/demo_images/choice_trial_1.png","","","",""
"html-keyboard-response","36","64680","0.0-15.0-2.0","","null","","null","delaylearn","learning","feedback_duration_window","65ff408b32980a820b6742c7","fZUVT5F1DIPXd0MSpuiiBTjg2BG3","","","","","","","","","","","","","","","","","","3000","","",""
"html-keyboard-response","37","66192","0.0-15.0-3.0","","null","<div style='margin:auto;width: auto; font-size: 150%'><span style='font-weight: bold; font-size: 100px; color: green;'>+10 points!</span><br><br></div>","null","delaylearn","learning","feedback_image_window","65ff408b32980a820b6742c7","fZUVT5F1DIPXd0MSpuiiBTjg2BG3","","","","","","","","","","","","","","","","","","","","",""
"html-keyboard-response","38","68369","0.0-16.0","","null","<div style=""font-size:100px;"">+</div>","null","delaylearn","learning","ITI","65ff408b32980a820b6742c7","fZUVT5F1DIPXd0MSpuiiBTjg2BG3","","","","","","","","","","","","","","","","","","","2168","",""
"html-keyboard-response","39","68864","0.0-17.0-0.0","","495","<div style=""display: flex; flex-direction: column; align-items: center; margin-top: -40px;""><img src=""images/demo_images/pattern_1.png"" style=""width: 234px; height: 230px; margin-top: -50px;""><div style=""display: flex; justify-content: space-between; margin-top: 33px;""><img src=""images/demo_images/choice_trial_1.png"" style=""width: 408px; height: 417px; margin-right: 200px;""><img src=""images/demo_images/choice_trial_2.png"" style=""width: 408px; height: 417px;""></div></div>","f","delaylearn","learning","trial","65ff408b32980a820b6742c7","fZUVT5F1DIPXd0MSpuiiBTjg2BG3","1","images/demo_images/choice_trial_1.png","images/demo_images/choice_trial_2.png","images/demo_images/pattern_1.png","f","f","3000","1","2","20","0","8","1","1","1","40","","","","",""
"html-keyboard-response","40","69866","0.0-17.0-1.0","","null","<div style=""display: flex; flex-direction: column; align-items: center; margin-top: -40px;""><img src=""images/demo_images/pattern_1.png"" style=""width: 234px; height: 230px; margin-top: -50px;""><div style=""display: flex; justify-content: space-between; margin-top: 33px;""><img src=""images/demo_images/choice_trial_1.png"" style=""width: 408px; height: 417px; margin-right: 608px;""></div></div>","null","delaylearn","learning","display_response","65ff408b32980a820b6742c7","fZUVT5F1DIPXd0MSpuiiBTjg2BG3","","","","","","","","","","","","","","","","","chosen stimuli: images/demo_images/choice_trial_1.png","","","",""
"html-keyboard-response","41","72878","0.0-17.0-2.0","","null","","null","delaylearn","learning","feedback_duration_window","65ff408b32980a820b6742c7","fZUVT5F1DIPXd0MSpuiiBTjg2BG3","","","","","","","","","","","","","","","","","","3000","","",""
"html-keyboard-response","42","74389","0.0-17.0-3.0","","null","<div style='margin:auto;width: auto; font-size: 150%'><span style='font-weight: bold; font-size: 100px; color: green;'>+10 points!</span><br><br></div>","null","delaylearn","learning","feedback_image_window","65ff408b32980a820b6742c7","fZUVT5F1DIPXd0MSpuiiBTjg2BG3","","","","","","","","","","","","","","","","","","","","",""
"html-button-response","43","77462","0.0-18.0","","3072","
  <div style=""display: flex; align-items: center; justify-content: center; height: 80vh;"">
  <div>
          <img src=""images/inst_demo_finish.png"" style=""width: 80vw; height:auto;"">
          <br><br>
      </div>
      <br><br>
  </div>","0","","","","","","","","","","","","","","","","","","","","","","","","","",""
"html-keyboard-response","44","107377","0.0-19.0","","29914","
  <div style=""display: flex; align-items: center; justify-content: center; height: 80vh;"">
  <div>
          <img src=""images/inst_6.png"" style=""width: 80vw; height:auto;"">
          <br><br>
      </div>
      <br><br>
  </div>","f","","","","","","","","","","","","","","","","","","","","","","","","","",""
"html-keyboard-response","45","110384","0.0-20.0","","null","<div style=""font-size:100px;"">+</div>","null","delaylearn","learning","pre_fixation","65ff408b32980a820b6742c7","","","","","","","","","","","","","","","","","","","","","",""
"html-keyboard-response","46","111989","0.0-21.0","","null","<div style=""font-size:100px;"">+</div>","null","delaylearn","learning","ITI","65ff408b32980a820b6742c7","fZUVT5F1DIPXd0MSpuiiBTjg2BG3","","","","","","","","","","","","","","","","","","","1594","",""
"html-keyboard-response","47","113140","0.0-22.0-0.0","","1150","<div style=""display: flex; flex-direction: column; align-items: center; margin-top: -40px;""><img src=""images/pattern_3.png"" style=""width: 234px; height: 230px; margin-top: -50px;""><div style=""display: flex; justify-content: space-between; margin-top: 33px;""><img src=""images/choice_trial_5.png"" style=""width: 408px; height: 417px; margin-right: 200px;""><img src=""images/choice_trial_6.png"" style=""width: 408px; height: 417px;""></div></div>","j","delaylearn","learning","trial","65ff408b32980a820b6742c7","fZUVT5F1DIPXd0MSpuiiBTjg2BG3","1","images/choice_trial_5.png","images/choice_trial_6.png","images/pattern_3.png","f","f","7000","5","6","2","0","9","0","0","6","40","","","","",""
"html-keyboard-response","48","114151","0.0-22.0-1.0","","null","<div style=""display: flex; flex-direction: column; align-items: center; margin-top: -40px;""><img src=""images/pattern_3.png"" style=""width: 234px; height: 230px; margin-top: -50px;""><div style=""display: flex; justify-content: space-between; margin-top: 33px;""><img src=""images/choice_trial_6.png"" style=""width: 408px; height: 417px; margin-left:608px;""></div></div>","null","delaylearn","learning","display_response","65ff408b32980a820b6742c7","fZUVT5F1DIPXd0MSpuiiBTjg2BG3","","","","","","","","","","","","","","","","","chosen stimuli: images/choice_trial_6.png","","","",""
"html-keyboard-response","49","121154","0.0-22.0-2.0","","null","","null","delaylearn","learning","feedback_duration_window","65ff408b32980a820b6742c7","fZUVT5F1DIPXd0MSpuiiBTjg2BG3","","","","","","","","","","","","","","","","","","7000","","",""
"html-keyboard-response","50","122663","0.0-22.0-3.0","","null","<div style='margin:auto;width: auto; font-size: 150%'><span style='font-weight: bold; font-size: 100px; color: red;'>0 points!</span><br><br></div>","null","delaylearn","learning","feedback_image_window","65ff408b32980a820b6742c7","fZUVT5F1DIPXd0MSpuiiBTjg2BG3","","","","","","","","","","","","","","","","","","","","",""
"html-keyboard-response","51","124948","0.0-23.0","","null","<div style=""font-size:100px;"">+</div>","null","delaylearn","learning","ITI","65ff408b32980a820b6742c7","fZUVT5F1DIPXd0MSpuiiBTjg2BG3","","","","","","","","","","","","","","","","","","","2279","",""
"html-keyboard-response","52","126598","0.0-24.0-0.0","","1648","<div style=""display: flex; flex-direction: column; align-items: center; margin-top: -40px;""><img src=""images/pattern_7.png"" style=""width: 234px; height: 230px; margin-top: -50px;""><div style=""display: flex; justify-content: space-between; margin-top: 33px;""><img src=""images/choice_trial_14.png"" style=""width: 408px; height: 417px; margin-right: 200px;""><img src=""images/choice_trial_13.png"" style=""width: 408px; height: 417px;""></div></div>","j","delaylearn","learning","trial","65ff408b32980a820b6742c7","fZUVT5F1DIPXd0MSpuiiBTjg2BG3","1","images/choice_trial_14.png","images/choice_trial_13.png","images/pattern_7.png","j","j","750","14","13","6","1","10","1","1","13","50","","","","",""
"html-keyboard-response","53","127604","0.0-24.0-1.0","","null","<div style=""display: flex; flex-direction: column; align-items: center; margin-top: -40px;""><img src=""images/pattern_7.png"" style=""width: 234px; height: 230px; margin-top: -50px;""><div style=""display: flex; justify-content: space-between; margin-top: 33px;""><img src=""images/choice_trial_13.png"" style=""width: 408px; height: 417px; margin-left:608px;""></div></div>","null","delaylearn","learning","display_response","65ff408b32980a820b6742c7","fZUVT5F1DIPXd0MSpuiiBTjg2BG3","","","","","","","","","","","","","","","","","chosen stimuli: images/choice_trial_13.png","","","",""
"html-keyboard-response","54","128360","0.0-24.0-2.0","","null","","null","delaylearn","learning","feedback_duration_window","65ff408b32980a820b6742c7","fZUVT5F1DIPXd0MSpuiiBTjg2BG3","","","","","","","","","","","","","","","","","","750","","",""
"html-keyboard-response","55","129873","0.0-24.0-3.0","","null","<div style='margin:auto;width: auto; font-size: 150%'><span style='font-weight: bold; font-size: 100px; color: green;'>+10 points!</span><br><br></div>","null","delaylearn","learning","feedback_image_window","65ff408b32980a820b6742c7","fZUVT5F1DIPXd0MSpuiiBTjg2BG3","","","","","","","","","","","","","","","","","","","","",""
"html-keyboard-response","56","131954","0.0-25.0","","null","<div style=""font-size:100px;"">+</div>","null","delaylearn","learning","ITI","65ff408b32980a820b6742c7","fZUVT5F1DIPXd0MSpuiiBTjg2BG3","","","","","","","","","","","","","","","","","","","2080","",""
"html-keyboard-response","57","133727","0.0-26.0-0.0","","1773","<div style=""display: flex; flex-direction: column; align-items: center; margin-top: -40px;""><img src=""images/pattern_4.png"" style=""width: 234px; height: 230px; margin-top: -50px;""><div style=""display: flex; justify-content: space-between; margin-top: 33px;""><img src=""images/choice_trial_7.png"" style=""width: 408px; height: 417px; margin-right: 200px;""><img src=""images/choice_trial_8.png"" style=""width: 408px; height: 417px;""></div></div>","f","delaylearn","learning","trial","65ff408b32980a820b6742c7","fZUVT5F1DIPXd0MSpuiiBTjg2BG3","1","images/choice_trial_7.png","images/choice_trial_8.png","images/pattern_4.png","f","f","7000","7","8","3","0","11","1","1","7","60","","","","",""
"html-keyboard-response","58","134732","0.0-26.0-1.0","","null","<div style=""display: flex; flex-direction: column; align-items: center; margin-top: -40px;""><img src=""images/pattern_4.png"" style=""width: 234px; height: 230px; margin-top: -50px;""><div style=""display: flex; justify-content: space-between; margin-top: 33px;""><img src=""images/choice_trial_7.png"" style=""width: 408px; height: 417px; margin-right: 608px;""></div></div>","null","delaylearn","learning","display_response","65ff408b32980a820b6742c7","fZUVT5F1DIPXd0MSpuiiBTjg2BG3","","","","","","","","","","","","","","","","","chosen stimuli: images/choice_trial_7.png","","","",""
"html-keyboard-response","59","141737","0.0-26.0-2.0","","null","","null","delaylearn","learning","feedback_duration_window","65ff408b32980a820b6742c7","fZUVT5F1DIPXd0MSpuiiBTjg2BG3","","","","","","","","","","","","","","","","","","7000","","",""
"html-keyboard-response","60","143250","0.0-26.0-3.0","","null","<div style='margin:auto;width: auto; font-size: 150%'><span style='font-weight: bold; font-size: 100px; color: green;'>+10 points!</span><br><br></div>","null","delaylearn","learning","feedback_image_window","65ff408b32980a820b6742c7","fZUVT5F1DIPXd0MSpuiiBTjg2BG3","","","","","","","","","","","","","","","","","","","","",""
"html-keyboard-response","61","145670","0.0-27.0","","null","<div style=""font-size:100px;"">+</div>","null","delaylearn","learning","ITI","65ff408b32980a820b6742c7","fZUVT5F1DIPXd0MSpuiiBTjg2BG3","","","","","","","","","","","","","","","","","","","2412","",""
"html-keyboard-response","62","147415","0.0-28.0-0.0","","1743","<div style=""display: flex; flex-direction: column; align-items: center; margin-top: -40px;""><img src=""images/pattern_5.png"" style=""width: 234px; height: 230px; margin-top: -50px;""><div style=""display: flex; justify-content: space-between; margin-top: 33px;""><img src=""images/choice_trial_10.png"" style=""width: 408px; height: 417px; margin-right: 200px;""><img src=""images/choice_trial_9.png"" style=""width: 408px; height: 417px;""></div></div>","j","delaylearn","learning","trial","65ff408b32980a820b6742c7","fZUVT5F1DIPXd0MSpuiiBTjg2BG3","1","images/choice_trial_10.png","images/choice_trial_9.png","images/pattern_5.png","j","j","750","10","9","4","1","12","1","1","9","70","","","","",""
"html-keyboard-response","63","148418","0.0-28.0-1.0","","null","<div style=""display: flex; flex-direction: column; align-items: center; margin-top: -40px;""><img src=""images/pattern_5.png"" style=""width: 234px; height: 230px; margin-top: -50px;""><div style=""display: flex; justify-content: space-between; margin-top: 33px;""><img src=""images/choice_trial_9.png"" style=""width: 408px; height: 417px; margin-left:608px;""></div></div>","null","delaylearn","learning","display_response","65ff408b32980a820b6742c7","fZUVT5F1DIPXd0MSpuiiBTjg2BG3","","","","","","","","","","","","","","","","","chosen stimuli: images/choice_trial_9.png","","","",""
"html-keyboard-response","64","149176","0.0-28.0-2.0","","null","","null","delaylearn","learning","feedback_duration_window","65ff408b32980a820b6742c7","fZUVT5F1DIPXd0MSpuiiBTjg2BG3","","","","","","","","","","","","","","","","","","750","","",""
"html-keyboard-response","65","150689","0.0-28.0-3.0","","null","<div style='margin:auto;width: auto; font-size: 150%'><span style='font-weight: bold; font-size: 100px; color: green;'>+10 points!</span><br><br></div>","null","delaylearn","learning","feedback_image_window","65ff408b32980a820b6742c7","fZUVT5F1DIPXd0MSpuiiBTjg2BG3","","","","","","","","","","","","","","","","","","","","",""
"html-keyboard-response","66","153143","0.0-29.0","","null","<div style=""font-size:100px;"">+</div>","null","delaylearn","learning","ITI","65ff408b32980a820b6742c7","fZUVT5F1DIPXd0MSpuiiBTjg2BG3","","","","","","","","","","","","","","","","","","","2442","",""
"html-keyboard-response","67","155226","0.0-30.0-0.0","","2080","<div style=""display: flex; flex-direction: column; align-items: center; margin-top: -40px;""><img src=""images/pattern_6.png"" style=""width: 234px; height: 230px; margin-top: -50px;""><div style=""display: flex; justify-content: space-between; margin-top: 33px;""><img src=""images/choice_trial_11.png"" style=""width: 408px; height: 417px; margin-right: 200px;""><img src=""images/choice_trial_12.png"" style=""width: 408px; height: 417px;""></div></div>","f","delaylearn","learning","trial","65ff408b32980a820b6742c7","fZUVT5F1DIPXd0MSpuiiBTjg2BG3","1","images/choice_trial_11.png","images/choice_trial_12.png","images/pattern_6.png","j","f","750","11","12","5","0","13","1","0","11","70","","","","",""
"html-keyboard-response","68","156231","0.0-30.0-1.0","","null","<div style=""display: flex; flex-direction: column; align-items: center; margin-top: -40px;""><img src=""images/pattern_6.png"" style=""width: 234px; height: 230px; margin-top: -50px;""><div style=""display: flex; justify-content: space-between; margin-top: 33px;""><img src=""images/choice_trial_11.png"" style=""width: 408px; height: 417px; margin-right: 608px;""></div></div>","null","delaylearn","learning","display_response","65ff408b32980a820b6742c7","fZUVT5F1DIPXd0MSpuiiBTjg2BG3","","","","","","","","","","","","","","","","","chosen stimuli: images/choice_trial_11.png","","","",""
"html-keyboard-response","69","156989","0.0-30.0-2.0","","null","","null","delaylearn","learning","feedback_duration_window","65ff408b32980a820b6742c7","fZUVT5F1DIPXd0MSpuiiBTjg2BG3","","","","","","","","","","","","","","","","","","750","","",""
"html-keyboard-response","70","158503","0.0-30.0-3.0","","null","<div style='margin:auto;width: auto; font-size: 150%'><span style='font-weight: bold; font-size: 100px; color: red;'>0 points!</span><br><br></div>","null","delaylearn","learning","feedback_image_window","65ff408b32980a820b6742c7","fZUVT5F1DIPXd0MSpuiiBTjg2BG3","","","","","","","","","","","","","","","","","","","","",""
"html-keyboard-response","71","159012","0.0-31.0-0.0","","null","","null","","","mood_trial_fixation","","","","","","","","","","","","","","","","","","","","","","",""
"lmdlab-html-vas-response","72","164148","0.0-31.0-1.0","","4130","How happy are you right now?","0.49074074074074076","delaylearn","learning","mood_trial","65ff408b32980a820b6742c7","fZUVT5F1DIPXd0MSpuiiBTjg2BG3","","","","","","","","","","","","","","","","","","","","[""Very unhappy"",""Very happy""]",""
"html-keyboard-response","73","165803","0.0-32.0","","null","<div style=""font-size:100px;"">+</div>","null","delaylearn","learning","ITI","65ff408b32980a820b6742c7","fZUVT5F1DIPXd0MSpuiiBTjg2BG3","","","","","","","","","","","","","","","","","","","1653","",""
"html-keyboard-response","74","168057","0.0-33.0-0.0","","2251","<div style=""display: flex; flex-direction: column; align-items: center; margin-top: -40px;""><img src=""images/pattern_1.png"" style=""width: 234px; height: 230px; margin-top: -50px;""><div style=""display: flex; justify-content: space-between; margin-top: 33px;""><img src=""images/choice_trial_2.png"" style=""width: 408px; height: 417px; margin-right: 200px;""><img src=""images/choice_trial_1.png"" style=""width: 408px; height: 417px;""></div></div>","j","delaylearn","learning","trial","65ff408b32980a820b6742c7","fZUVT5F1DIPXd0MSpuiiBTjg2BG3","1","images/choice_trial_2.png","images/choice_trial_1.png","images/pattern_1.png","j","j","7000","2","1","1","1","14","1","1","1","80","","","","",""
"html-keyboard-response","75","169060","0.0-33.0-1.0","","null","<div style=""display: flex; flex-direction: column; align-items: center; margin-top: -40px;""><img src=""images/pattern_1.png"" style=""width: 234px; height: 230px; margin-top: -50px;""><div style=""display: flex; justify-content: space-between; margin-top: 33px;""><img src=""images/choice_trial_1.png"" style=""width: 408px; height: 417px; margin-left:608px;""></div></div>","null","delaylearn","learning","display_response","65ff408b32980a820b6742c7","fZUVT5F1DIPXd0MSpuiiBTjg2BG3","","","","","","","","","","","","","","","","","chosen stimuli: images/choice_trial_1.png","","","",""
"html-keyboard-response","76","176062","0.0-33.0-2.0","","null","","null","delaylearn","learning","feedback_duration_window","65ff408b32980a820b6742c7","fZUVT5F1DIPXd0MSpuiiBTjg2BG3","","","","","","","","","","","","","","","","","","7000","","",""
"html-keyboard-response","77","177577","0.0-33.0-3.0","","null","<div style='margin:auto;width: auto; font-size: 150%'><span style='font-weight: bold; font-size: 100px; color: green;'>+10 points!</span><br><br></div>","null","delaylearn","learning","feedback_image_window","65ff408b32980a820b6742c7","fZUVT5F1DIPXd0MSpuiiBTjg2BG3","","","","","","","","","","","","","","","","","","","","",""
"html-keyboard-response","78","179289","0.0-34.0","","null","<div style=""font-size:100px;"">+</div>","null","delaylearn","learning","ITI","65ff408b32980a820b6742c7","fZUVT5F1DIPXd0MSpuiiBTjg2BG3","","","","","","","","","","","","","","","","","","","1699","",""
"html-keyboard-response","79","181277","0.0-35.0-0.0","","1987","<div style=""display: flex; flex-direction: column; align-items: center; margin-top: -40px;""><img src=""images/pattern_3.png"" style=""width: 234px; height: 230px; margin-top: -50px;""><div style=""display: flex; justify-content: space-between; margin-top: 33px;""><img src=""images/choice_trial_6.png"" style=""width: 408px; height: 417px; margin-right: 200px;""><img src=""images/choice_trial_5.png"" style=""width: 408px; height: 417px;""></div></div>","f","delaylearn","learning","trial","65ff408b32980a820b6742c7","fZUVT5F1DIPXd0MSpuiiBTjg2BG3","1","images/choice_trial_6.png","images/choice_trial_5.png","images/pattern_3.png","f","j","7000","6","5","2","1","15","0","1","6","90","","","","",""
"html-keyboard-response","80","182280","0.0-35.0-1.0","","null","<div style=""display: flex; flex-direction: column; align-items: center; margin-top: -40px;""><img src=""images/pattern_3.png"" style=""width: 234px; height: 230px; margin-top: -50px;""><div style=""display: flex; justify-content: space-between; margin-top: 33px;""><img src=""images/choice_trial_6.png"" style=""width: 408px; height: 417px; margin-right: 608px;""></div></div>","null","delaylearn","learning","display_response","65ff408b32980a820b6742c7","fZUVT5F1DIPXd0MSpuiiBTjg2BG3","","","","","","","","","","","","","","","","","chosen stimuli: images/choice_trial_6.png","","","",""
"html-keyboard-response","81","189289","0.0-35.0-2.0","","null","","null","delaylearn","learning","feedback_duration_window","65ff408b32980a820b6742c7","fZUVT5F1DIPXd0MSpuiiBTjg2BG3","","","","","","","","","","","","","","","","","","7000","","",""
"html-keyboard-response","82","190799","0.0-35.0-3.0","","null","<div style='margin:auto;width: auto; font-size: 150%'><span style='font-weight: bold; font-size: 100px; color: green;'>+10 points!</span><br><br></div>","null","delaylearn","learning","feedback_image_window","65ff408b32980a820b6742c7","fZUVT5F1DIPXd0MSpuiiBTjg2BG3","","","","","","","","","","","","","","","","","","","","",""
"html-keyboard-response","83","193269","0.0-36.0","","null","<div style=""font-size:100px;"">+</div>","null","delaylearn","learning","ITI","65ff408b32980a820b6742c7","fZUVT5F1DIPXd0MSpuiiBTjg2BG3","","","","","","","","","","","","","","","","","","","2457","",""
"html-keyboard-response","84","196283","0.0-37.0-0.0","","null","<div style=""display: flex; flex-direction: column; align-items: center; margin-top: -40px;""><img src=""images/pattern_5.png"" style=""width: 234px; height: 230px; margin-top: -50px;""><div style=""display: flex; justify-content: space-between; margin-top: 33px;""><img src=""images/choice_trial_9.png"" style=""width: 408px; height: 417px; margin-right: 200px;""><img src=""images/choice_trial_10.png"" style=""width: 408px; height: 417px;""></div></div>","null","delaylearn","learning","trial","65ff408b32980a820b6742c7","fZUVT5F1DIPXd0MSpuiiBTjg2BG3","1","images/choice_trial_9.png","images/choice_trial_10.png","images/pattern_5.png","f","f","750","9","10","4","0","16","0","0","0","90","","","","",""
"html-keyboard-response","85","197285","0.0-37.0-1.0","","null","<div style='font-weight: bold; font-size: 75px; color: red;'>Missed Trial <br><br><br><br> Please respond faster</div>","null","delaylearn","learning","display_response","65ff408b32980a820b6742c7","fZUVT5F1DIPXd0MSpuiiBTjg2BG3","","","","","","","","","","","","","","","","","Missed trial","","","",""
"html-keyboard-response","86","197300","0.0-37.0-2.0","","null","","null","delaylearn","learning","feedback_duration_window","65ff408b32980a820b6742c7","fZUVT5F1DIPXd0MSpuiiBTjg2BG3","","","","","","","","","","","","","","","","","","0","","",""
"html-keyboard-response","87","197315","0.0-37.0-3.0","","null","","null","delaylearn","learning","feedback_image_window","65ff408b32980a820b6742c7","fZUVT5F1DIPXd0MSpuiiBTjg2BG3","","","","","","","","","","","","","","","","","","","","",""
"html-keyboard-response","88","197823","0.0-38.0-0.0","","null","","null","","","mood_trial_fixation","","","","","","","","","","","","","","","","","","","","","","",""
"lmdlab-html-vas-response","89","200940","0.0-38.0-1.0","","2112","How happy are you right now?","0.470679012345679","delaylearn","learning","mood_trial","65ff408b32980a820b6742c7","fZUVT5F1DIPXd0MSpuiiBTjg2BG3","","","","","","","","","","","","","","","","","","","","[""Very unhappy"",""Very happy""]",""
"html-keyboard-response","90","202466","0.0-39.0","","null","<div style=""font-size:100px;"">+</div>","null","delaylearn","learning","ITI","65ff408b32980a820b6742c7","fZUVT5F1DIPXd0MSpuiiBTjg2BG3","","","","","","","","","","","","","","","","","","","1523","",""
"html-keyboard-response","91","203102","0.0-40.0-0.0","","635","<div style=""display: flex; flex-direction: column; align-items: center; margin-top: -40px;""><img src=""images/pattern_6.png"" style=""width: 234px; height: 230px; margin-top: -50px;""><div style=""display: flex; justify-content: space-between; margin-top: 33px;""><img src=""images/choice_trial_11.png"" style=""width: 408px; height: 417px; margin-right: 200px;""><img src=""images/choice_trial_12.png"" style=""width: 408px; height: 417px;""></div></div>","f","delaylearn","learning","trial","65ff408b32980a820b6742c7","fZUVT5F1DIPXd0MSpuiiBTjg2BG3","1","images/choice_trial_11.png","images/choice_trial_12.png","images/pattern_6.png","f","f","750","11","12","5","0","17","1","1","11","100","","","","",""
"html-keyboard-response","92","204105","0.0-40.0-1.0","","null","<div style=""display: flex; flex-direction: column; align-items: center; margin-top: -40px;""><img src=""images/pattern_6.png"" style=""width: 234px; height: 230px; margin-top: -50px;""><div style=""display: flex; justify-content: space-between; margin-top: 33px;""><img src=""images/choice_trial_11.png"" style=""width: 408px; height: 417px; margin-right: 608px;""></div></div>","null","delaylearn","learning","display_response","65ff408b32980a820b6742c7","fZUVT5F1DIPXd0MSpuiiBTjg2BG3","","","","","","","","","","","","","","","","","chosen stimuli: images/choice_trial_11.png","","","",""
"html-keyboard-response","93","204862","0.0-40.0-2.0","","null","","null","delaylearn","learning","feedback_duration_window","65ff408b32980a820b6742c7","fZUVT5F1DIPXd0MSpuiiBTjg2BG3","","","","","","","","","","","","","","","","","","750","","",""
"html-keyboard-response","94","206372","0.0-40.0-3.0","","null","<div style='margin:auto;width: auto; font-size: 150%'><span style='font-weight: bold; font-size: 100px; color: green;'>+10 points!</span><br><br></div>","null","delaylearn","learning","feedback_image_window","65ff408b32980a820b6742c7","fZUVT5F1DIPXd0MSpuiiBTjg2BG3","","","","","","","","","","","","","","","","","","","","",""
"html-keyboard-response","95","208767","0.0-41.0","","null","<div style=""font-size:100px;"">+</div>","null","delaylearn","learning","ITI","65ff408b32980a820b6742c7","fZUVT5F1DIPXd0MSpuiiBTjg2BG3","","","","","","","","","","","","","","","","","","","2394","",""
"html-keyboard-response","96","210217","0.0-42.0-0.0","","1448","<div style=""display: flex; flex-direction: column; align-items: center; margin-top: -40px;""><img src=""images/pattern_4.png"" style=""width: 234px; height: 230px; margin-top: -50px;""><div style=""display: flex; justify-content: space-between; margin-top: 33px;""><img src=""images/choice_trial_8.png"" style=""width: 408px; height: 417px; margin-right: 200px;""><img src=""images/choice_trial_7.png"" style=""width: 408px; height: 417px;""></div></div>","f","delaylearn","learning","trial","65ff408b32980a820b6742c7","fZUVT5F1DIPXd0MSpuiiBTjg2BG3","1","images/choice_trial_8.png","images/choice_trial_7.png","images/pattern_4.png","j","j","7000","8","7","3","1","18","0","0","8","100","","","","",""
"html-keyboard-response","97","211223","0.0-42.0-1.0","","null","<div style=""display: flex; flex-direction: column; align-items: center; margin-top: -40px;""><img src=""images/pattern_4.png"" style=""width: 234px; height: 230px; margin-top: -50px;""><div style=""display: flex; justify-content: space-between; margin-top: 33px;""><img src=""images/choice_trial_8.png"" style=""width: 408px; height: 417px; margin-right: 608px;""></div></div>","null","delaylearn","learning","display_response","65ff408b32980a820b6742c7","fZUVT5F1DIPXd0MSpuiiBTjg2BG3","","","","","","","","","","","","","","","","","chosen stimuli: images/choice_trial_8.png","","","",""
"html-keyboard-response","98","218228","0.0-42.0-2.0","","null","","null","delaylearn","learning","feedback_duration_window","65ff408b32980a820b6742c7","fZUVT5F1DIPXd0MSpuiiBTjg2BG3","","","","","","","","","","","","","","","","","","7000","","",""
"html-keyboard-response","99","219741","0.0-42.0-3.0","","null","<div style='margin:auto;width: auto; font-size: 150%'><span style='font-weight: bold; font-size: 100px; color: red;'>0 points!</span><br><br></div>","null","delaylearn","learning","feedback_image_window","65ff408b32980a820b6742c7","fZUVT5F1DIPXd0MSpuiiBTjg2BG3","","","","","","","","","","","","","","","","","","","","",""
"html-keyboard-response","100","221766","0.0-43.0","","null","<div style=""font-size:100px;"">+</div>","null","delaylearn","learning","ITI","65ff408b32980a820b6742c7","fZUVT5F1DIPXd0MSpuiiBTjg2BG3","","","","","","","","","","","","","","","","","","","2010","",""
"html-keyboard-response","101","223420","0.0-44.0-0.0","","1654","<div style=""display: flex; flex-direction: column; align-items: center; margin-top: -40px;""><img src=""images/pattern_7.png"" style=""width: 234px; height: 230px; margin-top: -50px;""><div style=""display: flex; justify-content: space-between; margin-top: 33px;""><img src=""images/choice_trial_13.png"" style=""width: 408px; height: 417px; margin-right: 200px;""><img src=""images/choice_trial_14.png"" style=""width: 408px; height: 417px;""></div></div>","j","delaylearn","learning","trial","65ff408b32980a820b6742c7","fZUVT5F1DIPXd0MSpuiiBTjg2BG3","1","images/choice_trial_13.png","images/choice_trial_14.png","images/pattern_7.png","j","f","750","13","14","6","0","19","0","1","14","110","","","","",""
"html-keyboard-response","102","224435","0.0-44.0-1.0","","null","<div style=""display: flex; flex-direction: column; align-items: center; margin-top: -40px;""><img src=""images/pattern_7.png"" style=""width: 234px; height: 230px; margin-top: -50px;""><div style=""display: flex; justify-content: space-between; margin-top: 33px;""><img src=""images/choice_trial_14.png"" style=""width: 408px; height: 417px; margin-left:608px;""></div></div>","null","delaylearn","learning","display_response","65ff408b32980a820b6742c7","fZUVT5F1DIPXd0MSpuiiBTjg2BG3","","","","","","","","","","","","","","","","","chosen stimuli: images/choice_trial_14.png","","","",""
"html-keyboard-response","103","225192","0.0-44.0-2.0","","null","","null","delaylearn","learning","feedback_duration_window","65ff408b32980a820b6742c7","fZUVT5F1DIPXd0MSpuiiBTjg2BG3","","","","","","","","","","","","","","","","","","750","","",""
"html-keyboard-response","104","226705","0.0-44.0-3.0","","null","<div style='margin:auto;width: auto; font-size: 150%'><span style='font-weight: bold; font-size: 100px; color: green;'>+10 points!</span><br><br></div>","null","delaylearn","learning","feedback_image_window","65ff408b32980a820b6742c7","fZUVT5F1DIPXd0MSpuiiBTjg2BG3","","","","","","","","","","","","","","","","","","","","",""
"html-keyboard-response","105","229083","0.0-45.0","","null","<div style=""font-size:100px;"">+</div>","null","delaylearn","learning","ITI","65ff408b32980a820b6742c7","fZUVT5F1DIPXd0MSpuiiBTjg2BG3","","","","","","","","","","","","","","","","","","","2363","",""
"html-keyboard-response","106","230333","0.0-46.0-0.0","","1249","<div style=""display: flex; flex-direction: column; align-items: center; margin-top: -40px;""><img src=""images/pattern_1.png"" style=""width: 234px; height: 230px; margin-top: -50px;""><div style=""display: flex; justify-content: space-between; margin-top: 33px;""><img src=""images/choice_trial_1.png"" style=""width: 408px; height: 417px; margin-right: 200px;""><img src=""images/choice_trial_2.png"" style=""width: 408px; height: 417px;""></div></div>","j","delaylearn","learning","trial","65ff408b32980a820b6742c7","fZUVT5F1DIPXd0MSpuiiBTjg2BG3","1","images/choice_trial_1.png","images/choice_trial_2.png","images/pattern_1.png","f","f","7000","1","2","1","0","20","0","0","2","110","","","","",""
"html-keyboard-response","107","231335","0.0-46.0-1.0","","null","<div style=""display: flex; flex-direction: column; align-items: center; margin-top: -40px;""><img src=""images/pattern_1.png"" style=""width: 234px; height: 230px; margin-top: -50px;""><div style=""display: flex; justify-content: space-between; margin-top: 33px;""><img src=""images/choice_trial_2.png"" style=""width: 408px; height: 417px; margin-left:608px;""></div></div>","null","delaylearn","learning","display_response","65ff408b32980a820b6742c7","fZUVT5F1DIPXd0MSpuiiBTjg2BG3","","","","","","","","","","","","","","","","","chosen stimuli: images/choice_trial_2.png","","","",""
"html-keyboard-response","108","238338","0.0-46.0-2.0","","null","","null","delaylearn","learning","feedback_duration_window","65ff408b32980a820b6742c7","fZUVT5F1DIPXd0MSpuiiBTjg2BG3","","","","","","","","","","","","","","","","","","7000","","",""
"html-keyboard-response","109","239846","0.0-46.0-3.0","","null","<div style='margin:auto;width: auto; font-size: 150%'><span style='font-weight: bold; font-size: 100px; color: red;'>0 points!</span><br><br></div>","null","delaylearn","learning","feedback_image_window","65ff408b32980a820b6742c7","fZUVT5F1DIPXd0MSpuiiBTjg2BG3","","","","","","","","","","","","","","","","","","","","",""
"html-keyboard-response","110","241464","0.0-47.0","","null","<div style=""font-size:100px;"">+</div>","null","delaylearn","learning","ITI","65ff408b32980a820b6742c7","fZUVT5F1DIPXd0MSpuiiBTjg2BG3","","","","","","","","","","","","","","","","","","","1615","",""
"html-keyboard-response","111","242373","0.0-48.0-0.0","","908","<div style=""display: flex; flex-direction: column; align-items: center; margin-top: -40px;""><img src=""images/pattern_6.png"" style=""width: 234px; height: 230px; margin-top: -50px;""><div style=""display: flex; justify-content: space-between; margin-top: 33px;""><img src=""images/choice_trial_12.png"" style=""width: 408px; height: 417px; margin-right: 200px;""><img src=""images/choice_trial_11.png"" style=""width: 408px; height: 417px;""></div></div>","f","delaylearn","learning","trial","65ff408b32980a820b6742c7","fZUVT5F1DIPXd0MSpuiiBTjg2BG3","1","images/choice_trial_12.png","images/choice_trial_11.png","images/pattern_6.png","j","j","750","12","11","5","1","21","0","0","12","110","","","","",""
"html-keyboard-response","112","243381","0.0-48.0-1.0","","null","<div style=""display: flex; flex-direction: column; align-items: center; margin-top: -40px;""><img src=""images/pattern_6.png"" style=""width: 234px; height: 230px; margin-top: -50px;""><div style=""display: flex; justify-content: space-between; margin-top: 33px;""><img src=""images/choice_trial_12.png"" style=""width: 408px; height: 417px; margin-right: 608px;""></div></div>","null","delaylearn","learning","display_response","65ff408b32980a820b6742c7","fZUVT5F1DIPXd0MSpuiiBTjg2BG3","","","","","","","","","","","","","","","","","chosen stimuli: images/choice_trial_12.png","","","",""
"html-keyboard-response","113","244137","0.0-48.0-2.0","","null","","null","delaylearn","learning","feedback_duration_window","65ff408b32980a820b6742c7","fZUVT5F1DIPXd0MSpuiiBTjg2BG3","","","","","","","","","","","","","","","","","","750","","",""
"html-keyboard-response","114","245650","0.0-48.0-3.0","","null","<div style='margin:auto;width: auto; font-size: 150%'><span style='font-weight: bold; font-size: 100px; color: red;'>0 points!</span><br><br></div>","null","delaylearn","learning","feedback_image_window","65ff408b32980a820b6742c7","fZUVT5F1DIPXd0MSpuiiBTjg2BG3","","","","","","","","","","","","","","","","","","","","",""
"html-keyboard-response","115","247409","0.0-49.0","","null","<div style=""font-size:100px;"">+</div>","null","delaylearn","learning","ITI","65ff408b32980a820b6742c7","fZUVT5F1DIPXd0MSpuiiBTjg2BG3","","","","","","","","","","","","","","","","","","","1744","",""
"html-keyboard-response","116","248052","0.0-50.0-0.0","","642","<div style=""display: flex; flex-direction: column; align-items: center; margin-top: -40px;""><img src=""images/pattern_4.png"" style=""width: 234px; height: 230px; margin-top: -50px;""><div style=""display: flex; justify-content: space-between; margin-top: 33px;""><img src=""images/choice_trial_7.png"" style=""width: 408px; height: 417px; margin-right: 200px;""><img src=""images/choice_trial_8.png"" style=""width: 408px; height: 417px;""></div></div>","f","delaylearn","learning","trial","65ff408b32980a820b6742c7","fZUVT5F1DIPXd0MSpuiiBTjg2BG3","1","images/choice_trial_7.png","images/choice_trial_8.png","images/pattern_4.png","f","f","7000","7","8","3","0","22","1","1","7","120","","","","",""
"html-keyboard-response","117","249059","0.0-50.0-1.0","","null","<div style=""display: flex; flex-direction: column; align-items: center; margin-top: -40px;""><img src=""images/pattern_4.png"" style=""width: 234px; height: 230px; margin-top: -50px;""><div style=""display: flex; justify-content: space-between; margin-top: 33px;""><img src=""images/choice_trial_7.png"" style=""width: 408px; height: 417px; margin-right: 608px;""></div></div>","null","delaylearn","learning","display_response","65ff408b32980a820b6742c7","fZUVT5F1DIPXd0MSpuiiBTjg2BG3","","","","","","","","","","","","","","","","","chosen stimuli: images/choice_trial_7.png","","","",""
"html-keyboard-response","118","256067","0.0-50.0-2.0","","null","","null","delaylearn","learning","feedback_duration_window","65ff408b32980a820b6742c7","fZUVT5F1DIPXd0MSpuiiBTjg2BG3","","","","","","","","","","","","","","","","","","7000","","",""
"html-keyboard-response","119","257581","0.0-50.0-3.0","","null","<div style='margin:auto;width: auto; font-size: 150%'><span style='font-weight: bold; font-size: 100px; color: green;'>+10 points!</span><br><br></div>","null","delaylearn","learning","feedback_image_window","65ff408b32980a820b6742c7","fZUVT5F1DIPXd0MSpuiiBTjg2BG3","","","","","","","","","","","","","","","","","","","","",""
"html-keyboard-response","120","258091","0.0-51.0-0.0","","null","","null","","","mood_trial_fixation","","","","","","","","","","","","","","","","","","","","","","",""
"lmdlab-html-vas-response","121","262019","0.0-51.0-1.0","","2924","How happy are you right now?","0.4799382716049383","delaylearn","learning","mood_trial","65ff408b32980a820b6742c7","fZUVT5F1DIPXd0MSpuiiBTjg2BG3","","","","","","","","","","","","","","","","","","","","[""Very unhappy"",""Very happy""]",""
"html-keyboard-response","122","263827","0.0-52.0","","null","<div style=""font-size:100px;"">+</div>","null","delaylearn","learning","ITI","65ff408b32980a820b6742c7","fZUVT5F1DIPXd0MSpuiiBTjg2BG3","","","","","","","","","","","","","","","","","","","1805","",""
"html-keyboard-response","123","265843","0.0-53.0-0.0","","2014","<div style=""display: flex; flex-direction: column; align-items: center; margin-top: -40px;""><img src=""images/pattern_7.png"" style=""width: 234px; height: 230px; margin-top: -50px;""><div style=""display: flex; justify-content: space-between; margin-top: 33px;""><img src=""images/choice_trial_14.png"" style=""width: 408px; height: 417px; margin-right: 200px;""><img src=""images/choice_trial_13.png"" style=""width: 408px; height: 417px;""></div></div>","f","delaylearn","learning","trial","65ff408b32980a820b6742c7","fZUVT5F1DIPXd0MSpuiiBTjg2BG3","1","images/choice_trial_14.png","images/choice_trial_13.png","images/pattern_7.png","j","j","750","14","13","6","1","23","0","0","14","120","","","","",""
"html-keyboard-response","124","266857","0.0-53.0-1.0","","null","<div style=""display: flex; flex-direction: column; align-items: center; margin-top: -40px;""><img src=""images/pattern_7.png"" style=""width: 234px; height: 230px; margin-top: -50px;""><div style=""display: flex; justify-content: space-between; margin-top: 33px;""><img src=""images/choice_trial_14.png"" style=""width: 408px; height: 417px; margin-right: 608px;""></div></div>","null","delaylearn","learning","display_response","65ff408b32980a820b6742c7","fZUVT5F1DIPXd0MSpuiiBTjg2BG3","","","","","","","","","","","","","","","","","chosen stimuli: images/choice_trial_14.png","","","",""
"html-keyboard-response","125","267614","0.0-53.0-2.0","","null","","null","delaylearn","learning","feedback_duration_window","65ff408b32980a820b6742c7","fZUVT5F1DIPXd0MSpuiiBTjg2BG3","","","","","","","","","","","","","","","","","","750","","",""
"html-keyboard-response","126","269126","0.0-53.0-3.0","","null","<div style='margin:auto;width: auto; font-size: 150%'><span style='font-weight: bold; font-size: 100px; color: red;'>0 points!</span><br><br></div>","null","delaylearn","learning","feedback_image_window","65ff408b32980a820b6742c7","fZUVT5F1DIPXd0MSpuiiBTjg2BG3","","","","","","","","","","","","","","","","","","","","",""
"html-keyboard-response","127","271470","0.0-54.0","","null","<div style=""font-size:100px;"">+</div>","null","delaylearn","learning","ITI","65ff408b32980a820b6742c7","fZUVT5F1DIPXd0MSpuiiBTjg2BG3","","","","","","","","","","","","","","","","","","","2335","",""
"html-keyboard-response","128","272612","0.0-55.0-0.0","","1140","<div style=""display: flex; flex-direction: column; align-items: center; margin-top: -40px;""><img src=""images/pattern_1.png"" style=""width: 234px; height: 230px; margin-top: -50px;""><div style=""display: flex; justify-content: space-between; margin-top: 33px;""><img src=""images/choice_trial_2.png"" style=""width: 408px; height: 417px; margin-right: 200px;""><img src=""images/choice_trial_1.png"" style=""width: 408px; height: 417px;""></div></div>","f","delaylearn","learning","trial","65ff408b32980a820b6742c7","fZUVT5F1DIPXd0MSpuiiBTjg2BG3","1","images/choice_trial_2.png","images/choice_trial_1.png","images/pattern_1.png","f","j","7000","2","1","1","1","24","0","1","2","130","","","","",""
"html-keyboard-response","129","273614","0.0-55.0-1.0","","null","<div style=""display: flex; flex-direction: column; align-items: center; margin-top: -40px;""><img src=""images/pattern_1.png"" style=""width: 234px; height: 230px; margin-top: -50px;""><div style=""display: flex; justify-content: space-between; margin-top: 33px;""><img src=""images/choice_trial_2.png"" style=""width: 408px; height: 417px; margin-right: 608px;""></div></div>","null","delaylearn","learning","display_response","65ff408b32980a820b6742c7","fZUVT5F1DIPXd0MSpuiiBTjg2BG3","","","","","","","","","","","","","","","","","chosen stimuli: images/choice_trial_2.png","","","",""
"html-keyboard-response","130","280622","0.0-55.0-2.0","","null","","null","delaylearn","learning","feedback_duration_window","65ff408b32980a820b6742c7","fZUVT5F1DIPXd0MSpuiiBTjg2BG3","","","","","","","","","","","","","","","","","","7000","","",""
"html-keyboard-response","131","282129","0.0-55.0-3.0","","null","<div style='margin:auto;width: auto; font-size: 150%'><span style='font-weight: bold; font-size: 100px; color: green;'>+10 points!</span><br><br></div>","null","delaylearn","learning","feedback_image_window","65ff408b32980a820b6742c7","fZUVT5F1DIPXd0MSpuiiBTjg2BG3","","","","","","","","","","","","","","","","","","","","",""
"html-keyboard-response","132","283934","0.0-56.0","","null","<div style=""font-size:100px;"">+</div>","null","delaylearn","learning","ITI","65ff408b32980a820b6742c7","fZUVT5F1DIPXd0MSpuiiBTjg2BG3","","","","","","","","","","","","","","","","","","","1799","",""
"html-keyboard-response","133","286227","0.0-57.0-0.0","","2292","<div style=""display: flex; flex-direction: column; align-items: center; margin-top: -40px;""><img src=""images/pattern_5.png"" style=""width: 234px; height: 230px; margin-top: -50px;""><div style=""display: flex; justify-content: space-between; margin-top: 33px;""><img src=""images/choice_trial_10.png"" style=""width: 408px; height: 417px; margin-right: 200px;""><img src=""images/choice_trial_9.png"" style=""width: 408px; height: 417px;""></div></div>","j","delaylearn","learning","trial","65ff408b32980a820b6742c7","fZUVT5F1DIPXd0MSpuiiBTjg2BG3","1","images/choice_trial_10.png","images/choice_trial_9.png","images/pattern_5.png","j","j","750","10","9","4","1","25","1","1","9","140","","","","",""
"html-keyboard-response","134","287236","0.0-57.0-1.0","","null","<div style=""display: flex; flex-direction: column; align-items: center; margin-top: -40px;""><img src=""images/pattern_5.png"" style=""width: 234px; height: 230px; margin-top: -50px;""><div style=""display: flex; justify-content: space-between; margin-top: 33px;""><img src=""images/choice_trial_9.png"" style=""width: 408px; height: 417px; margin-left:608px;""></div></div>","null","delaylearn","learning","display_response","65ff408b32980a820b6742c7","fZUVT5F1DIPXd0MSpuiiBTjg2BG3","","","","","","","","","","","","","","","","","chosen stimuli: images/choice_trial_9.png","","","",""
"html-keyboard-response","135","287992","0.0-57.0-2.0","","null","","null","delaylearn","learning","feedback_duration_window","65ff408b32980a820b6742c7","fZUVT5F1DIPXd0MSpuiiBTjg2BG3","","","","","","","","","","","","","","","","","","750","","",""
"html-keyboard-response","136","289506","0.0-57.0-3.0","","null","<div style='margin:auto;width: auto; font-size: 150%'><span style='font-weight: bold; font-size: 100px; color: green;'>+10 points!</span><br><br></div>","null","delaylearn","learning","feedback_image_window","65ff408b32980a820b6742c7","fZUVT5F1DIPXd0MSpuiiBTjg2BG3","","","","","","","","","","","","","","","","","","","","",""
"html-keyboard-response","137","291773","0.0-58.0","","null","<div style=""font-size:100px;"">+</div>","null","delaylearn","learning","ITI","65ff408b32980a820b6742c7","fZUVT5F1DIPXd0MSpuiiBTjg2BG3","","","","","","","","","","","","","","","","","","","2257","",""
"html-keyboard-response","138","293968","0.0-59.0-0.0","","2193","<div style=""display: flex; flex-direction: column; align-items: center; margin-top: -40px;""><img src=""images/pattern_3.png"" style=""width: 234px; height: 230px; margin-top: -50px;""><div style=""display: flex; justify-content: space-between; margin-top: 33px;""><img src=""images/choice_trial_6.png"" style=""width: 408px; height: 417px; margin-right: 200px;""><img src=""images/choice_trial_5.png"" style=""width: 408px; height: 417px;""></div></div>","j","delaylearn","learning","trial","65ff408b32980a820b6742c7","fZUVT5F1DIPXd0MSpuiiBTjg2BG3","1","images/choice_trial_6.png","images/choice_trial_5.png","images/pattern_3.png","j","j","7000","6","5","2","1","26","1","1","5","150","","","","",""
"html-keyboard-response","139","294982","0.0-59.0-1.0","","null","<div style=""display: flex; flex-direction: column; align-items: center; margin-top: -40px;""><img src=""images/pattern_3.png"" style=""width: 234px; height: 230px; margin-top: -50px;""><div style=""display: flex; justify-content: space-between; margin-top: 33px;""><img src=""images/choice_trial_5.png"" style=""width: 408px; height: 417px; margin-left:608px;""></div></div>","null","delaylearn","learning","display_response","65ff408b32980a820b6742c7","fZUVT5F1DIPXd0MSpuiiBTjg2BG3","","","","","","","","","","","","","","","","","chosen stimuli: images/choice_trial_5.png","","","",""
"html-keyboard-response","140","301994","0.0-59.0-2.0","","null","","null","delaylearn","learning","feedback_duration_window","65ff408b32980a820b6742c7","fZUVT5F1DIPXd0MSpuiiBTjg2BG3","","","","","","","","","","","","","","","","","","7000","","",""
"html-keyboard-response","141","303507","0.0-59.0-3.0","","null","<div style='margin:auto;width: auto; font-size: 150%'><span style='font-weight: bold; font-size: 100px; color: green;'>+10 points!</span><br><br></div>","null","delaylearn","learning","feedback_image_window","65ff408b32980a820b6742c7","fZUVT5F1DIPXd0MSpuiiBTjg2BG3","","","","","","","","","","","","","","","","","","","","",""
"lmdlab-html-vas-response","142","310336","0.0-60.0-0.0","","5313","*How <b><u>confident</u></b> are you feeling about your answers at this moment?*","0.7546296296296297","rewlearn","rate_confidence","","65ff408b32980a820b6742c7","fZUVT5F1DIPXd0MSpuiiBTjg2BG3","","","","","","","","","","","","","","","","","","","","[""No confidence"",""Complete confidence""]",""
"lmdlab-rest-trial-limit","143","317680","0.0-60.0-1.0","","5836","<div style=""font-size:40px;""><b>Please take a break!</b><br><br><br><br><p>Great work: you earned 150 points.<br><br><br><p>You have completed part(s) 1 of 5.<br><br><br><br>When you are ready to continue<br><br><br>please click the button.</p><br><br>","0","delaylearn","learning","break","65ff408b32980a820b6742c7","fZUVT5F1DIPXd0MSpuiiBTjg2BG3","","","","","","","","","","","","","","","","","","","","","0"
"html-keyboard-response","144","320688","0.0-60.0-2.0","","null","<div style=""font-size:100px;"">+</div>","null","delaylearn","learning","pre_fixation","65ff408b32980a820b6742c7","","","","","","","","","","","","","","","","","","","","","",""
"lmdlab-html-vas-response","145","324779","0.0-60.0-3.0-0.0","","3085","How happy are you right now?","0.4861111111111111","delaylearn","learning","mood_baseline","65ff408b32980a820b6742c7","fZUVT5F1DIPXd0MSpuiiBTjg2BG3","","","","","","","","","","","","","","","","","","","","[""Very unhappy"",""Very happy""]",""
"html-keyboard-response","146","326285","0.0-60.0-3.0-1.0","","null","","null","","","mood_baseline_fixation","","","","","","","","","","","","","","","","","","","","","","",""
"html-keyboard-response","147","328386","0.0-61.0","","null","<div style=""font-size:100px;"">+</div>","null","delaylearn","learning","ITI","65ff408b32980a820b6742c7","fZUVT5F1DIPXd0MSpuiiBTjg2BG3","","","","","","","","","","","","","","","","","","","2093","",""
"html-keyboard-response","148","330795","0.0-62.0-0.0","","2409","<div style=""display: flex; flex-direction: column; align-items: center; margin-top: -40px;""><img src=""images/pattern_7.png"" style=""width: 234px; height: 230px; margin-top: -50px;""><div style=""display: flex; justify-content: space-between; margin-top: 33px;""><img src=""images/choice_trial_14.png"" style=""width: 408px; height: 417px; margin-right: 200px;""><img src=""images/choice_trial_13.png"" style=""width: 408px; height: 417px;""></div></div>","j","delaylearn","learning","trial","65ff408b32980a820b6742c7","fZUVT5F1DIPXd0MSpuiiBTjg2BG3","1","images/choice_trial_14.png","images/choice_trial_13.png","images/pattern_7.png","j","j","750","14","13","6","1","27","1","1","13","160","","","","",""
"html-keyboard-response","149","331811","0.0-62.0-1.0","","null","<div style=""display: flex; flex-direction: column; align-items: center; margin-top: -40px;""><img src=""images/pattern_7.png"" style=""width: 234px; height: 230px; margin-top: -50px;""><div style=""display: flex; justify-content: space-between; margin-top: 33px;""><img src=""images/choice_trial_13.png"" style=""width: 408px; height: 417px; margin-left:608px;""></div></div>","null","delaylearn","learning","display_response","65ff408b32980a820b6742c7","fZUVT5F1DIPXd0MSpuiiBTjg2BG3","","","","","","","","","","","","","","","","","chosen stimuli: images/choice_trial_13.png","","","",""
"html-keyboard-response","150","332565","0.0-62.0-2.0","","null","","null","delaylearn","learning","feedback_duration_window","65ff408b32980a820b6742c7","fZUVT5F1DIPXd0MSpuiiBTjg2BG3","","","","","","","","","","","","","","","","","","750","","",""
"html-keyboard-response","151","334077","0.0-62.0-3.0","","null","<div style='margin:auto;width: auto; font-size: 150%'><span style='font-weight: bold; font-size: 100px; color: green;'>+10 points!</span><br><br></div>","null","delaylearn","learning","feedback_image_window","65ff408b32980a820b6742c7","fZUVT5F1DIPXd0MSpuiiBTjg2BG3","","","","","","","","","","","","","","","","","","","","",""
"html-keyboard-response","152","334585","0.0-63.0-0.0","","null","","null","","","mood_trial_fixation","","","","","","","","","","","","","","","","","","","","","","",""
"lmdlab-html-vas-response","153","337566","0.0-63.0-1.0","","1975","How happy are you right now?","0.4876543209876543","delaylearn","learning","mood_trial","65ff408b32980a820b6742c7","fZUVT5F1DIPXd0MSpuiiBTjg2BG3","","","","","","","","","","","","","","","","","","","","[""Very unhappy"",""Very happy""]",""
"html-keyboard-response","154","339339","0.0-64.0","","null","<div style=""font-size:100px;"">+</div>","null","delaylearn","learning","ITI","65ff408b32980a820b6742c7","fZUVT5F1DIPXd0MSpuiiBTjg2BG3","","","","","","","","","","","","","","","","","","","1764","",""
"html-keyboard-response","155","340508","0.0-65.0-0.0","","1168","<div style=""display: flex; flex-direction: column; align-items: center; margin-top: -40px;""><img src=""images/pattern_1.png"" style=""width: 234px; height: 230px; margin-top: -50px;""><div style=""display: flex; justify-content: space-between; margin-top: 33px;""><img src=""images/choice_trial_1.png"" style=""width: 408px; height: 417px; margin-right: 200px;""><img src=""images/choice_trial_2.png"" style=""width: 408px; height: 417px;""></div></div>","j","delaylearn","learning","trial","65ff408b32980a820b6742c7","fZUVT5F1DIPXd0MSpuiiBTjg2BG3","1","images/choice_trial_1.png","images/choice_trial_2.png","images/pattern_1.png","f","f","7000","1","2","1","0","28","0","0","2","160","","","","",""
"html-keyboard-response","156","341513","0.0-65.0-1.0","","null","<div style=""display: flex; flex-direction: column; align-items: center; margin-top: -40px;""><img src=""images/pattern_1.png"" style=""width: 234px; height: 230px; margin-top: -50px;""><div style=""display: flex; justify-content: space-between; margin-top: 33px;""><img src=""images/choice_trial_2.png"" style=""width: 408px; height: 417px; margin-left:608px;""></div></div>","null","delaylearn","learning","display_response","65ff408b32980a820b6742c7","fZUVT5F1DIPXd0MSpuiiBTjg2BG3","","","","","","","","","","","","","","","","","chosen stimuli: images/choice_trial_2.png","","","",""
"html-keyboard-response","157","348524","0.0-65.0-2.0","","null","","null","delaylearn","learning","feedback_duration_window","65ff408b32980a820b6742c7","fZUVT5F1DIPXd0MSpuiiBTjg2BG3","","","","","","","","","","","","","","","","","","7000","","",""
"html-keyboard-response","158","350035","0.0-65.0-3.0","","null","<div style='margin:auto;width: auto; font-size: 150%'><span style='font-weight: bold; font-size: 100px; color: red;'>0 points!</span><br><br></div>","null","delaylearn","learning","feedback_image_window","65ff408b32980a820b6742c7","fZUVT5F1DIPXd0MSpuiiBTjg2BG3","","","","","","","","","","","","","","","","","","","","",""
"html-keyboard-response","159","351871","0.0-66.0","","null","<div style=""font-size:100px;"">+</div>","null","delaylearn","learning","ITI","65ff408b32980a820b6742c7","fZUVT5F1DIPXd0MSpuiiBTjg2BG3","","","","","","","","","","","","","","","","","","","1834","",""
"html-keyboard-response","160","353045","0.0-67.0-0.0","","1173","<div style=""display: flex; flex-direction: column; align-items: center; margin-top: -40px;""><img src=""images/pattern_5.png"" style=""width: 234px; height: 230px; margin-top: -50px;""><div style=""display: flex; justify-content: space-between; margin-top: 33px;""><img src=""images/choice_trial_9.png"" style=""width: 408px; height: 417px; margin-right: 200px;""><img src=""images/choice_trial_10.png"" style=""width: 408px; height: 417px;""></div></div>","f","delaylearn","learning","trial","65ff408b32980a820b6742c7","fZUVT5F1DIPXd0MSpuiiBTjg2BG3","1","images/choice_trial_9.png","images/choice_trial_10.png","images/pattern_5.png","f","f","750","9","10","4","0","29","1","1","9","170","","","","",""
"html-keyboard-response","161","354050","0.0-67.0-1.0","","null","<div style=""display: flex; flex-direction: column; align-items: center; margin-top: -40px;""><img src=""images/pattern_5.png"" style=""width: 234px; height: 230px; margin-top: -50px;""><div style=""display: flex; justify-content: space-between; margin-top: 33px;""><img src=""images/choice_trial_9.png"" style=""width: 408px; height: 417px; margin-right: 608px;""></div></div>","null","delaylearn","learning","display_response","65ff408b32980a820b6742c7","fZUVT5F1DIPXd0MSpuiiBTjg2BG3","","","","","","","","","","","","","","","","","chosen stimuli: images/choice_trial_9.png","","","",""
"html-keyboard-response","162","354806","0.0-67.0-2.0","","null","","null","delaylearn","learning","feedback_duration_window","65ff408b32980a820b6742c7","fZUVT5F1DIPXd0MSpuiiBTjg2BG3","","","","","","","","","","","","","","","","","","750","","",""
"html-keyboard-response","163","356320","0.0-67.0-3.0","","null","<div style='margin:auto;width: auto; font-size: 150%'><span style='font-weight: bold; font-size: 100px; color: green;'>+10 points!</span><br><br></div>","null","delaylearn","learning","feedback_image_window","65ff408b32980a820b6742c7","fZUVT5F1DIPXd0MSpuiiBTjg2BG3","","","","","","","","","","","","","","","","","","","","",""
"html-keyboard-response","164","358295","0.0-68.0","","null","<div style=""font-size:100px;"">+</div>","null","delaylearn","learning","ITI","65ff408b32980a820b6742c7","fZUVT5F1DIPXd0MSpuiiBTjg2BG3","","","","","","","","","","","","","","","","","","","1970","",""
"html-keyboard-response","165","359965","0.0-69.0-0.0","","1668","<div style=""display: flex; flex-direction: column; align-items: center; margin-top: -40px;""><img src=""images/pattern_6.png"" style=""width: 234px; height: 230px; margin-top: -50px;""><div style=""display: flex; justify-content: space-between; margin-top: 33px;""><img src=""images/choice_trial_12.png"" style=""width: 408px; height: 417px; margin-right: 200px;""><img src=""images/choice_trial_11.png"" style=""width: 408px; height: 417px;""></div></div>","j","delaylearn","learning","trial","65ff408b32980a820b6742c7","fZUVT5F1DIPXd0MSpuiiBTjg2BG3","1","images/choice_trial_12.png","images/choice_trial_11.png","images/pattern_6.png","j","j","750","12","11","5","1","30","1","1","11","180","","","","",""
"html-keyboard-response","166","360965","0.0-69.0-1.0","","null","<div style=""display: flex; flex-direction: column; align-items: center; margin-top: -40px;""><img src=""images/pattern_6.png"" style=""width: 234px; height: 230px; margin-top: -50px;""><div style=""display: flex; justify-content: space-between; margin-top: 33px;""><img src=""images/choice_trial_11.png"" style=""width: 408px; height: 417px; margin-left:608px;""></div></div>","null","delaylearn","learning","display_response","65ff408b32980a820b6742c7","fZUVT5F1DIPXd0MSpuiiBTjg2BG3","","","","","","","","","","","","","","","","","chosen stimuli: images/choice_trial_11.png","","","",""
"html-keyboard-response","167","361721","0.0-69.0-2.0","","null","","null","delaylearn","learning","feedback_duration_window","65ff408b32980a820b6742c7","fZUVT5F1DIPXd0MSpuiiBTjg2BG3","","","","","","","","","","","","","","","","","","750","","",""
"html-keyboard-response","168","363236","0.0-69.0-3.0","","null","<div style='margin:auto;width: auto; font-size: 150%'><span style='font-weight: bold; font-size: 100px; color: green;'>+10 points!</span><br><br></div>","null","delaylearn","learning","feedback_image_window","65ff408b32980a820b6742c7","fZUVT5F1DIPXd0MSpuiiBTjg2BG3","","","","","","","","","","","","","","","","","","","","",""
"html-keyboard-response","169","363746","0.0-70.0-0.0","","null","","null","","","mood_trial_fixation","","","","","","","","","","","","","","","","","","","","","","",""
"lmdlab-html-vas-response","170","367460","0.0-70.0-1.0","","2709","How happy are you right now?","0.5108024691358025","delaylearn","learning","mood_trial","65ff408b32980a820b6742c7","fZUVT5F1DIPXd0MSpuiiBTjg2BG3","","","","","","","","","","","","","","","","","","","","[""Very unhappy"",""Very happy""]",""
"html-keyboard-response","171","369684","0.0-71.0","","null","<div style=""font-size:100px;"">+</div>","null","delaylearn","learning","ITI","65ff408b32980a820b6742c7","fZUVT5F1DIPXd0MSpuiiBTjg2BG3","","","","","","","","","","","","","","","","","","","2221","",""
"html-keyboard-response","172","371532","0.0-72.0-0.0","","1848","<div style=""display: flex; flex-direction: column; align-items: center; margin-top: -40px;""><img src=""images/pattern_4.png"" style=""width: 234px; height: 230px; margin-top: -50px;""><div style=""display: flex; justify-content: space-between; margin-top: 33px;""><img src=""images/choice_trial_8.png"" style=""width: 408px; height: 417px; margin-right: 200px;""><img src=""images/choice_trial_7.png"" style=""width: 408px; height: 417px;""></div></div>","f","delaylearn","learning","trial","65ff408b32980a820b6742c7","fZUVT5F1DIPXd0MSpuiiBTjg2BG3","1","images/choice_trial_8.png","images/choice_trial_7.png","images/pattern_4.png","j","j","7000","8","7","3","1","31","0","0","8","180","","","","",""
"html-keyboard-response","173","372533","0.0-72.0-1.0","","null","<div style=""display: flex; flex-direction: column; align-items: center; margin-top: -40px;""><img src=""images/pattern_4.png"" style=""width: 234px; height: 230px; margin-top: -50px;""><div style=""display: flex; justify-content: space-between; margin-top: 33px;""><img src=""images/choice_trial_8.png"" style=""width: 408px; height: 417px; margin-right: 608px;""></div></div>","null","delaylearn","learning","display_response","65ff408b32980a820b6742c7","fZUVT5F1DIPXd0MSpuiiBTjg2BG3","","","","","","","","","","","","","","","","","chosen stimuli: images/choice_trial_8.png","","","",""
"html-keyboard-response","174","379542","0.0-72.0-2.0","","null","","null","delaylearn","learning","feedback_duration_window","65ff408b32980a820b6742c7","fZUVT5F1DIPXd0MSpuiiBTjg2BG3","","","","","","","","","","","","","","","","","","7000","","",""
"html-keyboard-response","175","381055","0.0-72.0-3.0","","null","<div style='margin:auto;width: auto; font-size: 150%'><span style='font-weight: bold; font-size: 100px; color: red;'>0 points!</span><br><br></div>","null","delaylearn","learning","feedback_image_window","65ff408b32980a820b6742c7","fZUVT5F1DIPXd0MSpuiiBTjg2BG3","","","","","","","","","","","","","","","","","","","","",""
"html-keyboard-response","176","383107","0.0-73.0","","null","<div style=""font-size:100px;"">+</div>","null","delaylearn","learning","ITI","65ff408b32980a820b6742c7","fZUVT5F1DIPXd0MSpuiiBTjg2BG3","","","","","","","","","","","","","","","","","","","2040","",""
"html-keyboard-response","177","384522","0.0-74.0-0.0","","1413","<div style=""display: flex; flex-direction: column; align-items: center; margin-top: -40px;""><img src=""images/pattern_3.png"" style=""width: 234px; height: 230px; margin-top: -50px;""><div style=""display: flex; justify-content: space-between; margin-top: 33px;""><img src=""images/choice_trial_6.png"" style=""width: 408px; height: 417px; margin-right: 200px;""><img src=""images/choice_trial_5.png"" style=""width: 408px; height: 417px;""></div></div>","j","delaylearn","learning","trial","65ff408b32980a820b6742c7","fZUVT5F1DIPXd0MSpuiiBTjg2BG3","1","images/choice_trial_6.png","images/choice_trial_5.png","images/pattern_3.png","j","j","7000","6","5","2","1","32","1","1","5","190","","","","",""
"html-keyboard-response","178","385527","0.0-74.0-1.0","","null","<div style=""display: flex; flex-direction: column; align-items: center; margin-top: -40px;""><img src=""images/pattern_3.png"" style=""width: 234px; height: 230px; margin-top: -50px;""><div style=""display: flex; justify-content: space-between; margin-top: 33px;""><img src=""images/choice_trial_5.png"" style=""width: 408px; height: 417px; margin-left:608px;""></div></div>","null","delaylearn","learning","display_response","65ff408b32980a820b6742c7","fZUVT5F1DIPXd0MSpuiiBTjg2BG3","","","","","","","","","","","","","","","","","chosen stimuli: images/choice_trial_5.png","","","",""
"html-keyboard-response","179","392531","0.0-74.0-2.0","","null","","null","delaylearn","learning","feedback_duration_window","65ff408b32980a820b6742c7","fZUVT5F1DIPXd0MSpuiiBTjg2BG3","","","","","","","","","","","","","","","","","","7000","","",""
"html-keyboard-response","180","394044","0.0-74.0-3.0","","null","<div style='margin:auto;width: auto; font-size: 150%'><span style='font-weight: bold; font-size: 100px; color: green;'>+10 points!</span><br><br></div>","null","delaylearn","learning","feedback_image_window","65ff408b32980a820b6742c7","fZUVT5F1DIPXd0MSpuiiBTjg2BG3","","","","","","","","","","","","","","","","","","","","",""
"html-keyboard-response","181","396282","0.0-75.0","","null","<div style=""font-size:100px;"">+</div>","null","delaylearn","learning","ITI","65ff408b32980a820b6742c7","fZUVT5F1DIPXd0MSpuiiBTjg2BG3","","","","","","","","","","","","","","","","","","","2227","",""
"html-keyboard-response","182","398381","0.0-76.0-0.0","","2097","<div style=""display: flex; flex-direction: column; align-items: center; margin-top: -40px;""><img src=""images/pattern_5.png"" style=""width: 234px; height: 230px; margin-top: -50px;""><div style=""display: flex; justify-content: space-between; margin-top: 33px;""><img src=""images/choice_trial_9.png"" style=""width: 408px; height: 417px; margin-right: 200px;""><img src=""images/choice_trial_10.png"" style=""width: 408px; height: 417px;""></div></div>","f","delaylearn","learning","trial","65ff408b32980a820b6742c7","fZUVT5F1DIPXd0MSpuiiBTjg2BG3","1","images/choice_trial_9.png","images/choice_trial_10.png","images/pattern_5.png","j","f","750","9","10","4","0","33","1","0","9","190","","","","",""
"html-keyboard-response","183","399386","0.0-76.0-1.0","","null","<div style=""display: flex; flex-direction: column; align-items: center; margin-top: -40px;""><img src=""images/pattern_5.png"" style=""width: 234px; height: 230px; margin-top: -50px;""><div style=""display: flex; justify-content: space-between; margin-top: 33px;""><img src=""images/choice_trial_9.png"" style=""width: 408px; height: 417px; margin-right: 608px;""></div></div>","null","delaylearn","learning","display_response","65ff408b32980a820b6742c7","fZUVT5F1DIPXd0MSpuiiBTjg2BG3","","","","","","","","","","","","","","","","","chosen stimuli: images/choice_trial_9.png","","","",""
"html-keyboard-response","184","400142","0.0-76.0-2.0","","null","","null","delaylearn","learning","feedback_duration_window","65ff408b32980a820b6742c7","fZUVT5F1DIPXd0MSpuiiBTjg2BG3","","","","","","","","","","","","","","","","","","750","","",""
"html-keyboard-response","185","401655","0.0-76.0-3.0","","null","<div style='margin:auto;width: auto; font-size: 150%'><span style='font-weight: bold; font-size: 100px; color: red;'>0 points!</span><br><br></div>","null","delaylearn","learning","feedback_image_window","65ff408b32980a820b6742c7","fZUVT5F1DIPXd0MSpuiiBTjg2BG3","","","","","","","","","","","","","","","","","","","","",""
"html-keyboard-response","186","403601","0.0-77.0","","null","<div style=""font-size:100px;"">+</div>","null","delaylearn","learning","ITI","65ff408b32980a820b6742c7","fZUVT5F1DIPXd0MSpuiiBTjg2BG3","","","","","","","","","","","","","","","","","","","1943","",""
"html-keyboard-response","187","404505","0.0-78.0-0.0","","902","<div style=""display: flex; flex-direction: column; align-items: center; margin-top: -40px;""><img src=""images/pattern_1.png"" style=""width: 234px; height: 230px; margin-top: -50px;""><div style=""display: flex; justify-content: space-between; margin-top: 33px;""><img src=""images/choice_trial_1.png"" style=""width: 408px; height: 417px; margin-right: 200px;""><img src=""images/choice_trial_2.png"" style=""width: 408px; height: 417px;""></div></div>","j","delaylearn","learning","trial","65ff408b32980a820b6742c7","fZUVT5F1DIPXd0MSpuiiBTjg2BG3","1","images/choice_trial_1.png","images/choice_trial_2.png","images/pattern_1.png","f","f","7000","1","2","1","0","34","0","0","2","190","","","","",""
"html-keyboard-response","188","405513","0.0-78.0-1.0","","null","<div style=""display: flex; flex-direction: column; align-items: center; margin-top: -40px;""><img src=""images/pattern_1.png"" style=""width: 234px; height: 230px; margin-top: -50px;""><div style=""display: flex; justify-content: space-between; margin-top: 33px;""><img src=""images/choice_trial_2.png"" style=""width: 408px; height: 417px; margin-left:608px;""></div></div>","null","delaylearn","learning","display_response","65ff408b32980a820b6742c7","fZUVT5F1DIPXd0MSpuiiBTjg2BG3","","","","","","","","","","","","","","","","","chosen stimuli: images/choice_trial_2.png","","","",""
"html-keyboard-response","189","412524","0.0-78.0-2.0","","null","","null","delaylearn","learning","feedback_duration_window","65ff408b32980a820b6742c7","fZUVT5F1DIPXd0MSpuiiBTjg2BG3","","","","","","","","","","","","","","","","","","7000","","",""
"html-keyboard-response","190","414038","0.0-78.0-3.0","","null","<div style='margin:auto;width: auto; font-size: 150%'><span style='font-weight: bold; font-size: 100px; color: red;'>0 points!</span><br><br></div>","null","delaylearn","learning","feedback_image_window","65ff408b32980a820b6742c7","fZUVT5F1DIPXd0MSpuiiBTjg2BG3","","","","","","","","","","","","","","","","","","","","",""
"html-keyboard-response","191","414546","0.0-79.0-0.0","","null","","null","","","mood_trial_fixation","","","","","","","","","","","","","","","","","","","","","","",""
"lmdlab-html-vas-response","192","418821","0.0-79.0-1.0","","3270","How happy are you right now?","0.4861111111111111","delaylearn","learning","mood_trial","65ff408b32980a820b6742c7","fZUVT5F1DIPXd0MSpuiiBTjg2BG3","","","","","","","","","","","","","","","","","","","","[""Very unhappy"",""Very happy""]",""
"html-keyboard-response","193","420793","0.0-80.0","","null","<div style=""font-size:100px;"">+</div>","null","delaylearn","learning","ITI","65ff408b32980a820b6742c7","fZUVT5F1DIPXd0MSpuiiBTjg2BG3","","","","","","","","","","","","","","","","","","","1961","",""
"html-keyboard-response","194","422180","0.0-81.0-0.0","","1386","<div style=""display: flex; flex-direction: column; align-items: center; margin-top: -40px;""><img src=""images/pattern_6.png"" style=""width: 234px; height: 230px; margin-top: -50px;""><div style=""display: flex; justify-content: space-between; margin-top: 33px;""><img src=""images/choice_trial_11.png"" style=""width: 408px; height: 417px; margin-right: 200px;""><img src=""images/choice_trial_12.png"" style=""width: 408px; height: 417px;""></div></div>","f","delaylearn","learning","trial","65ff408b32980a820b6742c7","fZUVT5F1DIPXd0MSpuiiBTjg2BG3","1","images/choice_trial_11.png","images/choice_trial_12.png","images/pattern_6.png","j","f","750","11","12","5","0","35","1","0","11","190","","","","",""
"html-keyboard-response","195","423183","0.0-81.0-1.0","","null","<div style=""display: flex; flex-direction: column; align-items: center; margin-top: -40px;""><img src=""images/pattern_6.png"" style=""width: 234px; height: 230px; margin-top: -50px;""><div style=""display: flex; justify-content: space-between; margin-top: 33px;""><img src=""images/choice_trial_11.png"" style=""width: 408px; height: 417px; margin-right: 608px;""></div></div>","null","delaylearn","learning","display_response","65ff408b32980a820b6742c7","fZUVT5F1DIPXd0MSpuiiBTjg2BG3","","","","","","","","","","","","","","","","","chosen stimuli: images/choice_trial_11.png","","","",""
"html-keyboard-response","196","423939","0.0-81.0-2.0","","null","","null","delaylearn","learning","feedback_duration_window","65ff408b32980a820b6742c7","fZUVT5F1DIPXd0MSpuiiBTjg2BG3","","","","","","","","","","","","","","","","","","750","","",""
"html-keyboard-response","197","425454","0.0-81.0-3.0","","null","<div style='margin:auto;width: auto; font-size: 150%'><span style='font-weight: bold; font-size: 100px; color: red;'>0 points!</span><br><br></div>","null","delaylearn","learning","feedback_image_window","65ff408b32980a820b6742c7","fZUVT5F1DIPXd0MSpuiiBTjg2BG3","","","","","","","","","","","","","","","","","","","","",""
"html-keyboard-response","198","427461","0.0-82.0","","null","<div style=""font-size:100px;"">+</div>","null","delaylearn","learning","ITI","65ff408b32980a820b6742c7","fZUVT5F1DIPXd0MSpuiiBTjg2BG3","","","","","","","","","","","","","","","","","","","2001","",""
"html-keyboard-response","199","428326","0.0-83.0-0.0","","864","<div style=""display: flex; flex-direction: column; align-items: center; margin-top: -40px;""><img src=""images/pattern_3.png"" style=""width: 234px; height: 230px; margin-top: -50px;""><div style=""display: flex; justify-content: space-between; margin-top: 33px;""><img src=""images/choice_trial_6.png"" style=""width: 408px; height: 417px; margin-right: 200px;""><img src=""images/choice_trial_5.png"" style=""width: 408px; height: 417px;""></div></div>","j","delaylearn","learning","trial","65ff408b32980a820b6742c7","fZUVT5F1DIPXd0MSpuiiBTjg2BG3","1","images/choice_trial_6.png","images/choice_trial_5.png","images/pattern_3.png","j","j","7000","6","5","2","1","36","1","1","5","200","","","","",""
"html-keyboard-response","200","429327","0.0-83.0-1.0","","null","<div style=""display: flex; flex-direction: column; align-items: center; margin-top: -40px;""><img src=""images/pattern_3.png"" style=""width: 234px; height: 230px; margin-top: -50px;""><div style=""display: flex; justify-content: space-between; margin-top: 33px;""><img src=""images/choice_trial_5.png"" style=""width: 408px; height: 417px; margin-left:608px;""></div></div>","null","delaylearn","learning","display_response","65ff408b32980a820b6742c7","fZUVT5F1DIPXd0MSpuiiBTjg2BG3","","","","","","","","","","","","","","","","","chosen stimuli: images/choice_trial_5.png","","","",""
"html-keyboard-response","201","436335","0.0-83.0-2.0","","null","","null","delaylearn","learning","feedback_duration_window","65ff408b32980a820b6742c7","fZUVT5F1DIPXd0MSpuiiBTjg2BG3","","","","","","","","","","","","","","","","","","7000","","",""
"html-keyboard-response","202","437848","0.0-83.0-3.0","","null","<div style='margin:auto;width: auto; font-size: 150%'><span style='font-weight: bold; font-size: 100px; color: green;'>+10 points!</span><br><br></div>","null","delaylearn","learning","feedback_image_window","65ff408b32980a820b6742c7","fZUVT5F1DIPXd0MSpuiiBTjg2BG3","","","","","","","","","","","","","","","","","","","","",""
"html-keyboard-response","203","439515","0.0-84.0","","null","<div style=""font-size:100px;"">+</div>","null","delaylearn","learning","ITI","65ff408b32980a820b6742c7","fZUVT5F1DIPXd0MSpuiiBTjg2BG3","","","","","","","","","","","","","","","","","","","1665","",""
"html-keyboard-response","204","442113","0.0-85.0-0.0","","2596","<div style=""display: flex; flex-direction: column; align-items: center; margin-top: -40px;""><img src=""images/pattern_4.png"" style=""width: 234px; height: 230px; margin-top: -50px;""><div style=""display: flex; justify-content: space-between; margin-top: 33px;""><img src=""images/choice_trial_8.png"" style=""width: 408px; height: 417px; margin-right: 200px;""><img src=""images/choice_trial_7.png"" style=""width: 408px; height: 417px;""></div></div>","j","delaylearn","learning","trial","65ff408b32980a820b6742c7","fZUVT5F1DIPXd0MSpuiiBTjg2BG3","1","images/choice_trial_8.png","images/choice_trial_7.png","images/pattern_4.png","f","j","7000","8","7","3","1","37","1","0","7","200","","","","",""
"html-keyboard-response","205","443142","0.0-85.0-1.0","","null","<div style=""display: flex; flex-direction: column; align-items: center; margin-top: -40px;""><img src=""images/pattern_4.png"" style=""width: 234px; height: 230px; margin-top: -50px;""><div style=""display: flex; justify-content: space-between; margin-top: 33px;""><img src=""images/choice_trial_7.png"" style=""width: 408px; height: 417px; margin-left:608px;""></div></div>","null","delaylearn","learning","display_response","65ff408b32980a820b6742c7","fZUVT5F1DIPXd0MSpuiiBTjg2BG3","","","","","","","","","","","","","","","","","chosen stimuli: images/choice_trial_7.png","","","",""
"html-keyboard-response","206","450152","0.0-85.0-2.0","","null","","null","delaylearn","learning","feedback_duration_window","65ff408b32980a820b6742c7","fZUVT5F1DIPXd0MSpuiiBTjg2BG3","","","","","","","","","","","","","","","","","","7000","","",""
"html-keyboard-response","207","451663","0.0-85.0-3.0","","null","<div style='margin:auto;width: auto; font-size: 150%'><span style='font-weight: bold; font-size: 100px; color: red;'>0 points!</span><br><br></div>","null","delaylearn","learning","feedback_image_window","65ff408b32980a820b6742c7","fZUVT5F1DIPXd0MSpuiiBTjg2BG3","","","","","","","","","","","","","","","","","","","","",""
"html-keyboard-response","208","453329","0.0-86.0","","null","<div style=""font-size:100px;"">+</div>","null","delaylearn","learning","ITI","65ff408b32980a820b6742c7","fZUVT5F1DIPXd0MSpuiiBTjg2BG3","","","","","","","","","","","","","","","","","","","1654","",""
"html-keyboard-response","209","455121","0.0-87.0-0.0","","1789","<div style=""display: flex; flex-direction: column; align-items: center; margin-top: -40px;""><img src=""images/pattern_7.png"" style=""width: 234px; height: 230px; margin-top: -50px;""><div style=""display: flex; justify-content: space-between; margin-top: 33px;""><img src=""images/choice_trial_13.png"" style=""width: 408px; height: 417px; margin-right: 200px;""><img src=""images/choice_trial_14.png"" style=""width: 408px; height: 417px;""></div></div>","j","delaylearn","learning","trial","65ff408b32980a820b6742c7","fZUVT5F1DIPXd0MSpuiiBTjg2BG3","1","images/choice_trial_13.png","images/choice_trial_14.png","images/pattern_7.png","f","f","750","13","14","6","0","38","0","0","14","200","","","","",""
"html-keyboard-response","210","456123","0.0-87.0-1.0","","null","<div style=""display: flex; flex-direction: column; align-items: center; margin-top: -40px;""><img src=""images/pattern_7.png"" style=""width: 234px; height: 230px; margin-top: -50px;""><div style=""display: flex; justify-content: space-between; margin-top: 33px;""><img src=""images/choice_trial_14.png"" style=""width: 408px; height: 417px; margin-left:608px;""></div></div>","null","delaylearn","learning","display_response","65ff408b32980a820b6742c7","fZUVT5F1DIPXd0MSpuiiBTjg2BG3","","","","","","","","","","","","","","","","","chosen stimuli: images/choice_trial_14.png","","","",""
"html-keyboard-response","211","456879","0.0-87.0-2.0","","null","","null","delaylearn","learning","feedback_duration_window","65ff408b32980a820b6742c7","fZUVT5F1DIPXd0MSpuiiBTjg2BG3","","","","","","","","","","","","","","","","","","750","","",""
"html-keyboard-response","212","458390","0.0-87.0-3.0","","null","<div style='margin:auto;width: auto; font-size: 150%'><span style='font-weight: bold; font-size: 100px; color: red;'>0 points!</span><br><br></div>","null","delaylearn","learning","feedback_image_window","65ff408b32980a820b6742c7","fZUVT5F1DIPXd0MSpuiiBTjg2BG3","","","","","","","","","","","","","","","","","","","","",""
"html-keyboard-response","213","460525","0.0-88.0","","null","<div style=""font-size:100px;"">+</div>","null","delaylearn","learning","ITI","65ff408b32980a820b6742c7","fZUVT5F1DIPXd0MSpuiiBTjg2BG3","","","","","","","","","","","","","","","","","","","2058","",""
"html-keyboard-response","214","463008","0.0-89.0-0.0","","2481","<div style=""display: flex; flex-direction: column; align-items: center; margin-top: -40px;""><img src=""images/pattern_1.png"" style=""width: 234px; height: 230px; margin-top: -50px;""><div style=""display: flex; justify-content: space-between; margin-top: 33px;""><img src=""images/choice_trial_1.png"" style=""width: 408px; height: 417px; margin-right: 200px;""><img src=""images/choice_trial_2.png"" style=""width: 408px; height: 417px;""></div></div>","j","delaylearn","learning","trial","65ff408b32980a820b6742c7","fZUVT5F1DIPXd0MSpuiiBTjg2BG3","1","images/choice_trial_1.png","images/choice_trial_2.png","images/pattern_1.png","f","f","7000","1","2","1","0","39","0","0","2","200","","","","",""
"html-keyboard-response","215","464013","0.0-89.0-1.0","","null","<div style=""display: flex; flex-direction: column; align-items: center; margin-top: -40px;""><img src=""images/pattern_1.png"" style=""width: 234px; height: 230px; margin-top: -50px;""><div style=""display: flex; justify-content: space-between; margin-top: 33px;""><img src=""images/choice_trial_2.png"" style=""width: 408px; height: 417px; margin-left:608px;""></div></div>","null","delaylearn","learning","display_response","65ff408b32980a820b6742c7","fZUVT5F1DIPXd0MSpuiiBTjg2BG3","","","","","","","","","","","","","","","","","chosen stimuli: images/choice_trial_2.png","","","",""
"html-keyboard-response","216","471022","0.0-89.0-2.0","","null","","null","delaylearn","learning","feedback_duration_window","65ff408b32980a820b6742c7","fZUVT5F1DIPXd0MSpuiiBTjg2BG3","","","","","","","","","","","","","","","","","","7000","","",""
"html-keyboard-response","217","472523","0.0-89.0-3.0","","null","<div style='margin:auto;width: auto; font-size: 150%'><span style='font-weight: bold; font-size: 100px; color: red;'>0 points!</span><br><br></div>","null","delaylearn","learning","feedback_image_window","65ff408b32980a820b6742c7","fZUVT5F1DIPXd0MSpuiiBTjg2BG3","","","","","","","","","","","","","","","","","","","","",""
"html-keyboard-response","218","473031","0.0-90.0-0.0","","null","","null","","","mood_trial_fixation","","","","","","","","","","","","","","","","","","","","","","",""
"lmdlab-html-vas-response","219","478534","0.0-90.0-1.0","","4497","How happy are you right now?","0.5154320987654321","delaylearn","learning","mood_trial","65ff408b32980a820b6742c7","fZUVT5F1DIPXd0MSpuiiBTjg2BG3","","","","","","","","","","","","","","","","","","","","[""Very unhappy"",""Very happy""]",""
"html-keyboard-response","220","480918","0.0-91.0","","null","<div style=""font-size:100px;"">+</div>","null","delaylearn","learning","ITI","65ff408b32980a820b6742c7","fZUVT5F1DIPXd0MSpuiiBTjg2BG3","","","","","","","","","","","","","","","","","","","2377","",""
"html-keyboard-response","221","482228","0.0-92.0-0.0","","1308","<div style=""display: flex; flex-direction: column; align-items: center; margin-top: -40px;""><img src=""images/pattern_3.png"" style=""width: 234px; height: 230px; margin-top: -50px;""><div style=""display: flex; justify-content: space-between; margin-top: 33px;""><img src=""images/choice_trial_5.png"" style=""width: 408px; height: 417px; margin-right: 200px;""><img src=""images/choice_trial_6.png"" style=""width: 408px; height: 417px;""></div></div>","f","delaylearn","learning","trial","65ff408b32980a820b6742c7","fZUVT5F1DIPXd0MSpuiiBTjg2BG3","1","images/choice_trial_5.png","images/choice_trial_6.png","images/pattern_3.png","j","f","7000","5","6","2","0","40","1","0","5","200","","","","",""
"html-keyboard-response","222","483234","0.0-92.0-1.0","","null","<div style=""display: flex; flex-direction: column; align-items: center; margin-top: -40px;""><img src=""images/pattern_3.png"" style=""width: 234px; height: 230px; margin-top: -50px;""><div style=""display: flex; justify-content: space-between; margin-top: 33px;""><img src=""images/choice_trial_5.png"" style=""width: 408px; height: 417px; margin-right: 608px;""></div></div>","null","delaylearn","learning","display_response","65ff408b32980a820b6742c7","fZUVT5F1DIPXd0MSpuiiBTjg2BG3","","","","","","","","","","","","","","","","","chosen stimuli: images/choice_trial_5.png","","","",""
