"trial_type","trial_index","time_elapsed","internal_node_id","participant","rt","stimulus","response","exp_name","exp_stage","test_part","subjectID","databaseID","counterbal","choice_stimuli_1","choice_stimuli_2","pattern_stimuli","rewarded_answer","correct_answer","feedback_duration_times","stim_left","stim_right","pair","leftright_counter","trial","response_correct","response_rewarded","chosen_stim","counter","displayed_choice","feedback_durations","ITI_duration","labels","rest_warning"
"pavlovia","0","533","0.0-0.0","","","","","","","","","","","","","","","","","","","","","","","","","","","","","",""
"html-keyboard-response","1","3548","0.0-1.0","","null","<div style=""font-size:100px;"">+</div>","null","delaylearn","learning","pre_fixation","6550b51dbab4d79efbc6b214","","","","","","","","","","","","","","","","","","","","","",""
"html-keyboard-response","2","5907","0.0-2.0-0.0","","2357.399999976158","<div style=""display: flex; flex-direction: column; align-items: center; margin-top: -40px;""><img src=""images/demo_images/pattern_1.png"" style=""width: 234px; height: 230px; margin-top: -50px;""><div style=""display: flex; justify-content: space-between; margin-top: 33px;""><img src=""images/demo_images/choice_trial_2.png"" style=""width: 408px; height: 417px; margin-right: 200px;""><img src=""images/demo_images/choice_trial_1.png"" style=""width: 408px; height: 417px;""></div></div>","j","delaylearn","learning","trial","6550b51dbab4d79efbc6b214","bdlyjxuKp0gNtMP9dA0r3xAyVkX2","3","images/demo_images/choice_trial_2.png","images/demo_images/choice_trial_1.png","images/demo_images/pattern_1.png","j","j","3000","2","1","20","1","1","1","1","1","10","","","","",""
"html-keyboard-response","3","6922","0.0-2.0-1.0","","null","<div style=""display: flex; flex-direction: column; align-items: center; margin-top: -40px;""><img src=""images/demo_images/pattern_1.png"" style=""width: 234px; height: 230px; margin-top: -50px;""><div style=""display: flex; justify-content: space-between; margin-top: 33px;""><img src=""images/demo_images/choice_trial_1.png"" style=""width: 408px; height: 417px; margin-left:608px;""></div></div>","null","delaylearn","learning","display_response","6550b51dbab4d79efbc6b214","bdlyjxuKp0gNtMP9dA0r3xAyVkX2","","","","","","","","","","","","","","","","","chosen stimuli: images/demo_images/choice_trial_1.png","","","",""
"html-keyboard-response","4","9929","0.0-2.0-2.0","","null","","null","delaylearn","learning","feedback_duration_window","6550b51dbab4d79efbc6b214","bdlyjxuKp0gNtMP9dA0r3xAyVkX2","","","","","","","","","","","","","","","","","","3000","","",""
"html-keyboard-response","5","11438","0.0-2.0-3.0","","null","<div style='margin:auto;width: auto; font-size: 150%'><span style='font-weight: bold; font-size: 100px; color: green;'>+10 points!</span><br><br></div>","null","delaylearn","learning","feedback_image_window","6550b51dbab4d79efbc6b214","bdlyjxuKp0gNtMP9dA0r3xAyVkX2","","","","","","","","","","","","","","","","","","","","",""
"html-keyboard-response","6","13280","0.0-3.0","","null","<div style=""font-size:100px;"">+</div>","null","delaylearn","learning","ITI","6550b51dbab4d79efbc6b214","bdlyjxuKp0gNtMP9dA0r3xAyVkX2","","","","","","","","","","","","","","","","","","","1841","",""
"html-keyboard-response","7","14618","0.0-4.0-0.0","","1335.8999999761581","<div style=""display: flex; flex-direction: column; align-items: center; margin-top: -40px;""><img src=""images/demo_images/pattern_1.png"" style=""width: 234px; height: 230px; margin-top: -50px;""><div style=""display: flex; justify-content: space-between; margin-top: 33px;""><img src=""images/demo_images/choice_trial_2.png"" style=""width: 408px; height: 417px; margin-right: 200px;""><img src=""images/demo_images/choice_trial_1.png"" style=""width: 408px; height: 417px;""></div></div>","j","delaylearn","learning","trial","6550b51dbab4d79efbc6b214","bdlyjxuKp0gNtMP9dA0r3xAyVkX2","3","images/demo_images/choice_trial_2.png","images/demo_images/choice_trial_1.png","images/demo_images/pattern_1.png","j","j","3000","2","1","20","1","2","1","1","1","20","","","","",""
"html-keyboard-response","8","15633","0.0-4.0-1.0","","null","<div style=""display: flex; flex-direction: column; align-items: center; margin-top: -40px;""><img src=""images/demo_images/pattern_1.png"" style=""width: 234px; height: 230px; margin-top: -50px;""><div style=""display: flex; justify-content: space-between; margin-top: 33px;""><img src=""images/demo_images/choice_trial_1.png"" style=""width: 408px; height: 417px; margin-left:608px;""></div></div>","null","delaylearn","learning","display_response","6550b51dbab4d79efbc6b214","bdlyjxuKp0gNtMP9dA0r3xAyVkX2","","","","","","","","","","","","","","","","","chosen stimuli: images/demo_images/choice_trial_1.png","","","",""
"html-keyboard-response","9","18649","0.0-4.0-2.0","","null","","null","delaylearn","learning","feedback_duration_window","6550b51dbab4d79efbc6b214","bdlyjxuKp0gNtMP9dA0r3xAyVkX2","","","","","","","","","","","","","","","","","","3000","","",""
"html-keyboard-response","10","20160","0.0-4.0-3.0","","null","<div style='margin:auto;width: auto; font-size: 150%'><span style='font-weight: bold; font-size: 100px; color: green;'>+10 points!</span><br><br></div>","null","delaylearn","learning","feedback_image_window","6550b51dbab4d79efbc6b214","bdlyjxuKp0gNtMP9dA0r3xAyVkX2","","","","","","","","","","","","","","","","","","","","",""
"html-keyboard-response","11","22433","0.0-5.0","","null","<div style=""font-size:100px;"">+</div>","null","delaylearn","learning","ITI","6550b51dbab4d79efbc6b214","bdlyjxuKp0gNtMP9dA0r3xAyVkX2","","","","","","","","","","","","","","","","","","","2270","",""
"html-keyboard-response","12","23733","0.0-6.0-0.0","","1298","<div style=""display: flex; flex-direction: column; align-items: center; margin-top: -40px;""><img src=""images/demo_images/pattern_1.png"" style=""width: 234px; height: 230px; margin-top: -50px;""><div style=""display: flex; justify-content: space-between; margin-top: 33px;""><img src=""images/demo_images/choice_trial_1.png"" style=""width: 408px; height: 417px; margin-right: 200px;""><img src=""images/demo_images/choice_trial_2.png"" style=""width: 408px; height: 417px;""></div></div>","f","delaylearn","learning","trial","6550b51dbab4d79efbc6b214","bdlyjxuKp0gNtMP9dA0r3xAyVkX2","3","images/demo_images/choice_trial_1.png","images/demo_images/choice_trial_2.png","images/demo_images/pattern_1.png","j","f","3000","1","2","20","0","3","1","0","1","20","","","","",""
"html-keyboard-response","13","24748","0.0-6.0-1.0","","null","<div style=""display: flex; flex-direction: column; align-items: center; margin-top: -40px;""><img src=""images/demo_images/pattern_1.png"" style=""width: 234px; height: 230px; margin-top: -50px;""><div style=""display: flex; justify-content: space-between; margin-top: 33px;""><img src=""images/demo_images/choice_trial_1.png"" style=""width: 408px; height: 417px; margin-right: 608px;""></div></div>","null","delaylearn","learning","display_response","6550b51dbab4d79efbc6b214","bdlyjxuKp0gNtMP9dA0r3xAyVkX2","","","","","","","","","","","","","","","","","chosen stimuli: images/demo_images/choice_trial_1.png","","","",""
"html-keyboard-response","14","27754","0.0-6.0-2.0","","null","","null","delaylearn","learning","feedback_duration_window","6550b51dbab4d79efbc6b214","bdlyjxuKp0gNtMP9dA0r3xAyVkX2","","","","","","","","","","","","","","","","","","3000","","",""
"html-keyboard-response","15","29263","0.0-6.0-3.0","","null","<div style='margin:auto;width: auto; font-size: 150%'><span style='font-weight: bold; font-size: 100px; color: red;'>0 points!</span><br><br></div>","null","delaylearn","learning","feedback_image_window","6550b51dbab4d79efbc6b214","bdlyjxuKp0gNtMP9dA0r3xAyVkX2","","","","","","","","","","","","","","","","","","","","",""
"html-keyboard-response","16","31042","0.0-7.0","","null","<div style=""font-size:100px;"">+</div>","null","delaylearn","learning","ITI","6550b51dbab4d79efbc6b214","bdlyjxuKp0gNtMP9dA0r3xAyVkX2","","","","","","","","","","","","","","","","","","","1766","",""
"html-keyboard-response","17","32123","0.0-8.0-0.0","","1079.3000000715256","<div style=""display: flex; flex-direction: column; align-items: center; margin-top: -40px;""><img src=""images/demo_images/pattern_1.png"" style=""width: 234px; height: 230px; margin-top: -50px;""><div style=""display: flex; justify-content: space-between; margin-top: 33px;""><img src=""images/demo_images/choice_trial_1.png"" style=""width: 408px; height: 417px; margin-right: 200px;""><img src=""images/demo_images/choice_trial_2.png"" style=""width: 408px; height: 417px;""></div></div>","j","delaylearn","learning","trial","6550b51dbab4d79efbc6b214","bdlyjxuKp0gNtMP9dA0r3xAyVkX2","3","images/demo_images/choice_trial_1.png","images/demo_images/choice_trial_2.png","images/demo_images/pattern_1.png","f","f","3000","1","2","20","0","4","0","0","2","20","","","","",""
"html-keyboard-response","18","33128","0.0-8.0-1.0","","null","<div style=""display: flex; flex-direction: column; align-items: center; margin-top: -40px;""><img src=""images/demo_images/pattern_1.png"" style=""width: 234px; height: 230px; margin-top: -50px;""><div style=""display: flex; justify-content: space-between; margin-top: 33px;""><img src=""images/demo_images/choice_trial_2.png"" style=""width: 408px; height: 417px; margin-left:608px;""></div></div>","null","delaylearn","learning","display_response","6550b51dbab4d79efbc6b214","bdlyjxuKp0gNtMP9dA0r3xAyVkX2","","","","","","","","","","","","","","","","","chosen stimuli: images/demo_images/choice_trial_2.png","","","",""
"html-keyboard-response","19","36140","0.0-8.0-2.0","","null","","null","delaylearn","learning","feedback_duration_window","6550b51dbab4d79efbc6b214","bdlyjxuKp0gNtMP9dA0r3xAyVkX2","","","","","","","","","","","","","","","","","","3000","","",""
"html-keyboard-response","20","37645","0.0-8.0-3.0","","null","<div style='margin:auto;width: auto; font-size: 150%'><span style='font-weight: bold; font-size: 100px; color: red;'>0 points!</span><br><br></div>","null","delaylearn","learning","feedback_image_window","6550b51dbab4d79efbc6b214","bdlyjxuKp0gNtMP9dA0r3xAyVkX2","","","","","","","","","","","","","","","","","","","","",""
"html-keyboard-response","21","38160","0.0-9.0-0.0","","null","","null","","","mood_trial_fixation","","","","","","","","","","","","","","","","","","","","","","",""
"lmdlab-html-vas-response","22","42596","0.0-9.0-1.0","","3427","How happy are you right now?","0.470679012345679","delaylearn","learning","mood_trial","6550b51dbab4d79efbc6b214","bdlyjxuKp0gNtMP9dA0r3xAyVkX2","","","","","","","","","","","","","","","","","","","","[""Very unhappy"",""Very happy""]",""
"html-keyboard-response","23","44866","0.0-10.0","","null","<div style=""font-size:100px;"">+</div>","null","delaylearn","learning","ITI","6550b51dbab4d79efbc6b214","bdlyjxuKp0gNtMP9dA0r3xAyVkX2","","","","","","","","","","","","","","","","","","","2266","",""
"html-keyboard-response","24","47461","0.0-11.0-0.0","","2599.3000000715256","<div style=""display: flex; flex-direction: column; align-items: center; margin-top: -40px;""><img src=""images/demo_images/pattern_1.png"" style=""width: 234px; height: 230px; margin-top: -50px;""><div style=""display: flex; justify-content: space-between; margin-top: 33px;""><img src=""images/demo_images/choice_trial_2.png"" style=""width: 408px; height: 417px; margin-right: 200px;""><img src=""images/demo_images/choice_trial_1.png"" style=""width: 408px; height: 417px;""></div></div>","j","delaylearn","learning","trial","6550b51dbab4d79efbc6b214","bdlyjxuKp0gNtMP9dA0r3xAyVkX2","3","images/demo_images/choice_trial_2.png","images/demo_images/choice_trial_1.png","images/demo_images/pattern_1.png","j","j","3000","2","1","20","1","5","1","1","1","30","","","","",""
"html-keyboard-response","25","48468","0.0-11.0-1.0","","null","<div style=""display: flex; flex-direction: column; align-items: center; margin-top: -40px;""><img src=""images/demo_images/pattern_1.png"" style=""width: 234px; height: 230px; margin-top: -50px;""><div style=""display: flex; justify-content: space-between; margin-top: 33px;""><img src=""images/demo_images/choice_trial_1.png"" style=""width: 408px; height: 417px; margin-left:608px;""></div></div>","null","delaylearn","learning","display_response","6550b51dbab4d79efbc6b214","bdlyjxuKp0gNtMP9dA0r3xAyVkX2","","","","","","","","","","","","","","","","","chosen stimuli: images/demo_images/choice_trial_1.png","","","",""
"html-keyboard-response","26","51485","0.0-11.0-2.0","","null","","null","delaylearn","learning","feedback_duration_window","6550b51dbab4d79efbc6b214","bdlyjxuKp0gNtMP9dA0r3xAyVkX2","","","","","","","","","","","","","","","","","","3000","","",""
"html-keyboard-response","27","52994","0.0-11.0-3.0","","null","<div style='margin:auto;width: auto; font-size: 150%'><span style='font-weight: bold; font-size: 100px; color: green;'>+10 points!</span><br><br></div>","null","delaylearn","learning","feedback_image_window","6550b51dbab4d79efbc6b214","bdlyjxuKp0gNtMP9dA0r3xAyVkX2","","","","","","","","","","","","","","","","","","","","",""
"html-keyboard-response","28","55258","0.0-12.0","","null","<div style=""font-size:100px;"">+</div>","null","delaylearn","learning","ITI","6550b51dbab4d79efbc6b214","bdlyjxuKp0gNtMP9dA0r3xAyVkX2","","","","","","","","","","","","","","","","","","","2263","",""
"html-keyboard-response","29","57375","0.0-13.0-0.0","","2115.1999999284744","<div style=""display: flex; flex-direction: column; align-items: center; margin-top: -40px;""><img src=""images/demo_images/pattern_1.png"" style=""width: 234px; height: 230px; margin-top: -50px;""><div style=""display: flex; justify-content: space-between; margin-top: 33px;""><img src=""images/demo_images/choice_trial_1.png"" style=""width: 408px; height: 417px; margin-right: 200px;""><img src=""images/demo_images/choice_trial_2.png"" style=""width: 408px; height: 417px;""></div></div>","f","delaylearn","learning","trial","6550b51dbab4d79efbc6b214","bdlyjxuKp0gNtMP9dA0r3xAyVkX2","3","images/demo_images/choice_trial_1.png","images/demo_images/choice_trial_2.png","images/demo_images/pattern_1.png","f","f","3000","1","2","20","0","6","1","1","1","40","","","","",""
"html-keyboard-response","30","58391","0.0-13.0-1.0","","null","<div style=""display: flex; flex-direction: column; align-items: center; margin-top: -40px;""><img src=""images/demo_images/pattern_1.png"" style=""width: 234px; height: 230px; margin-top: -50px;""><div style=""display: flex; justify-content: space-between; margin-top: 33px;""><img src=""images/demo_images/choice_trial_1.png"" style=""width: 408px; height: 417px; margin-right: 608px;""></div></div>","null","delaylearn","learning","display_response","6550b51dbab4d79efbc6b214","bdlyjxuKp0gNtMP9dA0r3xAyVkX2","","","","","","","","","","","","","","","","","chosen stimuli: images/demo_images/choice_trial_1.png","","","",""
"html-keyboard-response","31","61406","0.0-13.0-2.0","","null","","null","delaylearn","learning","feedback_duration_window","6550b51dbab4d79efbc6b214","bdlyjxuKp0gNtMP9dA0r3xAyVkX2","","","","","","","","","","","","","","","","","","3000","","",""
"html-keyboard-response","32","62912","0.0-13.0-3.0","","null","<div style='margin:auto;width: auto; font-size: 150%'><span style='font-weight: bold; font-size: 100px; color: green;'>+10 points!</span><br><br></div>","null","delaylearn","learning","feedback_image_window","6550b51dbab4d79efbc6b214","bdlyjxuKp0gNtMP9dA0r3xAyVkX2","","","","","","","","","","","","","","","","","","","","",""
"html-keyboard-response","33","64888","0.0-14.0","","null","<div style=""font-size:100px;"">+</div>","null","delaylearn","learning","ITI","6550b51dbab4d79efbc6b214","bdlyjxuKp0gNtMP9dA0r3xAyVkX2","","","","","","","","","","","","","","","","","","","1974","",""
"html-keyboard-response","34","66911","0.0-15.0-0.0","","2020.3999999761581","<div style=""display: flex; flex-direction: column; align-items: center; margin-top: -40px;""><img src=""images/demo_images/pattern_1.png"" style=""width: 234px; height: 230px; margin-top: -50px;""><div style=""display: flex; justify-content: space-between; margin-top: 33px;""><img src=""images/demo_images/choice_trial_2.png"" style=""width: 408px; height: 417px; margin-right: 200px;""><img src=""images/demo_images/choice_trial_1.png"" style=""width: 408px; height: 417px;""></div></div>","j","delaylearn","learning","trial","6550b51dbab4d79efbc6b214","bdlyjxuKp0gNtMP9dA0r3xAyVkX2","3","images/demo_images/choice_trial_2.png","images/demo_images/choice_trial_1.png","images/demo_images/pattern_1.png","j","j","3000","2","1","20","1","7","1","1","1","50","","","","",""
"html-keyboard-response","35","67918","0.0-15.0-1.0","","null","<div style=""display: flex; flex-direction: column; align-items: center; margin-top: -40px;""><img src=""images/demo_images/pattern_1.png"" style=""width: 234px; height: 230px; margin-top: -50px;""><div style=""display: flex; justify-content: space-between; margin-top: 33px;""><img src=""images/demo_images/choice_trial_1.png"" style=""width: 408px; height: 417px; margin-left:608px;""></div></div>","null","delaylearn","learning","display_response","6550b51dbab4d79efbc6b214","bdlyjxuKp0gNtMP9dA0r3xAyVkX2","","","","","","","","","","","","","","","","","chosen stimuli: images/demo_images/choice_trial_1.png","","","",""
"html-keyboard-response","36","70923","0.0-15.0-2.0","","null","","null","delaylearn","learning","feedback_duration_window","6550b51dbab4d79efbc6b214","bdlyjxuKp0gNtMP9dA0r3xAyVkX2","","","","","","","","","","","","","","","","","","3000","","",""
"html-keyboard-response","37","72435","0.0-15.0-3.0","","null","<div style='margin:auto;width: auto; font-size: 150%'><span style='font-weight: bold; font-size: 100px; color: green;'>+10 points!</span><br><br></div>","null","delaylearn","learning","feedback_image_window","6550b51dbab4d79efbc6b214","bdlyjxuKp0gNtMP9dA0r3xAyVkX2","","","","","","","","","","","","","","","","","","","","",""
"html-keyboard-response","38","74296","0.0-16.0","","null","<div style=""font-size:100px;"">+</div>","null","delaylearn","learning","ITI","6550b51dbab4d79efbc6b214","bdlyjxuKp0gNtMP9dA0r3xAyVkX2","","","","","","","","","","","","","","","","","","","1858","",""
"html-keyboard-response","39","75769","0.0-17.0-0.0","","1471.8000000715256","<div style=""display: flex; flex-direction: column; align-items: center; margin-top: -40px;""><img src=""images/demo_images/pattern_1.png"" style=""width: 234px; height: 230px; margin-top: -50px;""><div style=""display: flex; justify-content: space-between; margin-top: 33px;""><img src=""images/demo_images/choice_trial_1.png"" style=""width: 408px; height: 417px; margin-right: 200px;""><img src=""images/demo_images/choice_trial_2.png"" style=""width: 408px; height: 417px;""></div></div>","f","delaylearn","learning","trial","6550b51dbab4d79efbc6b214","bdlyjxuKp0gNtMP9dA0r3xAyVkX2","3","images/demo_images/choice_trial_1.png","images/demo_images/choice_trial_2.png","images/demo_images/pattern_1.png","f","f","3000","1","2","20","0","8","1","1","1","60","","","","",""
"html-keyboard-response","40","76779","0.0-17.0-1.0","","null","<div style=""display: flex; flex-direction: column; align-items: center; margin-top: -40px;""><img src=""images/demo_images/pattern_1.png"" style=""width: 234px; height: 230px; margin-top: -50px;""><div style=""display: flex; justify-content: space-between; margin-top: 33px;""><img src=""images/demo_images/choice_trial_1.png"" style=""width: 408px; height: 417px; margin-right: 608px;""></div></div>","null","delaylearn","learning","display_response","6550b51dbab4d79efbc6b214","bdlyjxuKp0gNtMP9dA0r3xAyVkX2","","","","","","","","","","","","","","","","","chosen stimuli: images/demo_images/choice_trial_1.png","","","",""
"html-keyboard-response","41","79791","0.0-17.0-2.0","","null","","null","delaylearn","learning","feedback_duration_window","6550b51dbab4d79efbc6b214","bdlyjxuKp0gNtMP9dA0r3xAyVkX2","","","","","","","","","","","","","","","","","","3000","","",""
"html-keyboard-response","42","81293","0.0-17.0-3.0","","null","<div style='margin:auto;width: auto; font-size: 150%'><span style='font-weight: bold; font-size: 100px; color: green;'>+10 points!</span><br><br></div>","null","delaylearn","learning","feedback_image_window","6550b51dbab4d79efbc6b214","bdlyjxuKp0gNtMP9dA0r3xAyVkX2","","","","","","","","","","","","","","","","","","","","",""
"html-button-response","43","84574","0.0-18.0","","3279.5","
  <div style=""display: flex; align-items: center; justify-content: center; height: 80vh;"">
  <div>
          <img src=""images/inst_demo_finish.png"" style=""width: 80vw; height:auto;"">
          <br><br>
      </div>
      <br><br>
  </div>","0","","","","","","","","","","","","","","","","","","","","","","","","","",""
"html-keyboard-response","44","88915","0.0-19.0","","4339.5","
  <div style=""display: flex; align-items: center; justify-content: center; height: 80vh;"">
  <div>
          <img src=""images/inst_6.png"" style=""width: 80vw; height:auto;"">
          <br><br>
      </div>
      <br><br>
  </div>","j","","","","","","","","","","","","","","","","","","","","","","","","","",""
"html-keyboard-response","45","91918","0.0-20.0","","null","<div style=""font-size:100px;"">+</div>","null","delaylearn","learning","pre_fixation","6550b51dbab4d79efbc6b214","","","","","","","","","","","","","","","","","","","","","",""
"html-keyboard-response","46","93988","0.0-21.0","","null","<div style=""font-size:100px;"">+</div>","null","delaylearn","learning","ITI","6550b51dbab4d79efbc6b214","bdlyjxuKp0gNtMP9dA0r3xAyVkX2","","","","","","","","","","","","","","","","","","","2062","",""
"html-keyboard-response","47","96994","0.0-22.0-0.0","","null","<div style=""display: flex; flex-direction: column; align-items: center; margin-top: -40px;""><img src=""images/pattern_3.png"" style=""width: 234px; height: 230px; margin-top: -50px;""><div style=""display: flex; justify-content: space-between; margin-top: 33px;""><img src=""images/choice_trial_13.png"" style=""width: 408px; height: 417px; margin-right: 200px;""><img src=""images/choice_trial_10.png"" style=""width: 408px; height: 417px;""></div></div>","null","delaylearn","learning","trial","6550b51dbab4d79efbc6b214","bdlyjxuKp0gNtMP9dA0r3xAyVkX2","3","images/choice_trial_13.png","images/choice_trial_10.png","images/pattern_3.png","f","f","7000","13","10","2","0","9","0","0","0","60","","","","",""
"html-keyboard-response","48","98008","0.0-22.0-1.0","","null","<div style='font-weight: bold; font-size: 75px; color: red;'>Missed Trial <br><br><br><br> Please respond faster</div>","null","delaylearn","learning","display_response","6550b51dbab4d79efbc6b214","bdlyjxuKp0gNtMP9dA0r3xAyVkX2","","","","","","","","","","","","","","","","","Missed trial","","","",""
"html-keyboard-response","49","98015","0.0-22.0-2.0","","null","","null","delaylearn","learning","feedback_duration_window","6550b51dbab4d79efbc6b214","bdlyjxuKp0gNtMP9dA0r3xAyVkX2","","","","","","","","","","","","","","","","","","0","","",""
"html-keyboard-response","50","98020","0.0-22.0-3.0","","null","","null","delaylearn","learning","feedback_image_window","6550b51dbab4d79efbc6b214","bdlyjxuKp0gNtMP9dA0r3xAyVkX2","","","","","","","","","","","","","","","","","","","","",""
"html-keyboard-response","51","99801","0.0-23.0","","null","<div style=""font-size:100px;"">+</div>","null","delaylearn","learning","ITI","6550b51dbab4d79efbc6b214","bdlyjxuKp0gNtMP9dA0r3xAyVkX2","","","","","","","","","","","","","","","","","","","1776","",""
"html-keyboard-response","52","100556","0.0-24.0-0.0","","753.1999999284744","<div style=""display: flex; flex-direction: column; align-items: center; margin-top: -40px;""><img src=""images/pattern_7.png"" style=""width: 234px; height: 230px; margin-top: -50px;""><div style=""display: flex; justify-content: space-between; margin-top: 33px;""><img src=""images/choice_trial_12.png"" style=""width: 408px; height: 417px; margin-right: 200px;""><img src=""images/choice_trial_6.png"" style=""width: 408px; height: 417px;""></div></div>","j","delaylearn","learning","trial","6550b51dbab4d79efbc6b214","bdlyjxuKp0gNtMP9dA0r3xAyVkX2","3","images/choice_trial_12.png","images/choice_trial_6.png","images/pattern_7.png","j","j","750","12","6","6","1","10","1","1","6","70","","","","",""
"html-keyboard-response","53","101560","0.0-24.0-1.0","","null","<div style=""display: flex; flex-direction: column; align-items: center; margin-top: -40px;""><img src=""images/pattern_7.png"" style=""width: 234px; height: 230px; margin-top: -50px;""><div style=""display: flex; justify-content: space-between; margin-top: 33px;""><img src=""images/choice_trial_6.png"" style=""width: 408px; height: 417px; margin-left:608px;""></div></div>","null","delaylearn","learning","display_response","6550b51dbab4d79efbc6b214","bdlyjxuKp0gNtMP9dA0r3xAyVkX2","","","","","","","","","","","","","","","","","chosen stimuli: images/choice_trial_6.png","","","",""
"html-keyboard-response","54","102326","0.0-24.0-2.0","","null","","null","delaylearn","learning","feedback_duration_window","6550b51dbab4d79efbc6b214","bdlyjxuKp0gNtMP9dA0r3xAyVkX2","","","","","","","","","","","","","","","","","","750","","",""
"html-keyboard-response","55","103832","0.0-24.0-3.0","","null","<div style='margin:auto;width: auto; font-size: 150%'><span style='font-weight: bold; font-size: 100px; color: green;'>+10 points!</span><br><br></div>","null","delaylearn","learning","feedback_image_window","6550b51dbab4d79efbc6b214","bdlyjxuKp0gNtMP9dA0r3xAyVkX2","","","","","","","","","","","","","","","","","","","","",""
"html-keyboard-response","56","105355","0.0-25.0","","null","<div style=""font-size:100px;"">+</div>","null","delaylearn","learning","ITI","6550b51dbab4d79efbc6b214","bdlyjxuKp0gNtMP9dA0r3xAyVkX2","","","","","","","","","","","","","","","","","","","1519","",""
"html-keyboard-response","57","106193","0.0-26.0-0.0","","836.3999999761581","<div style=""display: flex; flex-direction: column; align-items: center; margin-top: -40px;""><img src=""images/pattern_4.png"" style=""width: 234px; height: 230px; margin-top: -50px;""><div style=""display: flex; justify-content: space-between; margin-top: 33px;""><img src=""images/choice_trial_15.png"" style=""width: 408px; height: 417px; margin-right: 200px;""><img src=""images/choice_trial_9.png"" style=""width: 408px; height: 417px;""></div></div>","f","delaylearn","learning","trial","6550b51dbab4d79efbc6b214","bdlyjxuKp0gNtMP9dA0r3xAyVkX2","3","images/choice_trial_15.png","images/choice_trial_9.png","images/pattern_4.png","f","f","7000","15","9","3","0","11","1","1","15","80","","","","",""
"html-keyboard-response","58","107200","0.0-26.0-1.0","","null","<div style=""display: flex; flex-direction: column; align-items: center; margin-top: -40px;""><img src=""images/pattern_4.png"" style=""width: 234px; height: 230px; margin-top: -50px;""><div style=""display: flex; justify-content: space-between; margin-top: 33px;""><img src=""images/choice_trial_15.png"" style=""width: 408px; height: 417px; margin-right: 608px;""></div></div>","null","delaylearn","learning","display_response","6550b51dbab4d79efbc6b214","bdlyjxuKp0gNtMP9dA0r3xAyVkX2","","","","","","","","","","","","","","","","","chosen stimuli: images/choice_trial_15.png","","","",""
"html-keyboard-response","59","114223","0.0-26.0-2.0","","null","","null","delaylearn","learning","feedback_duration_window","6550b51dbab4d79efbc6b214","bdlyjxuKp0gNtMP9dA0r3xAyVkX2","","","","","","","","","","","","","","","","","","7000","","",""
"html-keyboard-response","60","115728","0.0-26.0-3.0","","null","<div style='margin:auto;width: auto; font-size: 150%'><span style='font-weight: bold; font-size: 100px; color: green;'>+10 points!</span><br><br></div>","null","delaylearn","learning","feedback_image_window","6550b51dbab4d79efbc6b214","bdlyjxuKp0gNtMP9dA0r3xAyVkX2","","","","","","","","","","","","","","","","","","","","",""
"html-keyboard-response","61","117467","0.0-27.0","","null","<div style=""font-size:100px;"">+</div>","null","delaylearn","learning","ITI","6550b51dbab4d79efbc6b214","bdlyjxuKp0gNtMP9dA0r3xAyVkX2","","","","","","","","","","","","","","","","","","","1737","",""
"html-keyboard-response","62","118536","0.0-28.0-0.0","","1066.6000000238419","<div style=""display: flex; flex-direction: column; align-items: center; margin-top: -40px;""><img src=""images/pattern_5.png"" style=""width: 234px; height: 230px; margin-top: -50px;""><div style=""display: flex; justify-content: space-between; margin-top: 33px;""><img src=""images/choice_trial_2.png"" style=""width: 408px; height: 417px; margin-right: 200px;""><img src=""images/choice_trial_11.png"" style=""width: 408px; height: 417px;""></div></div>","j","delaylearn","learning","trial","6550b51dbab4d79efbc6b214","bdlyjxuKp0gNtMP9dA0r3xAyVkX2","3","images/choice_trial_2.png","images/choice_trial_11.png","images/pattern_5.png","j","j","750","2","11","4","1","12","1","1","11","90","","","","",""
"html-keyboard-response","63","119539","0.0-28.0-1.0","","null","<div style=""display: flex; flex-direction: column; align-items: center; margin-top: -40px;""><img src=""images/pattern_5.png"" style=""width: 234px; height: 230px; margin-top: -50px;""><div style=""display: flex; justify-content: space-between; margin-top: 33px;""><img src=""images/choice_trial_11.png"" style=""width: 408px; height: 417px; margin-left:608px;""></div></div>","null","delaylearn","learning","display_response","6550b51dbab4d79efbc6b214","bdlyjxuKp0gNtMP9dA0r3xAyVkX2","","","","","","","","","","","","","","","","","chosen stimuli: images/choice_trial_11.png","","","",""
"html-keyboard-response","64","120296","0.0-28.0-2.0","","null","","null","delaylearn","learning","feedback_duration_window","6550b51dbab4d79efbc6b214","bdlyjxuKp0gNtMP9dA0r3xAyVkX2","","","","","","","","","","","","","","","","","","750","","",""
"html-keyboard-response","65","121809","0.0-28.0-3.0","","null","<div style='margin:auto;width: auto; font-size: 150%'><span style='font-weight: bold; font-size: 100px; color: green;'>+10 points!</span><br><br></div>","null","delaylearn","learning","feedback_image_window","6550b51dbab4d79efbc6b214","bdlyjxuKp0gNtMP9dA0r3xAyVkX2","","","","","","","","","","","","","","","","","","","","",""
"html-keyboard-response","66","123904","0.0-29.0","","null","<div style=""font-size:100px;"">+</div>","null","delaylearn","learning","ITI","6550b51dbab4d79efbc6b214","bdlyjxuKp0gNtMP9dA0r3xAyVkX2","","","","","","","","","","","","","","","","","","","2092","",""
"html-keyboard-response","67","125380","0.0-30.0-0.0","","1473.8999999761581","<div style=""display: flex; flex-direction: column; align-items: center; margin-top: -40px;""><img src=""images/pattern_6.png"" style=""width: 234px; height: 230px; margin-top: -50px;""><div style=""display: flex; justify-content: space-between; margin-top: 33px;""><img src=""images/choice_trial_16.png"" style=""width: 408px; height: 417px; margin-right: 200px;""><img src=""images/choice_trial_3.png"" style=""width: 408px; height: 417px;""></div></div>","j","delaylearn","learning","trial","6550b51dbab4d79efbc6b214","bdlyjxuKp0gNtMP9dA0r3xAyVkX2","3","images/choice_trial_16.png","images/choice_trial_3.png","images/pattern_6.png","j","f","750","16","3","5","0","13","0","1","3","100","","","","",""
"html-keyboard-response","68","126387","0.0-30.0-1.0","","null","<div style=""display: flex; flex-direction: column; align-items: center; margin-top: -40px;""><img src=""images/pattern_6.png"" style=""width: 234px; height: 230px; margin-top: -50px;""><div style=""display: flex; justify-content: space-between; margin-top: 33px;""><img src=""images/choice_trial_3.png"" style=""width: 408px; height: 417px; margin-left:608px;""></div></div>","null","delaylearn","learning","display_response","6550b51dbab4d79efbc6b214","bdlyjxuKp0gNtMP9dA0r3xAyVkX2","","","","","","","","","","","","","","","","","chosen stimuli: images/choice_trial_3.png","","","",""
"html-keyboard-response","69","127145","0.0-30.0-2.0","","null","","null","delaylearn","learning","feedback_duration_window","6550b51dbab4d79efbc6b214","bdlyjxuKp0gNtMP9dA0r3xAyVkX2","","","","","","","","","","","","","","","","","","750","","",""
"html-keyboard-response","70","128655","0.0-30.0-3.0","","null","<div style='margin:auto;width: auto; font-size: 150%'><span style='font-weight: bold; font-size: 100px; color: green;'>+10 points!</span><br><br></div>","null","delaylearn","learning","feedback_image_window","6550b51dbab4d79efbc6b214","bdlyjxuKp0gNtMP9dA0r3xAyVkX2","","","","","","","","","","","","","","","","","","","","",""
"html-keyboard-response","71","129171","0.0-31.0-0.0","","null","","null","","","mood_trial_fixation","","","","","","","","","","","","","","","","","","","","","","",""
"lmdlab-html-vas-response","72","133336","0.0-31.0-1.0","","3149","How happy are you right now?","0.5216049382716049","delaylearn","learning","mood_trial","6550b51dbab4d79efbc6b214","bdlyjxuKp0gNtMP9dA0r3xAyVkX2","","","","","","","","","","","","","","","","","","","","[""Very unhappy"",""Very happy""]",""
"html-keyboard-response","73","135023","0.0-32.0","","null","<div style=""font-size:100px;"">+</div>","null","delaylearn","learning","ITI","6550b51dbab4d79efbc6b214","bdlyjxuKp0gNtMP9dA0r3xAyVkX2","","","","","","","","","","","","","","","","","","","1685","",""
"html-keyboard-response","74","136624","0.0-33.0-0.0","","1599.5","<div style=""display: flex; flex-direction: column; align-items: center; margin-top: -40px;""><img src=""images/pattern_1.png"" style=""width: 234px; height: 230px; margin-top: -50px;""><div style=""display: flex; justify-content: space-between; margin-top: 33px;""><img src=""images/choice_trial_8.png"" style=""width: 408px; height: 417px; margin-right: 200px;""><img src=""images/choice_trial_14.png"" style=""width: 408px; height: 417px;""></div></div>","j","delaylearn","learning","trial","6550b51dbab4d79efbc6b214","bdlyjxuKp0gNtMP9dA0r3xAyVkX2","3","images/choice_trial_8.png","images/choice_trial_14.png","images/pattern_1.png","j","j","7000","8","14","1","1","14","1","1","14","110","","","","",""
"html-keyboard-response","75","137636","0.0-33.0-1.0","","null","<div style=""display: flex; flex-direction: column; align-items: center; margin-top: -40px;""><img src=""images/pattern_1.png"" style=""width: 234px; height: 230px; margin-top: -50px;""><div style=""display: flex; justify-content: space-between; margin-top: 33px;""><img src=""images/choice_trial_14.png"" style=""width: 408px; height: 417px; margin-left:608px;""></div></div>","null","delaylearn","learning","display_response","6550b51dbab4d79efbc6b214","bdlyjxuKp0gNtMP9dA0r3xAyVkX2","","","","","","","","","","","","","","","","","chosen stimuli: images/choice_trial_14.png","","","",""
"html-keyboard-response","76","144641","0.0-33.0-2.0","","null","","null","delaylearn","learning","feedback_duration_window","6550b51dbab4d79efbc6b214","bdlyjxuKp0gNtMP9dA0r3xAyVkX2","","","","","","","","","","","","","","","","","","7000","","",""
"html-keyboard-response","77","146150","0.0-33.0-3.0","","null","<div style='margin:auto;width: auto; font-size: 150%'><span style='font-weight: bold; font-size: 100px; color: green;'>+10 points!</span><br><br></div>","null","delaylearn","learning","feedback_image_window","6550b51dbab4d79efbc6b214","bdlyjxuKp0gNtMP9dA0r3xAyVkX2","","","","","","","","","","","","","","","","","","","","",""
"html-keyboard-response","78","147915","0.0-34.0","","null","<div style=""font-size:100px;"">+</div>","null","delaylearn","learning","ITI","6550b51dbab4d79efbc6b214","bdlyjxuKp0gNtMP9dA0r3xAyVkX2","","","","","","","","","","","","","","","","","","","1762","",""
"html-keyboard-response","79","149378","0.0-35.0-0.0","","1461.2000000476837","<div style=""display: flex; flex-direction: column; align-items: center; margin-top: -40px;""><img src=""images/pattern_3.png"" style=""width: 234px; height: 230px; margin-top: -50px;""><div style=""display: flex; justify-content: space-between; margin-top: 33px;""><img src=""images/choice_trial_10.png"" style=""width: 408px; height: 417px; margin-right: 200px;""><img src=""images/choice_trial_13.png"" style=""width: 408px; height: 417px;""></div></div>","j","delaylearn","learning","trial","6550b51dbab4d79efbc6b214","bdlyjxuKp0gNtMP9dA0r3xAyVkX2","3","images/choice_trial_10.png","images/choice_trial_13.png","images/pattern_3.png","f","j","7000","10","13","2","1","15","1","0","13","110","","","","",""
"html-keyboard-response","80","150388","0.0-35.0-1.0","","null","<div style=""display: flex; flex-direction: column; align-items: center; margin-top: -40px;""><img src=""images/pattern_3.png"" style=""width: 234px; height: 230px; margin-top: -50px;""><div style=""display: flex; justify-content: space-between; margin-top: 33px;""><img src=""images/choice_trial_13.png"" style=""width: 408px; height: 417px; margin-left:608px;""></div></div>","null","delaylearn","learning","display_response","6550b51dbab4d79efbc6b214","bdlyjxuKp0gNtMP9dA0r3xAyVkX2","","","","","","","","","","","","","","","","","chosen stimuli: images/choice_trial_13.png","","","",""
"html-keyboard-response","81","157397","0.0-35.0-2.0","","null","","null","delaylearn","learning","feedback_duration_window","6550b51dbab4d79efbc6b214","bdlyjxuKp0gNtMP9dA0r3xAyVkX2","","","","","","","","","","","","","","","","","","7000","","",""
"html-keyboard-response","82","158911","0.0-35.0-3.0","","null","<div style='margin:auto;width: auto; font-size: 150%'><span style='font-weight: bold; font-size: 100px; color: red;'>0 points!</span><br><br></div>","null","delaylearn","learning","feedback_image_window","6550b51dbab4d79efbc6b214","bdlyjxuKp0gNtMP9dA0r3xAyVkX2","","","","","","","","","","","","","","","","","","","","",""
"html-keyboard-response","83","160718","0.0-36.0","","null","<div style=""font-size:100px;"">+</div>","null","delaylearn","learning","ITI","6550b51dbab4d79efbc6b214","bdlyjxuKp0gNtMP9dA0r3xAyVkX2","","","","","","","","","","","","","","","","","","","1802","",""
"html-keyboard-response","84","162238","0.0-37.0-0.0","","1518.5","<div style=""display: flex; flex-direction: column; align-items: center; margin-top: -40px;""><img src=""images/pattern_5.png"" style=""width: 234px; height: 230px; margin-top: -50px;""><div style=""display: flex; justify-content: space-between; margin-top: 33px;""><img src=""images/choice_trial_11.png"" style=""width: 408px; height: 417px; margin-right: 200px;""><img src=""images/choice_trial_2.png"" style=""width: 408px; height: 417px;""></div></div>","j","delaylearn","learning","trial","6550b51dbab4d79efbc6b214","bdlyjxuKp0gNtMP9dA0r3xAyVkX2","3","images/choice_trial_11.png","images/choice_trial_2.png","images/pattern_5.png","f","f","750","11","2","4","0","16","0","0","2","110","","","","",""
"html-keyboard-response","85","163241","0.0-37.0-1.0","","null","<div style=""display: flex; flex-direction: column; align-items: center; margin-top: -40px;""><img src=""images/pattern_5.png"" style=""width: 234px; height: 230px; margin-top: -50px;""><div style=""display: flex; justify-content: space-between; margin-top: 33px;""><img src=""images/choice_trial_2.png"" style=""width: 408px; height: 417px; margin-left:608px;""></div></div>","null","delaylearn","learning","display_response","6550b51dbab4d79efbc6b214","bdlyjxuKp0gNtMP9dA0r3xAyVkX2","","","","","","","","","","","","","","","","","chosen stimuli: images/choice_trial_2.png","","","",""
"html-keyboard-response","86","164001","0.0-37.0-2.0","","null","","null","delaylearn","learning","feedback_duration_window","6550b51dbab4d79efbc6b214","bdlyjxuKp0gNtMP9dA0r3xAyVkX2","","","","","","","","","","","","","","","","","","750","","",""
"html-keyboard-response","87","165513","0.0-37.0-3.0","","null","<div style='margin:auto;width: auto; font-size: 150%'><span style='font-weight: bold; font-size: 100px; color: red;'>0 points!</span><br><br></div>","null","delaylearn","learning","feedback_image_window","6550b51dbab4d79efbc6b214","bdlyjxuKp0gNtMP9dA0r3xAyVkX2","","","","","","","","","","","","","","","","","","","","",""
"html-keyboard-response","88","166027","0.0-38.0-0.0","","null","","null","","","mood_trial_fixation","","","","","","","","","","","","","","","","","","","","","","",""
"lmdlab-html-vas-response","89","169931","0.0-38.0-1.0","","2901","How happy are you right now?","0.4984567901234568","delaylearn","learning","mood_trial","6550b51dbab4d79efbc6b214","bdlyjxuKp0gNtMP9dA0r3xAyVkX2","","","","","","","","","","","","","","","","","","","","[""Very unhappy"",""Very happy""]",""
"html-keyboard-response","90","171501","0.0-39.0","","null","<div style=""font-size:100px;"">+</div>","null","delaylearn","learning","ITI","6550b51dbab4d79efbc6b214","bdlyjxuKp0gNtMP9dA0r3xAyVkX2","","","","","","","","","","","","","","","","","","","1553","",""
"html-keyboard-response","91","172923","0.0-40.0-0.0","","1419.8000000715256","<div style=""display: flex; flex-direction: column; align-items: center; margin-top: -40px;""><img src=""images/pattern_6.png"" style=""width: 234px; height: 230px; margin-top: -50px;""><div style=""display: flex; justify-content: space-between; margin-top: 33px;""><img src=""images/choice_trial_16.png"" style=""width: 408px; height: 417px; margin-right: 200px;""><img src=""images/choice_trial_3.png"" style=""width: 408px; height: 417px;""></div></div>","j","delaylearn","learning","trial","6550b51dbab4d79efbc6b214","bdlyjxuKp0gNtMP9dA0r3xAyVkX2","3","images/choice_trial_16.png","images/choice_trial_3.png","images/pattern_6.png","f","f","750","16","3","5","0","17","0","0","3","110","","","","",""
"html-keyboard-response","92","173930","0.0-40.0-1.0","","null","<div style=""display: flex; flex-direction: column; align-items: center; margin-top: -40px;""><img src=""images/pattern_6.png"" style=""width: 234px; height: 230px; margin-top: -50px;""><div style=""display: flex; justify-content: space-between; margin-top: 33px;""><img src=""images/choice_trial_3.png"" style=""width: 408px; height: 417px; margin-left:608px;""></div></div>","null","delaylearn","learning","display_response","6550b51dbab4d79efbc6b214","bdlyjxuKp0gNtMP9dA0r3xAyVkX2","","","","","","","","","","","","","","","","","chosen stimuli: images/choice_trial_3.png","","","",""
"html-keyboard-response","93","174695","0.0-40.0-2.0","","null","","null","delaylearn","learning","feedback_duration_window","6550b51dbab4d79efbc6b214","bdlyjxuKp0gNtMP9dA0r3xAyVkX2","","","","","","","","","","","","","","","","","","750","","",""
"html-keyboard-response","94","176204","0.0-40.0-3.0","","null","<div style='margin:auto;width: auto; font-size: 150%'><span style='font-weight: bold; font-size: 100px; color: red;'>0 points!</span><br><br></div>","null","delaylearn","learning","feedback_image_window","6550b51dbab4d79efbc6b214","bdlyjxuKp0gNtMP9dA0r3xAyVkX2","","","","","","","","","","","","","","","","","","","","",""
"html-keyboard-response","95","178436","0.0-41.0","","null","<div style=""font-size:100px;"">+</div>","null","delaylearn","learning","ITI","6550b51dbab4d79efbc6b214","bdlyjxuKp0gNtMP9dA0r3xAyVkX2","","","","","","","","","","","","","","","","","","","2227","",""
"html-keyboard-response","96","179688","0.0-42.0-0.0","","1250.5","<div style=""display: flex; flex-direction: column; align-items: center; margin-top: -40px;""><img src=""images/pattern_4.png"" style=""width: 234px; height: 230px; margin-top: -50px;""><div style=""display: flex; justify-content: space-between; margin-top: 33px;""><img src=""images/choice_trial_9.png"" style=""width: 408px; height: 417px; margin-right: 200px;""><img src=""images/choice_trial_15.png"" style=""width: 408px; height: 417px;""></div></div>","j","delaylearn","learning","trial","6550b51dbab4d79efbc6b214","bdlyjxuKp0gNtMP9dA0r3xAyVkX2","3","images/choice_trial_9.png","images/choice_trial_15.png","images/pattern_4.png","j","j","7000","9","15","3","1","18","1","1","15","120","","","","",""
"html-keyboard-response","97","180702","0.0-42.0-1.0","","null","<div style=""display: flex; flex-direction: column; align-items: center; margin-top: -40px;""><img src=""images/pattern_4.png"" style=""width: 234px; height: 230px; margin-top: -50px;""><div style=""display: flex; justify-content: space-between; margin-top: 33px;""><img src=""images/choice_trial_15.png"" style=""width: 408px; height: 417px; margin-left:608px;""></div></div>","null","delaylearn","learning","display_response","6550b51dbab4d79efbc6b214","bdlyjxuKp0gNtMP9dA0r3xAyVkX2","","","","","","","","","","","","","","","","","chosen stimuli: images/choice_trial_15.png","","","",""
"html-keyboard-response","98","187706","0.0-42.0-2.0","","null","","null","delaylearn","learning","feedback_duration_window","6550b51dbab4d79efbc6b214","bdlyjxuKp0gNtMP9dA0r3xAyVkX2","","","","","","","","","","","","","","","","","","7000","","",""
"html-keyboard-response","99","189215","0.0-42.0-3.0","","null","<div style='margin:auto;width: auto; font-size: 150%'><span style='font-weight: bold; font-size: 100px; color: green;'>+10 points!</span><br><br></div>","null","delaylearn","learning","feedback_image_window","6550b51dbab4d79efbc6b214","bdlyjxuKp0gNtMP9dA0r3xAyVkX2","","","","","","","","","","","","","","","","","","","","",""
"html-keyboard-response","100","190847","0.0-43.0","","null","<div style=""font-size:100px;"">+</div>","null","delaylearn","learning","ITI","6550b51dbab4d79efbc6b214","bdlyjxuKp0gNtMP9dA0r3xAyVkX2","","","","","","","","","","","","","","","","","","","1621","",""
"html-keyboard-response","101","192618","0.0-44.0-0.0","","1769","<div style=""display: flex; flex-direction: column; align-items: center; margin-top: -40px;""><img src=""images/pattern_7.png"" style=""width: 234px; height: 230px; margin-top: -50px;""><div style=""display: flex; justify-content: space-between; margin-top: 33px;""><img src=""images/choice_trial_6.png"" style=""width: 408px; height: 417px; margin-right: 200px;""><img src=""images/choice_trial_12.png"" style=""width: 408px; height: 417px;""></div></div>","f","delaylearn","learning","trial","6550b51dbab4d79efbc6b214","bdlyjxuKp0gNtMP9dA0r3xAyVkX2","3","images/choice_trial_6.png","images/choice_trial_12.png","images/pattern_7.png","j","f","750","6","12","6","0","19","1","0","6","120","","","","",""
"html-keyboard-response","102","193635","0.0-44.0-1.0","","null","<div style=""display: flex; flex-direction: column; align-items: center; margin-top: -40px;""><img src=""images/pattern_7.png"" style=""width: 234px; height: 230px; margin-top: -50px;""><div style=""display: flex; justify-content: space-between; margin-top: 33px;""><img src=""images/choice_trial_6.png"" style=""width: 408px; height: 417px; margin-right: 608px;""></div></div>","null","delaylearn","learning","display_response","6550b51dbab4d79efbc6b214","bdlyjxuKp0gNtMP9dA0r3xAyVkX2","","","","","","","","","","","","","","","","","chosen stimuli: images/choice_trial_6.png","","","",""
"html-keyboard-response","103","194400","0.0-44.0-2.0","","null","","null","delaylearn","learning","feedback_duration_window","6550b51dbab4d79efbc6b214","bdlyjxuKp0gNtMP9dA0r3xAyVkX2","","","","","","","","","","","","","","","","","","750","","",""
"html-keyboard-response","104","195908","0.0-44.0-3.0","","null","<div style='margin:auto;width: auto; font-size: 150%'><span style='font-weight: bold; font-size: 100px; color: red;'>0 points!</span><br><br></div>","null","delaylearn","learning","feedback_image_window","6550b51dbab4d79efbc6b214","bdlyjxuKp0gNtMP9dA0r3xAyVkX2","","","","","","","","","","","","","","","","","","","","",""
"html-keyboard-response","105","197935","0.0-45.0","","null","<div style=""font-size:100px;"">+</div>","null","delaylearn","learning","ITI","6550b51dbab4d79efbc6b214","bdlyjxuKp0gNtMP9dA0r3xAyVkX2","","","","","","","","","","","","","","","","","","","2017","",""
"html-keyboard-response","106","199467","0.0-46.0-0.0","","1529.8999999761581","<div style=""display: flex; flex-direction: column; align-items: center; margin-top: -40px;""><img src=""images/pattern_1.png"" style=""width: 234px; height: 230px; margin-top: -50px;""><div style=""display: flex; justify-content: space-between; margin-top: 33px;""><img src=""images/choice_trial_14.png"" style=""width: 408px; height: 417px; margin-right: 200px;""><img src=""images/choice_trial_8.png"" style=""width: 408px; height: 417px;""></div></div>","f","delaylearn","learning","trial","6550b51dbab4d79efbc6b214","bdlyjxuKp0gNtMP9dA0r3xAyVkX2","3","images/choice_trial_14.png","images/choice_trial_8.png","images/pattern_1.png","f","f","7000","14","8","1","0","20","1","1","14","130","","","","",""
"html-keyboard-response","107","200471","0.0-46.0-1.0","","null","<div style=""display: flex; flex-direction: column; align-items: center; margin-top: -40px;""><img src=""images/pattern_1.png"" style=""width: 234px; height: 230px; margin-top: -50px;""><div style=""display: flex; justify-content: space-between; margin-top: 33px;""><img src=""images/choice_trial_14.png"" style=""width: 408px; height: 417px; margin-right: 608px;""></div></div>","null","delaylearn","learning","display_response","6550b51dbab4d79efbc6b214","bdlyjxuKp0gNtMP9dA0r3xAyVkX2","","","","","","","","","","","","","","","","","chosen stimuli: images/choice_trial_14.png","","","",""
"html-keyboard-response","108","207479","0.0-46.0-2.0","","null","","null","delaylearn","learning","feedback_duration_window","6550b51dbab4d79efbc6b214","bdlyjxuKp0gNtMP9dA0r3xAyVkX2","","","","","","","","","","","","","","","","","","7000","","",""
"html-keyboard-response","109","208988","0.0-46.0-3.0","","null","<div style='margin:auto;width: auto; font-size: 150%'><span style='font-weight: bold; font-size: 100px; color: green;'>+10 points!</span><br><br></div>","null","delaylearn","learning","feedback_image_window","6550b51dbab4d79efbc6b214","bdlyjxuKp0gNtMP9dA0r3xAyVkX2","","","","","","","","","","","","","","","","","","","","",""
"html-keyboard-response","110","211156","0.0-47.0","","null","<div style=""font-size:100px;"">+</div>","null","delaylearn","learning","ITI","6550b51dbab4d79efbc6b214","bdlyjxuKp0gNtMP9dA0r3xAyVkX2","","","","","","","","","","","","","","","","","","","2163","",""
"html-keyboard-response","111","212963","0.0-48.0-0.0","","1805","<div style=""display: flex; flex-direction: column; align-items: center; margin-top: -40px;""><img src=""images/pattern_6.png"" style=""width: 234px; height: 230px; margin-top: -50px;""><div style=""display: flex; justify-content: space-between; margin-top: 33px;""><img src=""images/choice_trial_3.png"" style=""width: 408px; height: 417px; margin-right: 200px;""><img src=""images/choice_trial_16.png"" style=""width: 408px; height: 417px;""></div></div>","f","delaylearn","learning","trial","6550b51dbab4d79efbc6b214","bdlyjxuKp0gNtMP9dA0r3xAyVkX2","3","images/choice_trial_3.png","images/choice_trial_16.png","images/pattern_6.png","j","j","750","3","16","5","1","21","0","0","3","130","","","","",""
"html-keyboard-response","112","213967","0.0-48.0-1.0","","null","<div style=""display: flex; flex-direction: column; align-items: center; margin-top: -40px;""><img src=""images/pattern_6.png"" style=""width: 234px; height: 230px; margin-top: -50px;""><div style=""display: flex; justify-content: space-between; margin-top: 33px;""><img src=""images/choice_trial_3.png"" style=""width: 408px; height: 417px; margin-right: 608px;""></div></div>","null","delaylearn","learning","display_response","6550b51dbab4d79efbc6b214","bdlyjxuKp0gNtMP9dA0r3xAyVkX2","","","","","","","","","","","","","","","","","chosen stimuli: images/choice_trial_3.png","","","",""
"html-keyboard-response","113","214730","0.0-48.0-2.0","","null","","null","delaylearn","learning","feedback_duration_window","6550b51dbab4d79efbc6b214","bdlyjxuKp0gNtMP9dA0r3xAyVkX2","","","","","","","","","","","","","","","","","","750","","",""
"html-keyboard-response","114","216241","0.0-48.0-3.0","","null","<div style='margin:auto;width: auto; font-size: 150%'><span style='font-weight: bold; font-size: 100px; color: red;'>0 points!</span><br><br></div>","null","delaylearn","learning","feedback_image_window","6550b51dbab4d79efbc6b214","bdlyjxuKp0gNtMP9dA0r3xAyVkX2","","","","","","","","","","","","","","","","","","","","",""
"html-keyboard-response","115","218628","0.0-49.0","","null","<div style=""font-size:100px;"">+</div>","null","delaylearn","learning","ITI","6550b51dbab4d79efbc6b214","bdlyjxuKp0gNtMP9dA0r3xAyVkX2","","","","","","","","","","","","","","","","","","","2372","",""
"html-keyboard-response","116","219934","0.0-50.0-0.0","","1303.8000000715256","<div style=""display: flex; flex-direction: column; align-items: center; margin-top: -40px;""><img src=""images/pattern_4.png"" style=""width: 234px; height: 230px; margin-top: -50px;""><div style=""display: flex; justify-content: space-between; margin-top: 33px;""><img src=""images/choice_trial_15.png"" style=""width: 408px; height: 417px; margin-right: 200px;""><img src=""images/choice_trial_9.png"" style=""width: 408px; height: 417px;""></div></div>","f","delaylearn","learning","trial","6550b51dbab4d79efbc6b214","bdlyjxuKp0gNtMP9dA0r3xAyVkX2","3","images/choice_trial_15.png","images/choice_trial_9.png","images/pattern_4.png","f","f","7000","15","9","3","0","22","1","1","15","140","","","","",""
"html-keyboard-response","117","220942","0.0-50.0-1.0","","null","<div style=""display: flex; flex-direction: column; align-items: center; margin-top: -40px;""><img src=""images/pattern_4.png"" style=""width: 234px; height: 230px; margin-top: -50px;""><div style=""display: flex; justify-content: space-between; margin-top: 33px;""><img src=""images/choice_trial_15.png"" style=""width: 408px; height: 417px; margin-right: 608px;""></div></div>","null","delaylearn","learning","display_response","6550b51dbab4d79efbc6b214","bdlyjxuKp0gNtMP9dA0r3xAyVkX2","","","","","","","","","","","","","","","","","chosen stimuli: images/choice_trial_15.png","","","",""
"html-keyboard-response","118","227946","0.0-50.0-2.0","","null","","null","delaylearn","learning","feedback_duration_window","6550b51dbab4d79efbc6b214","bdlyjxuKp0gNtMP9dA0r3xAyVkX2","","","","","","","","","","","","","","","","","","7000","","",""
"html-keyboard-response","119","229452","0.0-50.0-3.0","","null","<div style='margin:auto;width: auto; font-size: 150%'><span style='font-weight: bold; font-size: 100px; color: green;'>+10 points!</span><br><br></div>","null","delaylearn","learning","feedback_image_window","6550b51dbab4d79efbc6b214","bdlyjxuKp0gNtMP9dA0r3xAyVkX2","","","","","","","","","","","","","","","","","","","","",""
"html-keyboard-response","120","229966","0.0-51.0-0.0","","null","","null","","","mood_trial_fixation","","","","","","","","","","","","","","","","","","","","","","",""
"lmdlab-html-vas-response","121","234156","0.0-51.0-1.0","","3185","How happy are you right now?","0.4984567901234568","delaylearn","learning","mood_trial","6550b51dbab4d79efbc6b214","bdlyjxuKp0gNtMP9dA0r3xAyVkX2","","","","","","","","","","","","","","","","","","","","[""Very unhappy"",""Very happy""]",""
"html-keyboard-response","122","236406","0.0-52.0","","null","<div style=""font-size:100px;"">+</div>","null","delaylearn","learning","ITI","6550b51dbab4d79efbc6b214","bdlyjxuKp0gNtMP9dA0r3xAyVkX2","","","","","","","","","","","","","","","","","","","2245","",""
"html-keyboard-response","123","237484","0.0-53.0-0.0","","1076.2999999523163","<div style=""display: flex; flex-direction: column; align-items: center; margin-top: -40px;""><img src=""images/pattern_7.png"" style=""width: 234px; height: 230px; margin-top: -50px;""><div style=""display: flex; justify-content: space-between; margin-top: 33px;""><img src=""images/choice_trial_12.png"" style=""width: 408px; height: 417px; margin-right: 200px;""><img src=""images/choice_trial_6.png"" style=""width: 408px; height: 417px;""></div></div>","j","delaylearn","learning","trial","6550b51dbab4d79efbc6b214","bdlyjxuKp0gNtMP9dA0r3xAyVkX2","3","images/choice_trial_12.png","images/choice_trial_6.png","images/pattern_7.png","j","j","750","12","6","6","1","23","1","1","6","150","","","","",""
"html-keyboard-response","124","238486","0.0-53.0-1.0","","null","<div style=""display: flex; flex-direction: column; align-items: center; margin-top: -40px;""><img src=""images/pattern_7.png"" style=""width: 234px; height: 230px; margin-top: -50px;""><div style=""display: flex; justify-content: space-between; margin-top: 33px;""><img src=""images/choice_trial_6.png"" style=""width: 408px; height: 417px; margin-left:608px;""></div></div>","null","delaylearn","learning","display_response","6550b51dbab4d79efbc6b214","bdlyjxuKp0gNtMP9dA0r3xAyVkX2","","","","","","","","","","","","","","","","","chosen stimuli: images/choice_trial_6.png","","","",""
"html-keyboard-response","125","239253","0.0-53.0-2.0","","null","","null","delaylearn","learning","feedback_duration_window","6550b51dbab4d79efbc6b214","bdlyjxuKp0gNtMP9dA0r3xAyVkX2","","","","","","","","","","","","","","","","","","750","","",""
"html-keyboard-response","126","240768","0.0-53.0-3.0","","null","<div style='margin:auto;width: auto; font-size: 150%'><span style='font-weight: bold; font-size: 100px; color: green;'>+10 points!</span><br><br></div>","null","delaylearn","learning","feedback_image_window","6550b51dbab4d79efbc6b214","bdlyjxuKp0gNtMP9dA0r3xAyVkX2","","","","","","","","","","","","","","","","","","","","",""
"html-keyboard-response","127","243157","0.0-54.0","","null","<div style=""font-size:100px;"">+</div>","null","delaylearn","learning","ITI","6550b51dbab4d79efbc6b214","bdlyjxuKp0gNtMP9dA0r3xAyVkX2","","","","","","","","","","","","","","","","","","","2378","",""
"html-keyboard-response","128","244823","0.0-55.0-0.0","","1663.3000000715256","<div style=""display: flex; flex-direction: column; align-items: center; margin-top: -40px;""><img src=""images/pattern_1.png"" style=""width: 234px; height: 230px; margin-top: -50px;""><div style=""display: flex; justify-content: space-between; margin-top: 33px;""><img src=""images/choice_trial_8.png"" style=""width: 408px; height: 417px; margin-right: 200px;""><img src=""images/choice_trial_14.png"" style=""width: 408px; height: 417px;""></div></div>","j","delaylearn","learning","trial","6550b51dbab4d79efbc6b214","bdlyjxuKp0gNtMP9dA0r3xAyVkX2","3","images/choice_trial_8.png","images/choice_trial_14.png","images/pattern_1.png","f","j","7000","8","14","1","1","24","1","0","14","150","","","","",""
"html-keyboard-response","129","245828","0.0-55.0-1.0","","null","<div style=""display: flex; flex-direction: column; align-items: center; margin-top: -40px;""><img src=""images/pattern_1.png"" style=""width: 234px; height: 230px; margin-top: -50px;""><div style=""display: flex; justify-content: space-between; margin-top: 33px;""><img src=""images/choice_trial_14.png"" style=""width: 408px; height: 417px; margin-left:608px;""></div></div>","null","delaylearn","learning","display_response","6550b51dbab4d79efbc6b214","bdlyjxuKp0gNtMP9dA0r3xAyVkX2","","","","","","","","","","","","","","","","","chosen stimuli: images/choice_trial_14.png","","","",""
"html-keyboard-response","130","252837","0.0-55.0-2.0","","null","","null","delaylearn","learning","feedback_duration_window","6550b51dbab4d79efbc6b214","bdlyjxuKp0gNtMP9dA0r3xAyVkX2","","","","","","","","","","","","","","","","","","7000","","",""
"html-keyboard-response","131","254347","0.0-55.0-3.0","","null","<div style='margin:auto;width: auto; font-size: 150%'><span style='font-weight: bold; font-size: 100px; color: red;'>0 points!</span><br><br></div>","null","delaylearn","learning","feedback_image_window","6550b51dbab4d79efbc6b214","bdlyjxuKp0gNtMP9dA0r3xAyVkX2","","","","","","","","","","","","","","","","","","","","",""
"html-keyboard-response","132","256474","0.0-56.0","","null","<div style=""font-size:100px;"">+</div>","null","delaylearn","learning","ITI","6550b51dbab4d79efbc6b214","bdlyjxuKp0gNtMP9dA0r3xAyVkX2","","","","","","","","","","","","","","","","","","","2125","",""
"html-keyboard-response","133","258355","0.0-57.0-0.0","","1880","<div style=""display: flex; flex-direction: column; align-items: center; margin-top: -40px;""><img src=""images/pattern_5.png"" style=""width: 234px; height: 230px; margin-top: -50px;""><div style=""display: flex; justify-content: space-between; margin-top: 33px;""><img src=""images/choice_trial_2.png"" style=""width: 408px; height: 417px; margin-right: 200px;""><img src=""images/choice_trial_11.png"" style=""width: 408px; height: 417px;""></div></div>","f","delaylearn","learning","trial","6550b51dbab4d79efbc6b214","bdlyjxuKp0gNtMP9dA0r3xAyVkX2","3","images/choice_trial_2.png","images/choice_trial_11.png","images/pattern_5.png","j","j","750","2","11","4","1","25","0","0","2","150","","","","",""
"html-keyboard-response","134","259364","0.0-57.0-1.0","","null","<div style=""display: flex; flex-direction: column; align-items: center; margin-top: -40px;""><img src=""images/pattern_5.png"" style=""width: 234px; height: 230px; margin-top: -50px;""><div style=""display: flex; justify-content: space-between; margin-top: 33px;""><img src=""images/choice_trial_2.png"" style=""width: 408px; height: 417px; margin-right: 608px;""></div></div>","null","delaylearn","learning","display_response","6550b51dbab4d79efbc6b214","bdlyjxuKp0gNtMP9dA0r3xAyVkX2","","","","","","","","","","","","","","","","","chosen stimuli: images/choice_trial_2.png","","","",""
"html-keyboard-response","135","260127","0.0-57.0-2.0","","null","","null","delaylearn","learning","feedback_duration_window","6550b51dbab4d79efbc6b214","bdlyjxuKp0gNtMP9dA0r3xAyVkX2","","","","","","","","","","","","","","","","","","750","","",""
"html-keyboard-response","136","261640","0.0-57.0-3.0","","null","<div style='margin:auto;width: auto; font-size: 150%'><span style='font-weight: bold; font-size: 100px; color: red;'>0 points!</span><br><br></div>","null","delaylearn","learning","feedback_image_window","6550b51dbab4d79efbc6b214","bdlyjxuKp0gNtMP9dA0r3xAyVkX2","","","","","","","","","","","","","","","","","","","","",""
"html-keyboard-response","137","264125","0.0-58.0","","null","<div style=""font-size:100px;"">+</div>","null","delaylearn","learning","ITI","6550b51dbab4d79efbc6b214","bdlyjxuKp0gNtMP9dA0r3xAyVkX2","","","","","","","","","","","","","","","","","","","2484","",""
"html-keyboard-response","138","265683","0.0-59.0-0.0","","1555.6000000238419","<div style=""display: flex; flex-direction: column; align-items: center; margin-top: -40px;""><img src=""images/pattern_3.png"" style=""width: 234px; height: 230px; margin-top: -50px;""><div style=""display: flex; justify-content: space-between; margin-top: 33px;""><img src=""images/choice_trial_10.png"" style=""width: 408px; height: 417px; margin-right: 200px;""><img src=""images/choice_trial_13.png"" style=""width: 408px; height: 417px;""></div></div>","f","delaylearn","learning","trial","6550b51dbab4d79efbc6b214","bdlyjxuKp0gNtMP9dA0r3xAyVkX2","3","images/choice_trial_10.png","images/choice_trial_13.png","images/pattern_3.png","j","j","7000","10","13","2","1","26","0","0","10","150","","","","",""
"html-keyboard-response","139","266697","0.0-59.0-1.0","","null","<div style=""display: flex; flex-direction: column; align-items: center; margin-top: -40px;""><img src=""images/pattern_3.png"" style=""width: 234px; height: 230px; margin-top: -50px;""><div style=""display: flex; justify-content: space-between; margin-top: 33px;""><img src=""images/choice_trial_10.png"" style=""width: 408px; height: 417px; margin-right: 608px;""></div></div>","null","delaylearn","learning","display_response","6550b51dbab4d79efbc6b214","bdlyjxuKp0gNtMP9dA0r3xAyVkX2","","","","","","","","","","","","","","","","","chosen stimuli: images/choice_trial_10.png","","","",""
"html-keyboard-response","140","273710","0.0-59.0-2.0","","null","","null","delaylearn","learning","feedback_duration_window","6550b51dbab4d79efbc6b214","bdlyjxuKp0gNtMP9dA0r3xAyVkX2","","","","","","","","","","","","","","","","","","7000","","",""
"html-keyboard-response","141","275221","0.0-59.0-3.0","","null","<div style='margin:auto;width: auto; font-size: 150%'><span style='font-weight: bold; font-size: 100px; color: red;'>0 points!</span><br><br></div>","null","delaylearn","learning","feedback_image_window","6550b51dbab4d79efbc6b214","bdlyjxuKp0gNtMP9dA0r3xAyVkX2","","","","","","","","","","","","","","","","","","","","",""
"lmdlab-html-vas-response","142","280052","0.0-60.0-0.0","","3316","*How <b><u>confident</u></b> are you feeling about your answers at this moment?*","0.3101851851851852","rewlearn","rate_confidence","","6550b51dbab4d79efbc6b214","bdlyjxuKp0gNtMP9dA0r3xAyVkX2","","","","","","","","","","","","","","","","","","","","[""No confidence"",""Complete confidence""]",""
"lmdlab-rest-trial-limit","143","286942","0.0-60.0-1.0","","5387.200000047684","<div style=""font-size:40px;""><b>Please take a break!</b><br><br><br><br><p>Great work: you earned 150 points.<br><br><br><p>You have completed part(s) 1 of 5.<br><br><br><br>When you are ready to continue<br><br><br>please click the button.</p><br><br>","0","delaylearn","learning","break","6550b51dbab4d79efbc6b214","bdlyjxuKp0gNtMP9dA0r3xAyVkX2","","","","","","","","","","","","","","","","","","","","","0"
"html-keyboard-response","144","289951","0.0-60.0-2.0","","null","<div style=""font-size:100px;"">+</div>","null","delaylearn","learning","pre_fixation","6550b51dbab4d79efbc6b214","","","","","","","","","","","","","","","","","","","","","",""
"lmdlab-html-vas-response","145","294463","0.0-60.0-3.0-0.0","","3492","How happy are you right now?","0.4861111111111111","delaylearn","learning","mood_baseline","6550b51dbab4d79efbc6b214","bdlyjxuKp0gNtMP9dA0r3xAyVkX2","","","","","","","","","","","","","","","","","","","","[""Very unhappy"",""Very happy""]",""
"html-keyboard-response","146","295970","0.0-60.0-3.0-1.0","","null","","null","","","mood_baseline_fixation","","","","","","","","","","","","","","","","","","","","","","",""
"html-keyboard-response","147","297873","0.0-61.0","","null","<div style=""font-size:100px;"">+</div>","null","delaylearn","learning","ITI","6550b51dbab4d79efbc6b214","bdlyjxuKp0gNtMP9dA0r3xAyVkX2","","","","","","","","","","","","","","","","","","","1891","",""
"html-keyboard-response","148","299477","0.0-62.0-0.0","","1602.5999999046326","<div style=""display: flex; flex-direction: column; align-items: center; margin-top: -40px;""><img src=""images/pattern_7.png"" style=""width: 234px; height: 230px; margin-top: -50px;""><div style=""display: flex; justify-content: space-between; margin-top: 33px;""><img src=""images/choice_trial_12.png"" style=""width: 408px; height: 417px; margin-right: 200px;""><img src=""images/choice_trial_6.png"" style=""width: 408px; height: 417px;""></div></div>","j","delaylearn","learning","trial","6550b51dbab4d79efbc6b214","bdlyjxuKp0gNtMP9dA0r3xAyVkX2","3","images/choice_trial_12.png","images/choice_trial_6.png","images/pattern_7.png","j","j","750","12","6","6","1","27","1","1","6","160","","","","",""
"html-keyboard-response","149","300481","0.0-62.0-1.0","","null","<div style=""display: flex; flex-direction: column; align-items: center; margin-top: -40px;""><img src=""images/pattern_7.png"" style=""width: 234px; height: 230px; margin-top: -50px;""><div style=""display: flex; justify-content: space-between; margin-top: 33px;""><img src=""images/choice_trial_6.png"" style=""width: 408px; height: 417px; margin-left:608px;""></div></div>","null","delaylearn","learning","display_response","6550b51dbab4d79efbc6b214","bdlyjxuKp0gNtMP9dA0r3xAyVkX2","","","","","","","","","","","","","","","","","chosen stimuli: images/choice_trial_6.png","","","",""
"html-keyboard-response","150","301236","0.0-62.0-2.0","","null","","null","delaylearn","learning","feedback_duration_window","6550b51dbab4d79efbc6b214","bdlyjxuKp0gNtMP9dA0r3xAyVkX2","","","","","","","","","","","","","","","","","","750","","",""
"html-keyboard-response","151","302752","0.0-62.0-3.0","","null","<div style='margin:auto;width: auto; font-size: 150%'><span style='font-weight: bold; font-size: 100px; color: green;'>+10 points!</span><br><br></div>","null","delaylearn","learning","feedback_image_window","6550b51dbab4d79efbc6b214","bdlyjxuKp0gNtMP9dA0r3xAyVkX2","","","","","","","","","","","","","","","","","","","","",""
"html-keyboard-response","152","303262","0.0-63.0-0.0","","null","","null","","","mood_trial_fixation","","","","","","","","","","","","","","","","","","","","","","",""
"lmdlab-html-vas-response","153","306906","0.0-63.0-1.0","","2630","How happy are you right now?","0.5848765432098766","delaylearn","learning","mood_trial","6550b51dbab4d79efbc6b214","bdlyjxuKp0gNtMP9dA0r3xAyVkX2","","","","","","","","","","","","","","","","","","","","[""Very unhappy"",""Very happy""]",""
"html-keyboard-response","154","308443","0.0-64.0","","null","<div style=""font-size:100px;"">+</div>","null","delaylearn","learning","ITI","6550b51dbab4d79efbc6b214","bdlyjxuKp0gNtMP9dA0r3xAyVkX2","","","","","","","","","","","","","","","","","","","1530","",""
"html-keyboard-response","155","309523","0.0-65.0-0.0","","1078.3999999761581","<div style=""display: flex; flex-direction: column; align-items: center; margin-top: -40px;""><img src=""images/pattern_1.png"" style=""width: 234px; height: 230px; margin-top: -50px;""><div style=""display: flex; justify-content: space-between; margin-top: 33px;""><img src=""images/choice_trial_14.png"" style=""width: 408px; height: 417px; margin-right: 200px;""><img src=""images/choice_trial_8.png"" style=""width: 408px; height: 417px;""></div></div>","j","delaylearn","learning","trial","6550b51dbab4d79efbc6b214","bdlyjxuKp0gNtMP9dA0r3xAyVkX2","3","images/choice_trial_14.png","images/choice_trial_8.png","images/pattern_1.png","f","f","7000","14","8","1","0","28","0","0","8","160","","","","",""
"html-keyboard-response","156","310540","0.0-65.0-1.0","","null","<div style=""display: flex; flex-direction: column; align-items: center; margin-top: -40px;""><img src=""images/pattern_1.png"" style=""width: 234px; height: 230px; margin-top: -50px;""><div style=""display: flex; justify-content: space-between; margin-top: 33px;""><img src=""images/choice_trial_8.png"" style=""width: 408px; height: 417px; margin-left:608px;""></div></div>","null","delaylearn","learning","display_response","6550b51dbab4d79efbc6b214","bdlyjxuKp0gNtMP9dA0r3xAyVkX2","","","","","","","","","","","","","","","","","chosen stimuli: images/choice_trial_8.png","","","",""
"html-keyboard-response","157","317556","0.0-65.0-2.0","","null","","null","delaylearn","learning","feedback_duration_window","6550b51dbab4d79efbc6b214","bdlyjxuKp0gNtMP9dA0r3xAyVkX2","","","","","","","","","","","","","","","","","","7000","","",""
"html-keyboard-response","158","319066","0.0-65.0-3.0","","null","<div style='margin:auto;width: auto; font-size: 150%'><span style='font-weight: bold; font-size: 100px; color: red;'>0 points!</span><br><br></div>","null","delaylearn","learning","feedback_image_window","6550b51dbab4d79efbc6b214","bdlyjxuKp0gNtMP9dA0r3xAyVkX2","","","","","","","","","","","","","","","","","","","","",""
"html-keyboard-response","159","320872","0.0-66.0","","null","<div style=""font-size:100px;"">+</div>","null","delaylearn","learning","ITI","6550b51dbab4d79efbc6b214","bdlyjxuKp0gNtMP9dA0r3xAyVkX2","","","","","","","","","","","","","","","","","","","1797","",""
"html-keyboard-response","160","322475","0.0-67.0-0.0","","1601","<div style=""display: flex; flex-direction: column; align-items: center; margin-top: -40px;""><img src=""images/pattern_5.png"" style=""width: 234px; height: 230px; margin-top: -50px;""><div style=""display: flex; justify-content: space-between; margin-top: 33px;""><img src=""images/choice_trial_11.png"" style=""width: 408px; height: 417px; margin-right: 200px;""><img src=""images/choice_trial_2.png"" style=""width: 408px; height: 417px;""></div></div>","j","delaylearn","learning","trial","6550b51dbab4d79efbc6b214","bdlyjxuKp0gNtMP9dA0r3xAyVkX2","3","images/choice_trial_11.png","images/choice_trial_2.png","images/pattern_5.png","f","f","750","11","2","4","0","29","0","0","2","160","","","","",""
"html-keyboard-response","161","323490","0.0-67.0-1.0","","null","<div style=""display: flex; flex-direction: column; align-items: center; margin-top: -40px;""><img src=""images/pattern_5.png"" style=""width: 234px; height: 230px; margin-top: -50px;""><div style=""display: flex; justify-content: space-between; margin-top: 33px;""><img src=""images/choice_trial_2.png"" style=""width: 408px; height: 417px; margin-left:608px;""></div></div>","null","delaylearn","learning","display_response","6550b51dbab4d79efbc6b214","bdlyjxuKp0gNtMP9dA0r3xAyVkX2","","","","","","","","","","","","","","","","","chosen stimuli: images/choice_trial_2.png","","","",""
"html-keyboard-response","162","324250","0.0-67.0-2.0","","null","","null","delaylearn","learning","feedback_duration_window","6550b51dbab4d79efbc6b214","bdlyjxuKp0gNtMP9dA0r3xAyVkX2","","","","","","","","","","","","","","","","","","750","","",""
"html-keyboard-response","163","325757","0.0-67.0-3.0","","null","<div style='margin:auto;width: auto; font-size: 150%'><span style='font-weight: bold; font-size: 100px; color: red;'>0 points!</span><br><br></div>","null","delaylearn","learning","feedback_image_window","6550b51dbab4d79efbc6b214","bdlyjxuKp0gNtMP9dA0r3xAyVkX2","","","","","","","","","","","","","","","","","","","","",""
"html-keyboard-response","164","327675","0.0-68.0","","null","<div style=""font-size:100px;"">+</div>","null","delaylearn","learning","ITI","6550b51dbab4d79efbc6b214","bdlyjxuKp0gNtMP9dA0r3xAyVkX2","","","","","","","","","","","","","","","","","","","1912","",""
"html-keyboard-response","165","329243","0.0-69.0-0.0","","1566.2999999523163","<div style=""display: flex; flex-direction: column; align-items: center; margin-top: -40px;""><img src=""images/pattern_6.png"" style=""width: 234px; height: 230px; margin-top: -50px;""><div style=""display: flex; justify-content: space-between; margin-top: 33px;""><img src=""images/choice_trial_3.png"" style=""width: 408px; height: 417px; margin-right: 200px;""><img src=""images/choice_trial_16.png"" style=""width: 408px; height: 417px;""></div></div>","f","delaylearn","learning","trial","6550b51dbab4d79efbc6b214","bdlyjxuKp0gNtMP9dA0r3xAyVkX2","3","images/choice_trial_3.png","images/choice_trial_16.png","images/pattern_6.png","j","j","750","3","16","5","1","30","0","0","3","160","","","","",""
"html-keyboard-response","166","330255","0.0-69.0-1.0","","null","<div style=""display: flex; flex-direction: column; align-items: center; margin-top: -40px;""><img src=""images/pattern_6.png"" style=""width: 234px; height: 230px; margin-top: -50px;""><div style=""display: flex; justify-content: space-between; margin-top: 33px;""><img src=""images/choice_trial_3.png"" style=""width: 408px; height: 417px; margin-right: 608px;""></div></div>","null","delaylearn","learning","display_response","6550b51dbab4d79efbc6b214","bdlyjxuKp0gNtMP9dA0r3xAyVkX2","","","","","","","","","","","","","","","","","chosen stimuli: images/choice_trial_3.png","","","",""
"html-keyboard-response","167","331018","0.0-69.0-2.0","","null","","null","delaylearn","learning","feedback_duration_window","6550b51dbab4d79efbc6b214","bdlyjxuKp0gNtMP9dA0r3xAyVkX2","","","","","","","","","","","","","","","","","","750","","",""
"html-keyboard-response","168","332528","0.0-69.0-3.0","","null","<div style='margin:auto;width: auto; font-size: 150%'><span style='font-weight: bold; font-size: 100px; color: red;'>0 points!</span><br><br></div>","null","delaylearn","learning","feedback_image_window","6550b51dbab4d79efbc6b214","bdlyjxuKp0gNtMP9dA0r3xAyVkX2","","","","","","","","","","","","","","","","","","","","",""
"html-keyboard-response","169","333042","0.0-70.0-0.0","","null","","null","","","mood_trial_fixation","","","","","","","","","","","","","","","","","","","","","","",""
"lmdlab-html-vas-response","170","336490","0.0-70.0-1.0","","2433","How happy are you right now?","0.38425925925925924","delaylearn","learning","mood_trial","6550b51dbab4d79efbc6b214","bdlyjxuKp0gNtMP9dA0r3xAyVkX2","","","","","","","","","","","","","","","","","","","","[""Very unhappy"",""Very happy""]",""
"html-keyboard-response","171","338718","0.0-71.0","","null","<div style=""font-size:100px;"">+</div>","null","delaylearn","learning","ITI","6550b51dbab4d79efbc6b214","bdlyjxuKp0gNtMP9dA0r3xAyVkX2","","","","","","","","","","","","","","","","","","","2225","",""
"html-keyboard-response","172","340773","0.0-72.0-0.0","","2053.1999999284744","<div style=""display: flex; flex-direction: column; align-items: center; margin-top: -40px;""><img src=""images/pattern_4.png"" style=""width: 234px; height: 230px; margin-top: -50px;""><div style=""display: flex; justify-content: space-between; margin-top: 33px;""><img src=""images/choice_trial_9.png"" style=""width: 408px; height: 417px; margin-right: 200px;""><img src=""images/choice_trial_15.png"" style=""width: 408px; height: 417px;""></div></div>","f","delaylearn","learning","trial","6550b51dbab4d79efbc6b214","bdlyjxuKp0gNtMP9dA0r3xAyVkX2","3","images/choice_trial_9.png","images/choice_trial_15.png","images/pattern_4.png","j","j","7000","9","15","3","1","31","0","0","9","160","","","","",""
"html-keyboard-response","173","341786","0.0-72.0-1.0","","null","<div style=""display: flex; flex-direction: column; align-items: center; margin-top: -40px;""><img src=""images/pattern_4.png"" style=""width: 234px; height: 230px; margin-top: -50px;""><div style=""display: flex; justify-content: space-between; margin-top: 33px;""><img src=""images/choice_trial_9.png"" style=""width: 408px; height: 417px; margin-right: 608px;""></div></div>","null","delaylearn","learning","display_response","6550b51dbab4d79efbc6b214","bdlyjxuKp0gNtMP9dA0r3xAyVkX2","","","","","","","","","","","","","","","","","chosen stimuli: images/choice_trial_9.png","","","",""
"html-keyboard-response","174","348801","0.0-72.0-2.0","","null","","null","delaylearn","learning","feedback_duration_window","6550b51dbab4d79efbc6b214","bdlyjxuKp0gNtMP9dA0r3xAyVkX2","","","","","","","","","","","","","","","","","","7000","","",""
"html-keyboard-response","175","350312","0.0-72.0-3.0","","null","<div style='margin:auto;width: auto; font-size: 150%'><span style='font-weight: bold; font-size: 100px; color: red;'>0 points!</span><br><br></div>","null","delaylearn","learning","feedback_image_window","6550b51dbab4d79efbc6b214","bdlyjxuKp0gNtMP9dA0r3xAyVkX2","","","","","","","","","","","","","","","","","","","","",""
"html-keyboard-response","176","352031","0.0-73.0","","null","<div style=""font-size:100px;"">+</div>","null","delaylearn","learning","ITI","6550b51dbab4d79efbc6b214","bdlyjxuKp0gNtMP9dA0r3xAyVkX2","","","","","","","","","","","","","","","","","","","1714","",""
"html-keyboard-response","177","353436","0.0-74.0-0.0","","1402.5","<div style=""display: flex; flex-direction: column; align-items: center; margin-top: -40px;""><img src=""images/pattern_3.png"" style=""width: 234px; height: 230px; margin-top: -50px;""><div style=""display: flex; justify-content: space-between; margin-top: 33px;""><img src=""images/choice_trial_10.png"" style=""width: 408px; height: 417px; margin-right: 200px;""><img src=""images/choice_trial_13.png"" style=""width: 408px; height: 417px;""></div></div>","j","delaylearn","learning","trial","6550b51dbab4d79efbc6b214","bdlyjxuKp0gNtMP9dA0r3xAyVkX2","3","images/choice_trial_10.png","images/choice_trial_13.png","images/pattern_3.png","j","j","7000","10","13","2","1","32","1","1","13","170","","","","",""
"html-keyboard-response","178","354449","0.0-74.0-1.0","","null","<div style=""display: flex; flex-direction: column; align-items: center; margin-top: -40px;""><img src=""images/pattern_3.png"" style=""width: 234px; height: 230px; margin-top: -50px;""><div style=""display: flex; justify-content: space-between; margin-top: 33px;""><img src=""images/choice_trial_13.png"" style=""width: 408px; height: 417px; margin-left:608px;""></div></div>","null","delaylearn","learning","display_response","6550b51dbab4d79efbc6b214","bdlyjxuKp0gNtMP9dA0r3xAyVkX2","","","","","","","","","","","","","","","","","chosen stimuli: images/choice_trial_13.png","","","",""
"html-keyboard-response","179","361458","0.0-74.0-2.0","","null","","null","delaylearn","learning","feedback_duration_window","6550b51dbab4d79efbc6b214","bdlyjxuKp0gNtMP9dA0r3xAyVkX2","","","","","","","","","","","","","","","","","","7000","","",""
"html-keyboard-response","180","362967","0.0-74.0-3.0","","null","<div style='margin:auto;width: auto; font-size: 150%'><span style='font-weight: bold; font-size: 100px; color: green;'>+10 points!</span><br><br></div>","null","delaylearn","learning","feedback_image_window","6550b51dbab4d79efbc6b214","bdlyjxuKp0gNtMP9dA0r3xAyVkX2","","","","","","","","","","","","","","","","","","","","",""
"html-keyboard-response","181","364556","0.0-75.0","","null","<div style=""font-size:100px;"">+</div>","null","delaylearn","learning","ITI","6550b51dbab4d79efbc6b214","bdlyjxuKp0gNtMP9dA0r3xAyVkX2","","","","","","","","","","","","","","","","","","","1585","",""
"html-keyboard-response","182","367189","0.0-76.0-0.0","","2631.399999976158","<div style=""display: flex; flex-direction: column; align-items: center; margin-top: -40px;""><img src=""images/pattern_5.png"" style=""width: 234px; height: 230px; margin-top: -50px;""><div style=""display: flex; justify-content: space-between; margin-top: 33px;""><img src=""images/choice_trial_11.png"" style=""width: 408px; height: 417px; margin-right: 200px;""><img src=""images/choice_trial_2.png"" style=""width: 408px; height: 417px;""></div></div>","f","delaylearn","learning","trial","6550b51dbab4d79efbc6b214","bdlyjxuKp0gNtMP9dA0r3xAyVkX2","3","images/choice_trial_11.png","images/choice_trial_2.png","images/pattern_5.png","j","f","750","11","2","4","0","33","1","0","11","170","","","","",""
"html-keyboard-response","183","368205","0.0-76.0-1.0","","null","<div style=""display: flex; flex-direction: column; align-items: center; margin-top: -40px;""><img src=""images/pattern_5.png"" style=""width: 234px; height: 230px; margin-top: -50px;""><div style=""display: flex; justify-content: space-between; margin-top: 33px;""><img src=""images/choice_trial_11.png"" style=""width: 408px; height: 417px; margin-right: 608px;""></div></div>","null","delaylearn","learning","display_response","6550b51dbab4d79efbc6b214","bdlyjxuKp0gNtMP9dA0r3xAyVkX2","","","","","","","","","","","","","","","","","chosen stimuli: images/choice_trial_11.png","","","",""
"html-keyboard-response","184","368968","0.0-76.0-2.0","","null","","null","delaylearn","learning","feedback_duration_window","6550b51dbab4d79efbc6b214","bdlyjxuKp0gNtMP9dA0r3xAyVkX2","","","","","","","","","","","","","","","","","","750","","",""
"html-keyboard-response","185","370479","0.0-76.0-3.0","","null","<div style='margin:auto;width: auto; font-size: 150%'><span style='font-weight: bold; font-size: 100px; color: red;'>0 points!</span><br><br></div>","null","delaylearn","learning","feedback_image_window","6550b51dbab4d79efbc6b214","bdlyjxuKp0gNtMP9dA0r3xAyVkX2","","","","","","","","","","","","","","","","","","","","",""
"html-keyboard-response","186","371999","0.0-77.0","","null","<div style=""font-size:100px;"">+</div>","null","delaylearn","learning","ITI","6550b51dbab4d79efbc6b214","bdlyjxuKp0gNtMP9dA0r3xAyVkX2","","","","","","","","","","","","","","","","","","","1512","",""
"html-keyboard-response","187","373146","0.0-78.0-0.0","","1145.7000000476837","<div style=""display: flex; flex-direction: column; align-items: center; margin-top: -40px;""><img src=""images/pattern_1.png"" style=""width: 234px; height: 230px; margin-top: -50px;""><div style=""display: flex; justify-content: space-between; margin-top: 33px;""><img src=""images/choice_trial_14.png"" style=""width: 408px; height: 417px; margin-right: 200px;""><img src=""images/choice_trial_8.png"" style=""width: 408px; height: 417px;""></div></div>","j","delaylearn","learning","trial","6550b51dbab4d79efbc6b214","bdlyjxuKp0gNtMP9dA0r3xAyVkX2","3","images/choice_trial_14.png","images/choice_trial_8.png","images/pattern_1.png","f","f","7000","14","8","1","0","34","0","0","8","170","","","","",""
"html-keyboard-response","188","374158","0.0-78.0-1.0","","null","<div style=""display: flex; flex-direction: column; align-items: center; margin-top: -40px;""><img src=""images/pattern_1.png"" style=""width: 234px; height: 230px; margin-top: -50px;""><div style=""display: flex; justify-content: space-between; margin-top: 33px;""><img src=""images/choice_trial_8.png"" style=""width: 408px; height: 417px; margin-left:608px;""></div></div>","null","delaylearn","learning","display_response","6550b51dbab4d79efbc6b214","bdlyjxuKp0gNtMP9dA0r3xAyVkX2","","","","","","","","","","","","","","","","","chosen stimuli: images/choice_trial_8.png","","","",""
"html-keyboard-response","189","381160","0.0-78.0-2.0","","null","","null","delaylearn","learning","feedback_duration_window","6550b51dbab4d79efbc6b214","bdlyjxuKp0gNtMP9dA0r3xAyVkX2","","","","","","","","","","","","","","","","","","7000","","",""
"html-keyboard-response","190","382667","0.0-78.0-3.0","","null","<div style='margin:auto;width: auto; font-size: 150%'><span style='font-weight: bold; font-size: 100px; color: red;'>0 points!</span><br><br></div>","null","delaylearn","learning","feedback_image_window","6550b51dbab4d79efbc6b214","bdlyjxuKp0gNtMP9dA0r3xAyVkX2","","","","","","","","","","","","","","","","","","","","",""
"html-keyboard-response","191","383182","0.0-79.0-0.0","","null","","null","","","mood_trial_fixation","","","","","","","","","","","","","","","","","","","","","","",""
"lmdlab-html-vas-response","192","386513","0.0-79.0-1.0","","2318","How happy are you right now?","0.41358024691358025","delaylearn","learning","mood_trial","6550b51dbab4d79efbc6b214","bdlyjxuKp0gNtMP9dA0r3xAyVkX2","","","","","","","","","","","","","","","","","","","","[""Very unhappy"",""Very happy""]",""
"html-keyboard-response","193","388339","0.0-80.0","","null","<div style=""font-size:100px;"">+</div>","null","delaylearn","learning","ITI","6550b51dbab4d79efbc6b214","bdlyjxuKp0gNtMP9dA0r3xAyVkX2","","","","","","","","","","","","","","","","","","","1823","",""
"html-keyboard-response","194","389973","0.0-81.0-0.0","","1632.6000000238419","<div style=""display: flex; flex-direction: column; align-items: center; margin-top: -40px;""><img src=""images/pattern_6.png"" style=""width: 234px; height: 230px; margin-top: -50px;""><div style=""display: flex; justify-content: space-between; margin-top: 33px;""><img src=""images/choice_trial_16.png"" style=""width: 408px; height: 417px; margin-right: 200px;""><img src=""images/choice_trial_3.png"" style=""width: 408px; height: 417px;""></div></div>","j","delaylearn","learning","trial","6550b51dbab4d79efbc6b214","bdlyjxuKp0gNtMP9dA0r3xAyVkX2","3","images/choice_trial_16.png","images/choice_trial_3.png","images/pattern_6.png","j","f","750","16","3","5","0","35","0","1","3","180","","","","",""
"html-keyboard-response","195","390988","0.0-81.0-1.0","","null","<div style=""display: flex; flex-direction: column; align-items: center; margin-top: -40px;""><img src=""images/pattern_6.png"" style=""width: 234px; height: 230px; margin-top: -50px;""><div style=""display: flex; justify-content: space-between; margin-top: 33px;""><img src=""images/choice_trial_3.png"" style=""width: 408px; height: 417px; margin-left:608px;""></div></div>","null","delaylearn","learning","display_response","6550b51dbab4d79efbc6b214","bdlyjxuKp0gNtMP9dA0r3xAyVkX2","","","","","","","","","","","","","","","","","chosen stimuli: images/choice_trial_3.png","","","",""
"html-keyboard-response","196","391749","0.0-81.0-2.0","","null","","null","delaylearn","learning","feedback_duration_window","6550b51dbab4d79efbc6b214","bdlyjxuKp0gNtMP9dA0r3xAyVkX2","","","","","","","","","","","","","","","","","","750","","",""
"html-keyboard-response","197","393263","0.0-81.0-3.0","","null","<div style='margin:auto;width: auto; font-size: 150%'><span style='font-weight: bold; font-size: 100px; color: green;'>+10 points!</span><br><br></div>","null","delaylearn","learning","feedback_image_window","6550b51dbab4d79efbc6b214","bdlyjxuKp0gNtMP9dA0r3xAyVkX2","","","","","","","","","","","","","","","","","","","","",""
"html-keyboard-response","198","395728","0.0-82.0","","null","<div style=""font-size:100px;"">+</div>","null","delaylearn","learning","ITI","6550b51dbab4d79efbc6b214","bdlyjxuKp0gNtMP9dA0r3xAyVkX2","","","","","","","","","","","","","","","","","","","2460","",""
"html-keyboard-response","199","397000","0.0-83.0-0.0","","1270","<div style=""display: flex; flex-direction: column; align-items: center; margin-top: -40px;""><img src=""images/pattern_3.png"" style=""width: 234px; height: 230px; margin-top: -50px;""><div style=""display: flex; justify-content: space-between; margin-top: 33px;""><img src=""images/choice_trial_10.png"" style=""width: 408px; height: 417px; margin-right: 200px;""><img src=""images/choice_trial_13.png"" style=""width: 408px; height: 417px;""></div></div>","j","delaylearn","learning","trial","6550b51dbab4d79efbc6b214","bdlyjxuKp0gNtMP9dA0r3xAyVkX2","3","images/choice_trial_10.png","images/choice_trial_13.png","images/pattern_3.png","j","j","7000","10","13","2","1","36","1","1","13","190","","","","",""
"html-keyboard-response","200","398012","0.0-83.0-1.0","","null","<div style=""display: flex; flex-direction: column; align-items: center; margin-top: -40px;""><img src=""images/pattern_3.png"" style=""width: 234px; height: 230px; margin-top: -50px;""><div style=""display: flex; justify-content: space-between; margin-top: 33px;""><img src=""images/choice_trial_13.png"" style=""width: 408px; height: 417px; margin-left:608px;""></div></div>","null","delaylearn","learning","display_response","6550b51dbab4d79efbc6b214","bdlyjxuKp0gNtMP9dA0r3xAyVkX2","","","","","","","","","","","","","","","","","chosen stimuli: images/choice_trial_13.png","","","",""
"html-keyboard-response","201","405016","0.0-83.0-2.0","","null","","null","delaylearn","learning","feedback_duration_window","6550b51dbab4d79efbc6b214","bdlyjxuKp0gNtMP9dA0r3xAyVkX2","","","","","","","","","","","","","","","","","","7000","","",""
"html-keyboard-response","202","406529","0.0-83.0-3.0","","null","<div style='margin:auto;width: auto; font-size: 150%'><span style='font-weight: bold; font-size: 100px; color: green;'>+10 points!</span><br><br></div>","null","delaylearn","learning","feedback_image_window","6550b51dbab4d79efbc6b214","bdlyjxuKp0gNtMP9dA0r3xAyVkX2","","","","","","","","","","","","","","","","","","","","",""
"html-keyboard-response","203","408589","0.0-84.0","","null","<div style=""font-size:100px;"">+</div>","null","delaylearn","learning","ITI","6550b51dbab4d79efbc6b214","bdlyjxuKp0gNtMP9dA0r3xAyVkX2","","","","","","","","","","","","","","","","","","","2045","",""
"html-keyboard-response","204","410029","0.0-85.0-0.0","","1436.6999999284744","<div style=""display: flex; flex-direction: column; align-items: center; margin-top: -40px;""><img src=""images/pattern_4.png"" style=""width: 234px; height: 230px; margin-top: -50px;""><div style=""display: flex; justify-content: space-between; margin-top: 33px;""><img src=""images/choice_trial_9.png"" style=""width: 408px; height: 417px; margin-right: 200px;""><img src=""images/choice_trial_15.png"" style=""width: 408px; height: 417px;""></div></div>","j","delaylearn","learning","trial","6550b51dbab4d79efbc6b214","bdlyjxuKp0gNtMP9dA0r3xAyVkX2","3","images/choice_trial_9.png","images/choice_trial_15.png","images/pattern_4.png","f","j","7000","9","15","3","1","37","1","0","15","190","","","","",""
"html-keyboard-response","205","411038","0.0-85.0-1.0","","null","<div style=""display: flex; flex-direction: column; align-items: center; margin-top: -40px;""><img src=""images/pattern_4.png"" style=""width: 234px; height: 230px; margin-top: -50px;""><div style=""display: flex; justify-content: space-between; margin-top: 33px;""><img src=""images/choice_trial_15.png"" style=""width: 408px; height: 417px; margin-left:608px;""></div></div>","null","delaylearn","learning","display_response","6550b51dbab4d79efbc6b214","bdlyjxuKp0gNtMP9dA0r3xAyVkX2","","","","","","","","","","","","","","","","","chosen stimuli: images/choice_trial_15.png","","","",""
"html-keyboard-response","206","418045","0.0-85.0-2.0","","null","","null","delaylearn","learning","feedback_duration_window","6550b51dbab4d79efbc6b214","bdlyjxuKp0gNtMP9dA0r3xAyVkX2","","","","","","","","","","","","","","","","","","7000","","",""
"html-keyboard-response","207","419548","0.0-85.0-3.0","","null","<div style='margin:auto;width: auto; font-size: 150%'><span style='font-weight: bold; font-size: 100px; color: red;'>0 points!</span><br><br></div>","null","delaylearn","learning","feedback_image_window","6550b51dbab4d79efbc6b214","bdlyjxuKp0gNtMP9dA0r3xAyVkX2","","","","","","","","","","","","","","","","","","","","",""
"html-keyboard-response","208","421111","0.0-86.0","","null","<div style=""font-size:100px;"">+</div>","null","delaylearn","learning","ITI","6550b51dbab4d79efbc6b214","bdlyjxuKp0gNtMP9dA0r3xAyVkX2","","","","","","","","","","","","","","","","","","","1552","",""
"html-keyboard-response","209","422258","0.0-87.0-0.0","","1144.7000000476837","<div style=""display: flex; flex-direction: column; align-items: center; margin-top: -40px;""><img src=""images/pattern_7.png"" style=""width: 234px; height: 230px; margin-top: -50px;""><div style=""display: flex; justify-content: space-between; margin-top: 33px;""><img src=""images/choice_trial_6.png"" style=""width: 408px; height: 417px; margin-right: 200px;""><img src=""images/choice_trial_12.png"" style=""width: 408px; height: 417px;""></div></div>","f","delaylearn","learning","trial","6550b51dbab4d79efbc6b214","bdlyjxuKp0gNtMP9dA0r3xAyVkX2","3","images/choice_trial_6.png","images/choice_trial_12.png","images/pattern_7.png","f","f","750","6","12","6","0","38","1","1","6","200","","","","",""
"html-keyboard-response","210","423266","0.0-87.0-1.0","","null","<div style=""display: flex; flex-direction: column; align-items: center; margin-top: -40px;""><img src=""images/pattern_7.png"" style=""width: 234px; height: 230px; margin-top: -50px;""><div style=""display: flex; justify-content: space-between; margin-top: 33px;""><img src=""images/choice_trial_6.png"" style=""width: 408px; height: 417px; margin-right: 608px;""></div></div>","null","delaylearn","learning","display_response","6550b51dbab4d79efbc6b214","bdlyjxuKp0gNtMP9dA0r3xAyVkX2","","","","","","","","","","","","","","","","","chosen stimuli: images/choice_trial_6.png","","","",""
"html-keyboard-response","211","424031","0.0-87.0-2.0","","null","","null","delaylearn","learning","feedback_duration_window","6550b51dbab4d79efbc6b214","bdlyjxuKp0gNtMP9dA0r3xAyVkX2","","","","","","","","","","","","","","","","","","750","","",""
"html-keyboard-response","212","425541","0.0-87.0-3.0","","null","<div style='margin:auto;width: auto; font-size: 150%'><span style='font-weight: bold; font-size: 100px; color: green;'>+10 points!</span><br><br></div>","null","delaylearn","learning","feedback_image_window","6550b51dbab4d79efbc6b214","bdlyjxuKp0gNtMP9dA0r3xAyVkX2","","","","","","","","","","","","","","","","","","","","",""
"html-keyboard-response","213","428033","0.0-88.0","","null","<div style=""font-size:100px;"">+</div>","null","delaylearn","learning","ITI","6550b51dbab4d79efbc6b214","bdlyjxuKp0gNtMP9dA0r3xAyVkX2","","","","","","","","","","","","","","","","","","","2484","",""
"html-keyboard-response","214","429549","0.0-89.0-0.0","","1513.3999999761581","<div style=""display: flex; flex-direction: column; align-items: center; margin-top: -40px;""><img src=""images/pattern_1.png"" style=""width: 234px; height: 230px; margin-top: -50px;""><div style=""display: flex; justify-content: space-between; margin-top: 33px;""><img src=""images/choice_trial_14.png"" style=""width: 408px; height: 417px; margin-right: 200px;""><img src=""images/choice_trial_8.png"" style=""width: 408px; height: 417px;""></div></div>","f","delaylearn","learning","trial","6550b51dbab4d79efbc6b214","bdlyjxuKp0gNtMP9dA0r3xAyVkX2","3","images/choice_trial_14.png","images/choice_trial_8.png","images/pattern_1.png","f","f","7000","14","8","1","0","39","1","1","14","210","","","","",""
"html-keyboard-response","215","430552","0.0-89.0-1.0","","null","<div style=""display: flex; flex-direction: column; align-items: center; margin-top: -40px;""><img src=""images/pattern_1.png"" style=""width: 234px; height: 230px; margin-top: -50px;""><div style=""display: flex; justify-content: space-between; margin-top: 33px;""><img src=""images/choice_trial_14.png"" style=""width: 408px; height: 417px; margin-right: 608px;""></div></div>","null","delaylearn","learning","display_response","6550b51dbab4d79efbc6b214","bdlyjxuKp0gNtMP9dA0r3xAyVkX2","","","","","","","","","","","","","","","","","chosen stimuli: images/choice_trial_14.png","","","",""
"html-keyboard-response","216","437558","0.0-89.0-2.0","","null","","null","delaylearn","learning","feedback_duration_window","6550b51dbab4d79efbc6b214","bdlyjxuKp0gNtMP9dA0r3xAyVkX2","","","","","","","","","","","","","","","","","","7000","","",""
"html-keyboard-response","217","439063","0.0-89.0-3.0","","null","<div style='margin:auto;width: auto; font-size: 150%'><span style='font-weight: bold; font-size: 100px; color: green;'>+10 points!</span><br><br></div>","null","delaylearn","learning","feedback_image_window","6550b51dbab4d79efbc6b214","bdlyjxuKp0gNtMP9dA0r3xAyVkX2","","","","","","","","","","","","","","","","","","","","",""
"html-keyboard-response","218","439572","0.0-90.0-0.0","","null","","null","","","mood_trial_fixation","","","","","","","","","","","","","","","","","","","","","","",""
"lmdlab-html-vas-response","219","443194","0.0-90.0-1.0","","2607","How happy are you right now?","0.5447530864197531","delaylearn","learning","mood_trial","6550b51dbab4d79efbc6b214","bdlyjxuKp0gNtMP9dA0r3xAyVkX2","","","","","","","","","","","","","","","","","","","","[""Very unhappy"",""Very happy""]",""
"html-keyboard-response","220","445048","0.0-91.0","","null","<div style=""font-size:100px;"">+</div>","null","delaylearn","learning","ITI","6550b51dbab4d79efbc6b214","bdlyjxuKp0gNtMP9dA0r3xAyVkX2","","","","","","","","","","","","","","","","","","","1846","",""
