"trial_type","trial_index","time_elapsed","internal_node_id","participant","rt","stimulus","response","exp_name","exp_stage","test_part","subjectID","databaseID","counterbal","choice_stimuli_1","choice_stimuli_2","pattern_stimuli","rewarded_answer","correct_answer","feedback_duration_times","stim_left","stim_right","pair","leftright_counter","trial","response_correct","response_rewarded","chosen_stim","counter","displayed_choice","feedback_durations","ITI_duration","labels","rest_warning"
"pavlovia","0","488","0.0-0.0","","","","","","","","","","","","","","","","","","","","","","","","","","","","","",""
"html-keyboard-response","1","3493","0.0-1.0","","null","<div style=""font-size:100px;"">+</div>","null","delaylearn","learning","pre_fixation","63d455ba1597e5cf03740bec","","","","","","","","","","","","","","","","","","","","","",""
"html-keyboard-response","2","5250","0.0-2.0-0.0","","1755.4000000059605","<div style=""display: flex; flex-direction: column; align-items: center; margin-top: -40px;""><img src=""images/demo_images/pattern_1.png"" style=""width: 234px; height: 230px; margin-top: -50px;""><div style=""display: flex; justify-content: space-between; margin-top: 33px;""><img src=""images/demo_images/choice_trial_2.png"" style=""width: 408px; height: 417px; margin-right: 200px;""><img src=""images/demo_images/choice_trial_1.png"" style=""width: 408px; height: 417px;""></div></div>","j","delaylearn","learning","trial","63d455ba1597e5cf03740bec","EWiIxZvyR3NJqAt5qAjURBe3bQT2","5","images/demo_images/choice_trial_2.png","images/demo_images/choice_trial_1.png","images/demo_images/pattern_1.png","j","j","3000","2","1","20","1","1","1","1","1","10","","","","",""
"html-keyboard-response","3","6253","0.0-2.0-1.0","","null","<div style=""display: flex; flex-direction: column; align-items: center; margin-top: -40px;""><img src=""images/demo_images/pattern_1.png"" style=""width: 234px; height: 230px; margin-top: -50px;""><div style=""display: flex; justify-content: space-between; margin-top: 33px;""><img src=""images/demo_images/choice_trial_1.png"" style=""width: 408px; height: 417px; margin-left:608px;""></div></div>","null","delaylearn","learning","display_response","63d455ba1597e5cf03740bec","EWiIxZvyR3NJqAt5qAjURBe3bQT2","","","","","","","","","","","","","","","","","chosen stimuli: images/demo_images/choice_trial_1.png","","","",""
"html-keyboard-response","4","9256","0.0-2.0-2.0","","null","","null","delaylearn","learning","feedback_duration_window","63d455ba1597e5cf03740bec","EWiIxZvyR3NJqAt5qAjURBe3bQT2","","","","","","","","","","","","","","","","","","3000","","",""
"html-keyboard-response","5","10757","0.0-2.0-3.0","","null","<div style='margin:auto;width: auto; font-size: 150%'><span style='font-weight: bold; font-size: 100px; color: green;'>+10 points!</span><br><br></div>","null","delaylearn","learning","feedback_image_window","63d455ba1597e5cf03740bec","EWiIxZvyR3NJqAt5qAjURBe3bQT2","","","","","","","","","","","","","","","","","","","","",""
"html-keyboard-response","6","12583","0.0-3.0","","null","<div style=""font-size:100px;"">+</div>","null","delaylearn","learning","ITI","63d455ba1597e5cf03740bec","EWiIxZvyR3NJqAt5qAjURBe3bQT2","","","","","","","","","","","","","","","","","","","1823","",""
"html-keyboard-response","7","14245","0.0-4.0-0.0","","1661.2000000029802","<div style=""display: flex; flex-direction: column; align-items: center; margin-top: -40px;""><img src=""images/demo_images/pattern_1.png"" style=""width: 234px; height: 230px; margin-top: -50px;""><div style=""display: flex; justify-content: space-between; margin-top: 33px;""><img src=""images/demo_images/choice_trial_2.png"" style=""width: 408px; height: 417px; margin-right: 200px;""><img src=""images/demo_images/choice_trial_1.png"" style=""width: 408px; height: 417px;""></div></div>","j","delaylearn","learning","trial","63d455ba1597e5cf03740bec","EWiIxZvyR3NJqAt5qAjURBe3bQT2","5","images/demo_images/choice_trial_2.png","images/demo_images/choice_trial_1.png","images/demo_images/pattern_1.png","j","j","3000","2","1","20","1","2","1","1","1","20","","","","",""
"html-keyboard-response","8","15257","0.0-4.0-1.0","","null","<div style=""display: flex; flex-direction: column; align-items: center; margin-top: -40px;""><img src=""images/demo_images/pattern_1.png"" style=""width: 234px; height: 230px; margin-top: -50px;""><div style=""display: flex; justify-content: space-between; margin-top: 33px;""><img src=""images/demo_images/choice_trial_1.png"" style=""width: 408px; height: 417px; margin-left:608px;""></div></div>","null","delaylearn","learning","display_response","63d455ba1597e5cf03740bec","EWiIxZvyR3NJqAt5qAjURBe3bQT2","","","","","","","","","","","","","","","","","chosen stimuli: images/demo_images/choice_trial_1.png","","","",""
"html-keyboard-response","9","18261","0.0-4.0-2.0","","null","","null","delaylearn","learning","feedback_duration_window","63d455ba1597e5cf03740bec","EWiIxZvyR3NJqAt5qAjURBe3bQT2","","","","","","","","","","","","","","","","","","3000","","",""
"html-keyboard-response","10","19769","0.0-4.0-3.0","","null","<div style='margin:auto;width: auto; font-size: 150%'><span style='font-weight: bold; font-size: 100px; color: green;'>+10 points!</span><br><br></div>","null","delaylearn","learning","feedback_image_window","63d455ba1597e5cf03740bec","EWiIxZvyR3NJqAt5qAjURBe3bQT2","","","","","","","","","","","","","","","","","","","","",""
"html-keyboard-response","11","21559","0.0-5.0","","null","<div style=""font-size:100px;"">+</div>","null","delaylearn","learning","ITI","63d455ba1597e5cf03740bec","EWiIxZvyR3NJqAt5qAjURBe3bQT2","","","","","","","","","","","","","","","","","","","1788","",""
"html-keyboard-response","12","22680","0.0-6.0-0.0","","1120.1000000089407","<div style=""display: flex; flex-direction: column; align-items: center; margin-top: -40px;""><img src=""images/demo_images/pattern_1.png"" style=""width: 234px; height: 230px; margin-top: -50px;""><div style=""display: flex; justify-content: space-between; margin-top: 33px;""><img src=""images/demo_images/choice_trial_1.png"" style=""width: 408px; height: 417px; margin-right: 200px;""><img src=""images/demo_images/choice_trial_2.png"" style=""width: 408px; height: 417px;""></div></div>","f","delaylearn","learning","trial","63d455ba1597e5cf03740bec","EWiIxZvyR3NJqAt5qAjURBe3bQT2","5","images/demo_images/choice_trial_1.png","images/demo_images/choice_trial_2.png","images/demo_images/pattern_1.png","j","f","3000","1","2","20","0","3","1","0","1","20","","","","",""
"html-keyboard-response","13","23689","0.0-6.0-1.0","","null","<div style=""display: flex; flex-direction: column; align-items: center; margin-top: -40px;""><img src=""images/demo_images/pattern_1.png"" style=""width: 234px; height: 230px; margin-top: -50px;""><div style=""display: flex; justify-content: space-between; margin-top: 33px;""><img src=""images/demo_images/choice_trial_1.png"" style=""width: 408px; height: 417px; margin-right: 608px;""></div></div>","null","delaylearn","learning","display_response","63d455ba1597e5cf03740bec","EWiIxZvyR3NJqAt5qAjURBe3bQT2","","","","","","","","","","","","","","","","","chosen stimuli: images/demo_images/choice_trial_1.png","","","",""
"html-keyboard-response","14","26690","0.0-6.0-2.0","","null","","null","delaylearn","learning","feedback_duration_window","63d455ba1597e5cf03740bec","EWiIxZvyR3NJqAt5qAjURBe3bQT2","","","","","","","","","","","","","","","","","","3000","","",""
"html-keyboard-response","15","28204","0.0-6.0-3.0","","null","<div style='margin:auto;width: auto; font-size: 150%'><span style='font-weight: bold; font-size: 100px; color: red;'>0 points!</span><br><br></div>","null","delaylearn","learning","feedback_image_window","63d455ba1597e5cf03740bec","EWiIxZvyR3NJqAt5qAjURBe3bQT2","","","","","","","","","","","","","","","","","","","","",""
"html-keyboard-response","16","30233","0.0-7.0","","null","<div style=""font-size:100px;"">+</div>","null","delaylearn","learning","ITI","63d455ba1597e5cf03740bec","EWiIxZvyR3NJqAt5qAjURBe3bQT2","","","","","","","","","","","","","","","","","","","2023","",""
"html-keyboard-response","17","33032","0.0-8.0-0.0","","2798.4000000059605","<div style=""display: flex; flex-direction: column; align-items: center; margin-top: -40px;""><img src=""images/demo_images/pattern_1.png"" style=""width: 234px; height: 230px; margin-top: -50px;""><div style=""display: flex; justify-content: space-between; margin-top: 33px;""><img src=""images/demo_images/choice_trial_1.png"" style=""width: 408px; height: 417px; margin-right: 200px;""><img src=""images/demo_images/choice_trial_2.png"" style=""width: 408px; height: 417px;""></div></div>","f","delaylearn","learning","trial","63d455ba1597e5cf03740bec","EWiIxZvyR3NJqAt5qAjURBe3bQT2","5","images/demo_images/choice_trial_1.png","images/demo_images/choice_trial_2.png","images/demo_images/pattern_1.png","f","f","3000","1","2","20","0","4","1","1","1","30","","","","",""
"html-keyboard-response","18","34043","0.0-8.0-1.0","","null","<div style=""display: flex; flex-direction: column; align-items: center; margin-top: -40px;""><img src=""images/demo_images/pattern_1.png"" style=""width: 234px; height: 230px; margin-top: -50px;""><div style=""display: flex; justify-content: space-between; margin-top: 33px;""><img src=""images/demo_images/choice_trial_1.png"" style=""width: 408px; height: 417px; margin-right: 608px;""></div></div>","null","delaylearn","learning","display_response","63d455ba1597e5cf03740bec","EWiIxZvyR3NJqAt5qAjURBe3bQT2","","","","","","","","","","","","","","","","","chosen stimuli: images/demo_images/choice_trial_1.png","","","",""
"html-keyboard-response","19","37045","0.0-8.0-2.0","","null","","null","delaylearn","learning","feedback_duration_window","63d455ba1597e5cf03740bec","EWiIxZvyR3NJqAt5qAjURBe3bQT2","","","","","","","","","","","","","","","","","","3000","","",""
"html-keyboard-response","20","38558","0.0-8.0-3.0","","null","<div style='margin:auto;width: auto; font-size: 150%'><span style='font-weight: bold; font-size: 100px; color: green;'>+10 points!</span><br><br></div>","null","delaylearn","learning","feedback_image_window","63d455ba1597e5cf03740bec","EWiIxZvyR3NJqAt5qAjURBe3bQT2","","","","","","","","","","","","","","","","","","","","",""
"html-keyboard-response","21","39069","0.0-9.0-0.0","","null","","null","","","mood_trial_fixation","","","","","","","","","","","","","","","","","","","","","","",""
"lmdlab-html-vas-response","22","45222","0.0-9.0-1.0","","5134","How happy are you right now?","0.6481481481481481","delaylearn","learning","mood_trial","63d455ba1597e5cf03740bec","EWiIxZvyR3NJqAt5qAjURBe3bQT2","","","","","","","","","","","","","","","","","","","","[""Very unhappy"",""Very happy""]",""
"html-keyboard-response","23","47062","0.0-10.0","","null","<div style=""font-size:100px;"">+</div>","null","delaylearn","learning","ITI","63d455ba1597e5cf03740bec","EWiIxZvyR3NJqAt5qAjURBe3bQT2","","","","","","","","","","","","","","","","","","","1833","",""
"html-keyboard-response","24","49579","0.0-11.0-0.0","","2517.1000000089407","<div style=""display: flex; flex-direction: column; align-items: center; margin-top: -40px;""><img src=""images/demo_images/pattern_1.png"" style=""width: 234px; height: 230px; margin-top: -50px;""><div style=""display: flex; justify-content: space-between; margin-top: 33px;""><img src=""images/demo_images/choice_trial_2.png"" style=""width: 408px; height: 417px; margin-right: 200px;""><img src=""images/demo_images/choice_trial_1.png"" style=""width: 408px; height: 417px;""></div></div>","j","delaylearn","learning","trial","63d455ba1597e5cf03740bec","EWiIxZvyR3NJqAt5qAjURBe3bQT2","5","images/demo_images/choice_trial_2.png","images/demo_images/choice_trial_1.png","images/demo_images/pattern_1.png","j","j","3000","2","1","20","1","5","1","1","1","40","","","","",""
"html-keyboard-response","25","50595","0.0-11.0-1.0","","null","<div style=""display: flex; flex-direction: column; align-items: center; margin-top: -40px;""><img src=""images/demo_images/pattern_1.png"" style=""width: 234px; height: 230px; margin-top: -50px;""><div style=""display: flex; justify-content: space-between; margin-top: 33px;""><img src=""images/demo_images/choice_trial_1.png"" style=""width: 408px; height: 417px; margin-left:608px;""></div></div>","null","delaylearn","learning","display_response","63d455ba1597e5cf03740bec","EWiIxZvyR3NJqAt5qAjURBe3bQT2","","","","","","","","","","","","","","","","","chosen stimuli: images/demo_images/choice_trial_1.png","","","",""
"html-keyboard-response","26","53607","0.0-11.0-2.0","","null","","null","delaylearn","learning","feedback_duration_window","63d455ba1597e5cf03740bec","EWiIxZvyR3NJqAt5qAjURBe3bQT2","","","","","","","","","","","","","","","","","","3000","","",""
"html-keyboard-response","27","55109","0.0-11.0-3.0","","null","<div style='margin:auto;width: auto; font-size: 150%'><span style='font-weight: bold; font-size: 100px; color: green;'>+10 points!</span><br><br></div>","null","delaylearn","learning","feedback_image_window","63d455ba1597e5cf03740bec","EWiIxZvyR3NJqAt5qAjURBe3bQT2","","","","","","","","","","","","","","","","","","","","",""
"html-keyboard-response","28","57565","0.0-12.0","","null","<div style=""font-size:100px;"">+</div>","null","delaylearn","learning","ITI","63d455ba1597e5cf03740bec","EWiIxZvyR3NJqAt5qAjURBe3bQT2","","","","","","","","","","","","","","","","","","","2440","",""
"html-keyboard-response","29","59804","0.0-13.0-0.0","","2238.6000000089407","<div style=""display: flex; flex-direction: column; align-items: center; margin-top: -40px;""><img src=""images/demo_images/pattern_1.png"" style=""width: 234px; height: 230px; margin-top: -50px;""><div style=""display: flex; justify-content: space-between; margin-top: 33px;""><img src=""images/demo_images/choice_trial_1.png"" style=""width: 408px; height: 417px; margin-right: 200px;""><img src=""images/demo_images/choice_trial_2.png"" style=""width: 408px; height: 417px;""></div></div>","f","delaylearn","learning","trial","63d455ba1597e5cf03740bec","EWiIxZvyR3NJqAt5qAjURBe3bQT2","5","images/demo_images/choice_trial_1.png","images/demo_images/choice_trial_2.png","images/demo_images/pattern_1.png","f","f","3000","1","2","20","0","6","1","1","1","50","","","","",""
"html-keyboard-response","30","60805","0.0-13.0-1.0","","null","<div style=""display: flex; flex-direction: column; align-items: center; margin-top: -40px;""><img src=""images/demo_images/pattern_1.png"" style=""width: 234px; height: 230px; margin-top: -50px;""><div style=""display: flex; justify-content: space-between; margin-top: 33px;""><img src=""images/demo_images/choice_trial_1.png"" style=""width: 408px; height: 417px; margin-right: 608px;""></div></div>","null","delaylearn","learning","display_response","63d455ba1597e5cf03740bec","EWiIxZvyR3NJqAt5qAjURBe3bQT2","","","","","","","","","","","","","","","","","chosen stimuli: images/demo_images/choice_trial_1.png","","","",""
"html-keyboard-response","31","63806","0.0-13.0-2.0","","null","","null","delaylearn","learning","feedback_duration_window","63d455ba1597e5cf03740bec","EWiIxZvyR3NJqAt5qAjURBe3bQT2","","","","","","","","","","","","","","","","","","3000","","",""
"html-keyboard-response","32","65318","0.0-13.0-3.0","","null","<div style='margin:auto;width: auto; font-size: 150%'><span style='font-weight: bold; font-size: 100px; color: green;'>+10 points!</span><br><br></div>","null","delaylearn","learning","feedback_image_window","63d455ba1597e5cf03740bec","EWiIxZvyR3NJqAt5qAjURBe3bQT2","","","","","","","","","","","","","","","","","","","","",""
"html-keyboard-response","33","67215","0.0-14.0","","null","<div style=""font-size:100px;"">+</div>","null","delaylearn","learning","ITI","63d455ba1597e5cf03740bec","EWiIxZvyR3NJqAt5qAjURBe3bQT2","","","","","","","","","","","","","","","","","","","1882","",""
"html-keyboard-response","34","69127","0.0-15.0-0.0","","1911.2999999970198","<div style=""display: flex; flex-direction: column; align-items: center; margin-top: -40px;""><img src=""images/demo_images/pattern_1.png"" style=""width: 234px; height: 230px; margin-top: -50px;""><div style=""display: flex; justify-content: space-between; margin-top: 33px;""><img src=""images/demo_images/choice_trial_2.png"" style=""width: 408px; height: 417px; margin-right: 200px;""><img src=""images/demo_images/choice_trial_1.png"" style=""width: 408px; height: 417px;""></div></div>","j","delaylearn","learning","trial","63d455ba1597e5cf03740bec","EWiIxZvyR3NJqAt5qAjURBe3bQT2","5","images/demo_images/choice_trial_2.png","images/demo_images/choice_trial_1.png","images/demo_images/pattern_1.png","j","j","3000","2","1","20","1","7","1","1","1","60","","","","",""
"html-keyboard-response","35","70135","0.0-15.0-1.0","","null","<div style=""display: flex; flex-direction: column; align-items: center; margin-top: -40px;""><img src=""images/demo_images/pattern_1.png"" style=""width: 234px; height: 230px; margin-top: -50px;""><div style=""display: flex; justify-content: space-between; margin-top: 33px;""><img src=""images/demo_images/choice_trial_1.png"" style=""width: 408px; height: 417px; margin-left:608px;""></div></div>","null","delaylearn","learning","display_response","63d455ba1597e5cf03740bec","EWiIxZvyR3NJqAt5qAjURBe3bQT2","","","","","","","","","","","","","","","","","chosen stimuli: images/demo_images/choice_trial_1.png","","","",""
"html-keyboard-response","36","73150","0.0-15.0-2.0","","null","","null","delaylearn","learning","feedback_duration_window","63d455ba1597e5cf03740bec","EWiIxZvyR3NJqAt5qAjURBe3bQT2","","","","","","","","","","","","","","","","","","3000","","",""
"html-keyboard-response","37","74666","0.0-15.0-3.0","","null","<div style='margin:auto;width: auto; font-size: 150%'><span style='font-weight: bold; font-size: 100px; color: green;'>+10 points!</span><br><br></div>","null","delaylearn","learning","feedback_image_window","63d455ba1597e5cf03740bec","EWiIxZvyR3NJqAt5qAjURBe3bQT2","","","","","","","","","","","","","","","","","","","","",""
"html-keyboard-response","38","76757","0.0-16.0","","null","<div style=""font-size:100px;"">+</div>","null","delaylearn","learning","ITI","63d455ba1597e5cf03740bec","EWiIxZvyR3NJqAt5qAjURBe3bQT2","","","","","","","","","","","","","","","","","","","2076","",""
"html-keyboard-response","39","77975","0.0-17.0-0.0","","1217.5","<div style=""display: flex; flex-direction: column; align-items: center; margin-top: -40px;""><img src=""images/demo_images/pattern_1.png"" style=""width: 234px; height: 230px; margin-top: -50px;""><div style=""display: flex; justify-content: space-between; margin-top: 33px;""><img src=""images/demo_images/choice_trial_1.png"" style=""width: 408px; height: 417px; margin-right: 200px;""><img src=""images/demo_images/choice_trial_2.png"" style=""width: 408px; height: 417px;""></div></div>","f","delaylearn","learning","trial","63d455ba1597e5cf03740bec","EWiIxZvyR3NJqAt5qAjURBe3bQT2","5","images/demo_images/choice_trial_1.png","images/demo_images/choice_trial_2.png","images/demo_images/pattern_1.png","f","f","3000","1","2","20","0","8","1","1","1","70","","","","",""
"html-keyboard-response","40","78991","0.0-17.0-1.0","","null","<div style=""display: flex; flex-direction: column; align-items: center; margin-top: -40px;""><img src=""images/demo_images/pattern_1.png"" style=""width: 234px; height: 230px; margin-top: -50px;""><div style=""display: flex; justify-content: space-between; margin-top: 33px;""><img src=""images/demo_images/choice_trial_1.png"" style=""width: 408px; height: 417px; margin-right: 608px;""></div></div>","null","delaylearn","learning","display_response","63d455ba1597e5cf03740bec","EWiIxZvyR3NJqAt5qAjURBe3bQT2","","","","","","","","","","","","","","","","","chosen stimuli: images/demo_images/choice_trial_1.png","","","",""
"html-keyboard-response","41","81997","0.0-17.0-2.0","","null","","null","delaylearn","learning","feedback_duration_window","63d455ba1597e5cf03740bec","EWiIxZvyR3NJqAt5qAjURBe3bQT2","","","","","","","","","","","","","","","","","","3000","","",""
"html-keyboard-response","42","83508","0.0-17.0-3.0","","null","<div style='margin:auto;width: auto; font-size: 150%'><span style='font-weight: bold; font-size: 100px; color: green;'>+10 points!</span><br><br></div>","null","delaylearn","learning","feedback_image_window","63d455ba1597e5cf03740bec","EWiIxZvyR3NJqAt5qAjURBe3bQT2","","","","","","","","","","","","","","","","","","","","",""
"html-button-response","43","85794","0.0-18.0","","2285.2999999970198","
  <div style=""display: flex; align-items: center; justify-content: center; height: 80vh;"">
  <div>
          <img src=""images/inst_demo_finish.png"" style=""width: 80vw; height:auto;"">
          <br><br>
      </div>
      <br><br>
  </div>","0","","","","","","","","","","","","","","","","","","","","","","","","","",""
"html-keyboard-response","44","90255","0.0-19.0","","4461","
  <div style=""display: flex; align-items: center; justify-content: center; height: 80vh;"">
  <div>
          <img src=""images/inst_6.png"" style=""width: 80vw; height:auto;"">
          <br><br>
      </div>
      <br><br>
  </div>","f","","","","","","","","","","","","","","","","","","","","","","","","","",""
"html-keyboard-response","45","93255","0.0-20.0","","null","<div style=""font-size:100px;"">+</div>","null","delaylearn","learning","pre_fixation","63d455ba1597e5cf03740bec","","","","","","","","","","","","","","","","","","","","","",""
"html-keyboard-response","46","95439","0.0-21.0","","null","<div style=""font-size:100px;"">+</div>","null","delaylearn","learning","ITI","63d455ba1597e5cf03740bec","EWiIxZvyR3NJqAt5qAjURBe3bQT2","","","","","","","","","","","","","","","","","","","2180","",""
"html-keyboard-response","47","98448","0.0-22.0-0.0","","null","<div style=""display: flex; flex-direction: column; align-items: center; margin-top: -40px;""><img src=""images/pattern_3.png"" style=""width: 234px; height: 230px; margin-top: -50px;""><div style=""display: flex; justify-content: space-between; margin-top: 33px;""><img src=""images/choice_trial_16.png"" style=""width: 408px; height: 417px; margin-right: 200px;""><img src=""images/choice_trial_2.png"" style=""width: 408px; height: 417px;""></div></div>","null","delaylearn","learning","trial","63d455ba1597e5cf03740bec","EWiIxZvyR3NJqAt5qAjURBe3bQT2","5","images/choice_trial_16.png","images/choice_trial_2.png","images/pattern_3.png","f","f","7000","16","2","2","0","9","0","0","0","70","","","","",""
"html-keyboard-response","48","99452","0.0-22.0-1.0","","null","<div style='font-weight: bold; font-size: 75px; color: red;'>Missed Trial <br><br><br><br> Please respond faster</div>","null","delaylearn","learning","display_response","63d455ba1597e5cf03740bec","EWiIxZvyR3NJqAt5qAjURBe3bQT2","","","","","","","","","","","","","","","","","Missed trial","","","",""
"html-keyboard-response","49","99457","0.0-22.0-2.0","","null","","null","delaylearn","learning","feedback_duration_window","63d455ba1597e5cf03740bec","EWiIxZvyR3NJqAt5qAjURBe3bQT2","","","","","","","","","","","","","","","","","","0","","",""
"html-keyboard-response","50","99461","0.0-22.0-3.0","","null","","null","delaylearn","learning","feedback_image_window","63d455ba1597e5cf03740bec","EWiIxZvyR3NJqAt5qAjURBe3bQT2","","","","","","","","","","","","","","","","","","","","",""
"html-keyboard-response","51","101170","0.0-23.0","","null","<div style=""font-size:100px;"">+</div>","null","delaylearn","learning","ITI","63d455ba1597e5cf03740bec","EWiIxZvyR3NJqAt5qAjURBe3bQT2","","","","","","","","","","","","","","","","","","","1700","",""
"html-keyboard-response","52","102338","0.0-24.0-0.0","","1167","<div style=""display: flex; flex-direction: column; align-items: center; margin-top: -40px;""><img src=""images/pattern_7.png"" style=""width: 234px; height: 230px; margin-top: -50px;""><div style=""display: flex; justify-content: space-between; margin-top: 33px;""><img src=""images/choice_trial_10.png"" style=""width: 408px; height: 417px; margin-right: 200px;""><img src=""images/choice_trial_8.png"" style=""width: 408px; height: 417px;""></div></div>","j","delaylearn","learning","trial","63d455ba1597e5cf03740bec","EWiIxZvyR3NJqAt5qAjURBe3bQT2","5","images/choice_trial_10.png","images/choice_trial_8.png","images/pattern_7.png","j","j","750","10","8","6","1","10","1","1","8","80","","","","",""
"html-keyboard-response","53","103347","0.0-24.0-1.0","","null","<div style=""display: flex; flex-direction: column; align-items: center; margin-top: -40px;""><img src=""images/pattern_7.png"" style=""width: 234px; height: 230px; margin-top: -50px;""><div style=""display: flex; justify-content: space-between; margin-top: 33px;""><img src=""images/choice_trial_8.png"" style=""width: 408px; height: 417px; margin-left:608px;""></div></div>","null","delaylearn","learning","display_response","63d455ba1597e5cf03740bec","EWiIxZvyR3NJqAt5qAjURBe3bQT2","","","","","","","","","","","","","","","","","chosen stimuli: images/choice_trial_8.png","","","",""
"html-keyboard-response","54","104106","0.0-24.0-2.0","","null","","null","delaylearn","learning","feedback_duration_window","63d455ba1597e5cf03740bec","EWiIxZvyR3NJqAt5qAjURBe3bQT2","","","","","","","","","","","","","","","","","","750","","",""
"html-keyboard-response","55","105610","0.0-24.0-3.0","","null","<div style='margin:auto;width: auto; font-size: 150%'><span style='font-weight: bold; font-size: 100px; color: green;'>+10 points!</span><br><br></div>","null","delaylearn","learning","feedback_image_window","63d455ba1597e5cf03740bec","EWiIxZvyR3NJqAt5qAjURBe3bQT2","","","","","","","","","","","","","","","","","","","","",""
"html-keyboard-response","56","107716","0.0-25.0","","null","<div style=""font-size:100px;"">+</div>","null","delaylearn","learning","ITI","63d455ba1597e5cf03740bec","EWiIxZvyR3NJqAt5qAjURBe3bQT2","","","","","","","","","","","","","","","","","","","2091","",""
"html-keyboard-response","57","109425","0.0-26.0-0.0","","1707.9000000059605","<div style=""display: flex; flex-direction: column; align-items: center; margin-top: -40px;""><img src=""images/pattern_4.png"" style=""width: 234px; height: 230px; margin-top: -50px;""><div style=""display: flex; justify-content: space-between; margin-top: 33px;""><img src=""images/choice_trial_11.png"" style=""width: 408px; height: 417px; margin-right: 200px;""><img src=""images/choice_trial_4.png"" style=""width: 408px; height: 417px;""></div></div>","j","delaylearn","learning","trial","63d455ba1597e5cf03740bec","EWiIxZvyR3NJqAt5qAjURBe3bQT2","5","images/choice_trial_11.png","images/choice_trial_4.png","images/pattern_4.png","f","f","7000","11","4","3","0","11","0","0","4","80","","","","",""
"html-keyboard-response","58","110440","0.0-26.0-1.0","","null","<div style=""display: flex; flex-direction: column; align-items: center; margin-top: -40px;""><img src=""images/pattern_4.png"" style=""width: 234px; height: 230px; margin-top: -50px;""><div style=""display: flex; justify-content: space-between; margin-top: 33px;""><img src=""images/choice_trial_4.png"" style=""width: 408px; height: 417px; margin-left:608px;""></div></div>","null","delaylearn","learning","display_response","63d455ba1597e5cf03740bec","EWiIxZvyR3NJqAt5qAjURBe3bQT2","","","","","","","","","","","","","","","","","chosen stimuli: images/choice_trial_4.png","","","",""
"html-keyboard-response","59","117448","0.0-26.0-2.0","","null","","null","delaylearn","learning","feedback_duration_window","63d455ba1597e5cf03740bec","EWiIxZvyR3NJqAt5qAjURBe3bQT2","","","","","","","","","","","","","","","","","","7000","","",""
"html-keyboard-response","60","118951","0.0-26.0-3.0","","null","<div style='margin:auto;width: auto; font-size: 150%'><span style='font-weight: bold; font-size: 100px; color: red;'>0 points!</span><br><br></div>","null","delaylearn","learning","feedback_image_window","63d455ba1597e5cf03740bec","EWiIxZvyR3NJqAt5qAjURBe3bQT2","","","","","","","","","","","","","","","","","","","","",""
"html-keyboard-response","61","121338","0.0-27.0","","null","<div style=""font-size:100px;"">+</div>","null","delaylearn","learning","ITI","63d455ba1597e5cf03740bec","EWiIxZvyR3NJqAt5qAjURBe3bQT2","","","","","","","","","","","","","","","","","","","2385","",""
"html-keyboard-response","62","123024","0.0-28.0-0.0","","1686.2000000029802","<div style=""display: flex; flex-direction: column; align-items: center; margin-top: -40px;""><img src=""images/pattern_5.png"" style=""width: 234px; height: 230px; margin-top: -50px;""><div style=""display: flex; justify-content: space-between; margin-top: 33px;""><img src=""images/choice_trial_13.png"" style=""width: 408px; height: 417px; margin-right: 200px;""><img src=""images/choice_trial_7.png"" style=""width: 408px; height: 417px;""></div></div>","f","delaylearn","learning","trial","63d455ba1597e5cf03740bec","EWiIxZvyR3NJqAt5qAjURBe3bQT2","5","images/choice_trial_13.png","images/choice_trial_7.png","images/pattern_5.png","j","j","750","13","7","4","1","12","0","0","13","80","","","","",""
"html-keyboard-response","63","124032","0.0-28.0-1.0","","null","<div style=""display: flex; flex-direction: column; align-items: center; margin-top: -40px;""><img src=""images/pattern_5.png"" style=""width: 234px; height: 230px; margin-top: -50px;""><div style=""display: flex; justify-content: space-between; margin-top: 33px;""><img src=""images/choice_trial_13.png"" style=""width: 408px; height: 417px; margin-right: 608px;""></div></div>","null","delaylearn","learning","display_response","63d455ba1597e5cf03740bec","EWiIxZvyR3NJqAt5qAjURBe3bQT2","","","","","","","","","","","","","","","","","chosen stimuli: images/choice_trial_13.png","","","",""
"html-keyboard-response","64","124788","0.0-28.0-2.0","","null","","null","delaylearn","learning","feedback_duration_window","63d455ba1597e5cf03740bec","EWiIxZvyR3NJqAt5qAjURBe3bQT2","","","","","","","","","","","","","","","","","","750","","",""
"html-keyboard-response","65","126303","0.0-28.0-3.0","","null","<div style='margin:auto;width: auto; font-size: 150%'><span style='font-weight: bold; font-size: 100px; color: red;'>0 points!</span><br><br></div>","null","delaylearn","learning","feedback_image_window","63d455ba1597e5cf03740bec","EWiIxZvyR3NJqAt5qAjURBe3bQT2","","","","","","","","","","","","","","","","","","","","",""
"html-keyboard-response","66","128062","0.0-29.0","","null","<div style=""font-size:100px;"">+</div>","null","delaylearn","learning","ITI","63d455ba1597e5cf03740bec","EWiIxZvyR3NJqAt5qAjURBe3bQT2","","","","","","","","","","","","","","","","","","","1758","",""
"html-keyboard-response","67","129812","0.0-30.0-0.0","","1749.6000000089407","<div style=""display: flex; flex-direction: column; align-items: center; margin-top: -40px;""><img src=""images/pattern_6.png"" style=""width: 234px; height: 230px; margin-top: -50px;""><div style=""display: flex; justify-content: space-between; margin-top: 33px;""><img src=""images/choice_trial_14.png"" style=""width: 408px; height: 417px; margin-right: 200px;""><img src=""images/choice_trial_9.png"" style=""width: 408px; height: 417px;""></div></div>","f","delaylearn","learning","trial","63d455ba1597e5cf03740bec","EWiIxZvyR3NJqAt5qAjURBe3bQT2","5","images/choice_trial_14.png","images/choice_trial_9.png","images/pattern_6.png","j","f","750","14","9","5","0","13","1","0","14","80","","","","",""
"html-keyboard-response","68","130816","0.0-30.0-1.0","","null","<div style=""display: flex; flex-direction: column; align-items: center; margin-top: -40px;""><img src=""images/pattern_6.png"" style=""width: 234px; height: 230px; margin-top: -50px;""><div style=""display: flex; justify-content: space-between; margin-top: 33px;""><img src=""images/choice_trial_14.png"" style=""width: 408px; height: 417px; margin-right: 608px;""></div></div>","null","delaylearn","learning","display_response","63d455ba1597e5cf03740bec","EWiIxZvyR3NJqAt5qAjURBe3bQT2","","","","","","","","","","","","","","","","","chosen stimuli: images/choice_trial_14.png","","","",""
"html-keyboard-response","69","131574","0.0-30.0-2.0","","null","","null","delaylearn","learning","feedback_duration_window","63d455ba1597e5cf03740bec","EWiIxZvyR3NJqAt5qAjURBe3bQT2","","","","","","","","","","","","","","","","","","750","","",""
"html-keyboard-response","70","133084","0.0-30.0-3.0","","null","<div style='margin:auto;width: auto; font-size: 150%'><span style='font-weight: bold; font-size: 100px; color: red;'>0 points!</span><br><br></div>","null","delaylearn","learning","feedback_image_window","63d455ba1597e5cf03740bec","EWiIxZvyR3NJqAt5qAjURBe3bQT2","","","","","","","","","","","","","","","","","","","","",""
"html-keyboard-response","71","133595","0.0-31.0-0.0","","null","","null","","","mood_trial_fixation","","","","","","","","","","","","","","","","","","","","","","",""
"lmdlab-html-vas-response","72","138344","0.0-31.0-1.0","","3743","How happy are you right now?","0.5266203703703703","delaylearn","learning","mood_trial","63d455ba1597e5cf03740bec","EWiIxZvyR3NJqAt5qAjURBe3bQT2","","","","","","","","","","","","","","","","","","","","[""Very unhappy"",""Very happy""]",""
"html-keyboard-response","73","140202","0.0-32.0","","null","<div style=""font-size:100px;"">+</div>","null","delaylearn","learning","ITI","63d455ba1597e5cf03740bec","EWiIxZvyR3NJqAt5qAjURBe3bQT2","","","","","","","","","","","","","","","","","","","1856","",""
"html-keyboard-response","74","141464","0.0-33.0-0.0","","1260.3999999910593","<div style=""display: flex; flex-direction: column; align-items: center; margin-top: -40px;""><img src=""images/pattern_1.png"" style=""width: 234px; height: 230px; margin-top: -50px;""><div style=""display: flex; justify-content: space-between; margin-top: 33px;""><img src=""images/choice_trial_15.png"" style=""width: 408px; height: 417px; margin-right: 200px;""><img src=""images/choice_trial_6.png"" style=""width: 408px; height: 417px;""></div></div>","f","delaylearn","learning","trial","63d455ba1597e5cf03740bec","EWiIxZvyR3NJqAt5qAjURBe3bQT2","5","images/choice_trial_15.png","images/choice_trial_6.png","images/pattern_1.png","j","j","7000","15","6","1","1","14","0","0","15","80","","","","",""
"html-keyboard-response","75","142473","0.0-33.0-1.0","","null","<div style=""display: flex; flex-direction: column; align-items: center; margin-top: -40px;""><img src=""images/pattern_1.png"" style=""width: 234px; height: 230px; margin-top: -50px;""><div style=""display: flex; justify-content: space-between; margin-top: 33px;""><img src=""images/choice_trial_15.png"" style=""width: 408px; height: 417px; margin-right: 608px;""></div></div>","null","delaylearn","learning","display_response","63d455ba1597e5cf03740bec","EWiIxZvyR3NJqAt5qAjURBe3bQT2","","","","","","","","","","","","","","","","","chosen stimuli: images/choice_trial_15.png","","","",""
"html-keyboard-response","76","149476","0.0-33.0-2.0","","null","","null","delaylearn","learning","feedback_duration_window","63d455ba1597e5cf03740bec","EWiIxZvyR3NJqAt5qAjURBe3bQT2","","","","","","","","","","","","","","","","","","7000","","",""
"html-keyboard-response","77","150976","0.0-33.0-3.0","","null","<div style='margin:auto;width: auto; font-size: 150%'><span style='font-weight: bold; font-size: 100px; color: red;'>0 points!</span><br><br></div>","null","delaylearn","learning","feedback_image_window","63d455ba1597e5cf03740bec","EWiIxZvyR3NJqAt5qAjURBe3bQT2","","","","","","","","","","","","","","","","","","","","",""
"html-keyboard-response","78","152605","0.0-34.0","","null","<div style=""font-size:100px;"">+</div>","null","delaylearn","learning","ITI","63d455ba1597e5cf03740bec","EWiIxZvyR3NJqAt5qAjURBe3bQT2","","","","","","","","","","","","","","","","","","","1614","",""
"html-keyboard-response","79","154851","0.0-35.0-0.0","","2244.699999988079","<div style=""display: flex; flex-direction: column; align-items: center; margin-top: -40px;""><img src=""images/pattern_3.png"" style=""width: 234px; height: 230px; margin-top: -50px;""><div style=""display: flex; justify-content: space-between; margin-top: 33px;""><img src=""images/choice_trial_2.png"" style=""width: 408px; height: 417px; margin-right: 200px;""><img src=""images/choice_trial_16.png"" style=""width: 408px; height: 417px;""></div></div>","j","delaylearn","learning","trial","63d455ba1597e5cf03740bec","EWiIxZvyR3NJqAt5qAjURBe3bQT2","5","images/choice_trial_2.png","images/choice_trial_16.png","images/pattern_3.png","f","j","7000","2","16","2","1","15","1","0","16","80","","","","",""
"html-keyboard-response","80","155862","0.0-35.0-1.0","","null","<div style=""display: flex; flex-direction: column; align-items: center; margin-top: -40px;""><img src=""images/pattern_3.png"" style=""width: 234px; height: 230px; margin-top: -50px;""><div style=""display: flex; justify-content: space-between; margin-top: 33px;""><img src=""images/choice_trial_16.png"" style=""width: 408px; height: 417px; margin-left:608px;""></div></div>","null","delaylearn","learning","display_response","63d455ba1597e5cf03740bec","EWiIxZvyR3NJqAt5qAjURBe3bQT2","","","","","","","","","","","","","","","","","chosen stimuli: images/choice_trial_16.png","","","",""
"html-keyboard-response","81","162864","0.0-35.0-2.0","","null","","null","delaylearn","learning","feedback_duration_window","63d455ba1597e5cf03740bec","EWiIxZvyR3NJqAt5qAjURBe3bQT2","","","","","","","","","","","","","","","","","","7000","","",""
"html-keyboard-response","82","164377","0.0-35.0-3.0","","null","<div style='margin:auto;width: auto; font-size: 150%'><span style='font-weight: bold; font-size: 100px; color: red;'>0 points!</span><br><br></div>","null","delaylearn","learning","feedback_image_window","63d455ba1597e5cf03740bec","EWiIxZvyR3NJqAt5qAjURBe3bQT2","","","","","","","","","","","","","","","","","","","","",""
"html-keyboard-response","83","166282","0.0-36.0","","null","<div style=""font-size:100px;"">+</div>","null","delaylearn","learning","ITI","63d455ba1597e5cf03740bec","EWiIxZvyR3NJqAt5qAjURBe3bQT2","","","","","","","","","","","","","","","","","","","1900","",""
"html-keyboard-response","84","167739","0.0-37.0-0.0","","1456","<div style=""display: flex; flex-direction: column; align-items: center; margin-top: -40px;""><img src=""images/pattern_5.png"" style=""width: 234px; height: 230px; margin-top: -50px;""><div style=""display: flex; justify-content: space-between; margin-top: 33px;""><img src=""images/choice_trial_7.png"" style=""width: 408px; height: 417px; margin-right: 200px;""><img src=""images/choice_trial_13.png"" style=""width: 408px; height: 417px;""></div></div>","f","delaylearn","learning","trial","63d455ba1597e5cf03740bec","EWiIxZvyR3NJqAt5qAjURBe3bQT2","5","images/choice_trial_7.png","images/choice_trial_13.png","images/pattern_5.png","f","f","750","7","13","4","0","16","1","1","7","90","","","","",""
"html-keyboard-response","85","168745","0.0-37.0-1.0","","null","<div style=""display: flex; flex-direction: column; align-items: center; margin-top: -40px;""><img src=""images/pattern_5.png"" style=""width: 234px; height: 230px; margin-top: -50px;""><div style=""display: flex; justify-content: space-between; margin-top: 33px;""><img src=""images/choice_trial_7.png"" style=""width: 408px; height: 417px; margin-right: 608px;""></div></div>","null","delaylearn","learning","display_response","63d455ba1597e5cf03740bec","EWiIxZvyR3NJqAt5qAjURBe3bQT2","","","","","","","","","","","","","","","","","chosen stimuli: images/choice_trial_7.png","","","",""
"html-keyboard-response","86","169502","0.0-37.0-2.0","","null","","null","delaylearn","learning","feedback_duration_window","63d455ba1597e5cf03740bec","EWiIxZvyR3NJqAt5qAjURBe3bQT2","","","","","","","","","","","","","","","","","","750","","",""
"html-keyboard-response","87","171005","0.0-37.0-3.0","","null","<div style='margin:auto;width: auto; font-size: 150%'><span style='font-weight: bold; font-size: 100px; color: green;'>+10 points!</span><br><br></div>","null","delaylearn","learning","feedback_image_window","63d455ba1597e5cf03740bec","EWiIxZvyR3NJqAt5qAjURBe3bQT2","","","","","","","","","","","","","","","","","","","","",""
"html-keyboard-response","88","171516","0.0-38.0-0.0","","null","","null","","","mood_trial_fixation","","","","","","","","","","","","","","","","","","","","","","",""
"lmdlab-html-vas-response","89","174944","0.0-38.0-1.0","","2411","How happy are you right now?","0.5567129629629629","delaylearn","learning","mood_trial","63d455ba1597e5cf03740bec","EWiIxZvyR3NJqAt5qAjURBe3bQT2","","","","","","","","","","","","","","","","","","","","[""Very unhappy"",""Very happy""]",""
"html-keyboard-response","90","176989","0.0-39.0","","null","<div style=""font-size:100px;"">+</div>","null","delaylearn","learning","ITI","63d455ba1597e5cf03740bec","EWiIxZvyR3NJqAt5qAjURBe3bQT2","","","","","","","","","","","","","","","","","","","2042","",""
"html-keyboard-response","91","178390","0.0-40.0-0.0","","1399.9000000059605","<div style=""display: flex; flex-direction: column; align-items: center; margin-top: -40px;""><img src=""images/pattern_6.png"" style=""width: 234px; height: 230px; margin-top: -50px;""><div style=""display: flex; justify-content: space-between; margin-top: 33px;""><img src=""images/choice_trial_14.png"" style=""width: 408px; height: 417px; margin-right: 200px;""><img src=""images/choice_trial_9.png"" style=""width: 408px; height: 417px;""></div></div>","j","delaylearn","learning","trial","63d455ba1597e5cf03740bec","EWiIxZvyR3NJqAt5qAjURBe3bQT2","5","images/choice_trial_14.png","images/choice_trial_9.png","images/pattern_6.png","f","f","750","14","9","5","0","17","0","0","9","90","","","","",""
"html-keyboard-response","92","179394","0.0-40.0-1.0","","null","<div style=""display: flex; flex-direction: column; align-items: center; margin-top: -40px;""><img src=""images/pattern_6.png"" style=""width: 234px; height: 230px; margin-top: -50px;""><div style=""display: flex; justify-content: space-between; margin-top: 33px;""><img src=""images/choice_trial_9.png"" style=""width: 408px; height: 417px; margin-left:608px;""></div></div>","null","delaylearn","learning","display_response","63d455ba1597e5cf03740bec","EWiIxZvyR3NJqAt5qAjURBe3bQT2","","","","","","","","","","","","","","","","","chosen stimuli: images/choice_trial_9.png","","","",""
"html-keyboard-response","93","180152","0.0-40.0-2.0","","null","","null","delaylearn","learning","feedback_duration_window","63d455ba1597e5cf03740bec","EWiIxZvyR3NJqAt5qAjURBe3bQT2","","","","","","","","","","","","","","","","","","750","","",""
"html-keyboard-response","94","181662","0.0-40.0-3.0","","null","<div style='margin:auto;width: auto; font-size: 150%'><span style='font-weight: bold; font-size: 100px; color: red;'>0 points!</span><br><br></div>","null","delaylearn","learning","feedback_image_window","63d455ba1597e5cf03740bec","EWiIxZvyR3NJqAt5qAjURBe3bQT2","","","","","","","","","","","","","","","","","","","","",""
"html-keyboard-response","95","183178","0.0-41.0","","null","<div style=""font-size:100px;"">+</div>","null","delaylearn","learning","ITI","63d455ba1597e5cf03740bec","EWiIxZvyR3NJqAt5qAjURBe3bQT2","","","","","","","","","","","","","","","","","","","1502","",""
"html-keyboard-response","96","184229","0.0-42.0-0.0","","1049.9000000059605","<div style=""display: flex; flex-direction: column; align-items: center; margin-top: -40px;""><img src=""images/pattern_4.png"" style=""width: 234px; height: 230px; margin-top: -50px;""><div style=""display: flex; justify-content: space-between; margin-top: 33px;""><img src=""images/choice_trial_4.png"" style=""width: 408px; height: 417px; margin-right: 200px;""><img src=""images/choice_trial_11.png"" style=""width: 408px; height: 417px;""></div></div>","j","delaylearn","learning","trial","63d455ba1597e5cf03740bec","EWiIxZvyR3NJqAt5qAjURBe3bQT2","5","images/choice_trial_4.png","images/choice_trial_11.png","images/pattern_4.png","j","j","7000","4","11","3","1","18","1","1","11","100","","","","",""
"html-keyboard-response","97","185235","0.0-42.0-1.0","","null","<div style=""display: flex; flex-direction: column; align-items: center; margin-top: -40px;""><img src=""images/pattern_4.png"" style=""width: 234px; height: 230px; margin-top: -50px;""><div style=""display: flex; justify-content: space-between; margin-top: 33px;""><img src=""images/choice_trial_11.png"" style=""width: 408px; height: 417px; margin-left:608px;""></div></div>","null","delaylearn","learning","display_response","63d455ba1597e5cf03740bec","EWiIxZvyR3NJqAt5qAjURBe3bQT2","","","","","","","","","","","","","","","","","chosen stimuli: images/choice_trial_11.png","","","",""
"html-keyboard-response","98","192245","0.0-42.0-2.0","","null","","null","delaylearn","learning","feedback_duration_window","63d455ba1597e5cf03740bec","EWiIxZvyR3NJqAt5qAjURBe3bQT2","","","","","","","","","","","","","","","","","","7000","","",""
"html-keyboard-response","99","193753","0.0-42.0-3.0","","null","<div style='margin:auto;width: auto; font-size: 150%'><span style='font-weight: bold; font-size: 100px; color: green;'>+10 points!</span><br><br></div>","null","delaylearn","learning","feedback_image_window","63d455ba1597e5cf03740bec","EWiIxZvyR3NJqAt5qAjURBe3bQT2","","","","","","","","","","","","","","","","","","","","",""
"html-keyboard-response","100","195664","0.0-43.0","","null","<div style=""font-size:100px;"">+</div>","null","delaylearn","learning","ITI","63d455ba1597e5cf03740bec","EWiIxZvyR3NJqAt5qAjURBe3bQT2","","","","","","","","","","","","","","","","","","","1904","",""
"html-keyboard-response","101","196609","0.0-44.0-0.0","","944.7000000029802","<div style=""display: flex; flex-direction: column; align-items: center; margin-top: -40px;""><img src=""images/pattern_7.png"" style=""width: 234px; height: 230px; margin-top: -50px;""><div style=""display: flex; justify-content: space-between; margin-top: 33px;""><img src=""images/choice_trial_8.png"" style=""width: 408px; height: 417px; margin-right: 200px;""><img src=""images/choice_trial_10.png"" style=""width: 408px; height: 417px;""></div></div>","f","delaylearn","learning","trial","63d455ba1597e5cf03740bec","EWiIxZvyR3NJqAt5qAjURBe3bQT2","5","images/choice_trial_8.png","images/choice_trial_10.png","images/pattern_7.png","j","f","750","8","10","6","0","19","1","0","8","100","","","","",""
"html-keyboard-response","102","197624","0.0-44.0-1.0","","null","<div style=""display: flex; flex-direction: column; align-items: center; margin-top: -40px;""><img src=""images/pattern_7.png"" style=""width: 234px; height: 230px; margin-top: -50px;""><div style=""display: flex; justify-content: space-between; margin-top: 33px;""><img src=""images/choice_trial_8.png"" style=""width: 408px; height: 417px; margin-right: 608px;""></div></div>","null","delaylearn","learning","display_response","63d455ba1597e5cf03740bec","EWiIxZvyR3NJqAt5qAjURBe3bQT2","","","","","","","","","","","","","","","","","chosen stimuli: images/choice_trial_8.png","","","",""
"html-keyboard-response","103","198377","0.0-44.0-2.0","","null","","null","delaylearn","learning","feedback_duration_window","63d455ba1597e5cf03740bec","EWiIxZvyR3NJqAt5qAjURBe3bQT2","","","","","","","","","","","","","","","","","","750","","",""
"html-keyboard-response","104","199891","0.0-44.0-3.0","","null","<div style='margin:auto;width: auto; font-size: 150%'><span style='font-weight: bold; font-size: 100px; color: red;'>0 points!</span><br><br></div>","null","delaylearn","learning","feedback_image_window","63d455ba1597e5cf03740bec","EWiIxZvyR3NJqAt5qAjURBe3bQT2","","","","","","","","","","","","","","","","","","","","",""
"html-keyboard-response","105","202041","0.0-45.0","","null","<div style=""font-size:100px;"">+</div>","null","delaylearn","learning","ITI","63d455ba1597e5cf03740bec","EWiIxZvyR3NJqAt5qAjURBe3bQT2","","","","","","","","","","","","","","","","","","","2138","",""
"html-keyboard-response","106","203524","0.0-46.0-0.0","","1482.7000000029802","<div style=""display: flex; flex-direction: column; align-items: center; margin-top: -40px;""><img src=""images/pattern_1.png"" style=""width: 234px; height: 230px; margin-top: -50px;""><div style=""display: flex; justify-content: space-between; margin-top: 33px;""><img src=""images/choice_trial_6.png"" style=""width: 408px; height: 417px; margin-right: 200px;""><img src=""images/choice_trial_15.png"" style=""width: 408px; height: 417px;""></div></div>","f","delaylearn","learning","trial","63d455ba1597e5cf03740bec","EWiIxZvyR3NJqAt5qAjURBe3bQT2","5","images/choice_trial_6.png","images/choice_trial_15.png","images/pattern_1.png","f","f","7000","6","15","1","0","20","1","1","6","110","","","","",""
"html-keyboard-response","107","204540","0.0-46.0-1.0","","null","<div style=""display: flex; flex-direction: column; align-items: center; margin-top: -40px;""><img src=""images/pattern_1.png"" style=""width: 234px; height: 230px; margin-top: -50px;""><div style=""display: flex; justify-content: space-between; margin-top: 33px;""><img src=""images/choice_trial_6.png"" style=""width: 408px; height: 417px; margin-right: 608px;""></div></div>","null","delaylearn","learning","display_response","63d455ba1597e5cf03740bec","EWiIxZvyR3NJqAt5qAjURBe3bQT2","","","","","","","","","","","","","","","","","chosen stimuli: images/choice_trial_6.png","","","",""
"html-keyboard-response","108","211554","0.0-46.0-2.0","","null","","null","delaylearn","learning","feedback_duration_window","63d455ba1597e5cf03740bec","EWiIxZvyR3NJqAt5qAjURBe3bQT2","","","","","","","","","","","","","","","","","","7000","","",""
"html-keyboard-response","109","213065","0.0-46.0-3.0","","null","<div style='margin:auto;width: auto; font-size: 150%'><span style='font-weight: bold; font-size: 100px; color: green;'>+10 points!</span><br><br></div>","null","delaylearn","learning","feedback_image_window","63d455ba1597e5cf03740bec","EWiIxZvyR3NJqAt5qAjURBe3bQT2","","","","","","","","","","","","","","","","","","","","",""
"html-keyboard-response","110","215139","0.0-47.0","","null","<div style=""font-size:100px;"">+</div>","null","delaylearn","learning","ITI","63d455ba1597e5cf03740bec","EWiIxZvyR3NJqAt5qAjURBe3bQT2","","","","","","","","","","","","","","","","","","","2072","",""
"html-keyboard-response","111","217049","0.0-48.0-0.0","","1909.0999999940395","<div style=""display: flex; flex-direction: column; align-items: center; margin-top: -40px;""><img src=""images/pattern_6.png"" style=""width: 234px; height: 230px; margin-top: -50px;""><div style=""display: flex; justify-content: space-between; margin-top: 33px;""><img src=""images/choice_trial_9.png"" style=""width: 408px; height: 417px; margin-right: 200px;""><img src=""images/choice_trial_14.png"" style=""width: 408px; height: 417px;""></div></div>","j","delaylearn","learning","trial","63d455ba1597e5cf03740bec","EWiIxZvyR3NJqAt5qAjURBe3bQT2","5","images/choice_trial_9.png","images/choice_trial_14.png","images/pattern_6.png","j","j","750","9","14","5","1","21","1","1","14","120","","","","",""
"html-keyboard-response","112","218057","0.0-48.0-1.0","","null","<div style=""display: flex; flex-direction: column; align-items: center; margin-top: -40px;""><img src=""images/pattern_6.png"" style=""width: 234px; height: 230px; margin-top: -50px;""><div style=""display: flex; justify-content: space-between; margin-top: 33px;""><img src=""images/choice_trial_14.png"" style=""width: 408px; height: 417px; margin-left:608px;""></div></div>","null","delaylearn","learning","display_response","63d455ba1597e5cf03740bec","EWiIxZvyR3NJqAt5qAjURBe3bQT2","","","","","","","","","","","","","","","","","chosen stimuli: images/choice_trial_14.png","","","",""
"html-keyboard-response","113","218817","0.0-48.0-2.0","","null","","null","delaylearn","learning","feedback_duration_window","63d455ba1597e5cf03740bec","EWiIxZvyR3NJqAt5qAjURBe3bQT2","","","","","","","","","","","","","","","","","","750","","",""
"html-keyboard-response","114","220333","0.0-48.0-3.0","","null","<div style='margin:auto;width: auto; font-size: 150%'><span style='font-weight: bold; font-size: 100px; color: green;'>+10 points!</span><br><br></div>","null","delaylearn","learning","feedback_image_window","63d455ba1597e5cf03740bec","EWiIxZvyR3NJqAt5qAjURBe3bQT2","","","","","","","","","","","","","","","","","","","","",""
"html-keyboard-response","115","222395","0.0-49.0","","null","<div style=""font-size:100px;"">+</div>","null","delaylearn","learning","ITI","63d455ba1597e5cf03740bec","EWiIxZvyR3NJqAt5qAjURBe3bQT2","","","","","","","","","","","","","","","","","","","2048","",""
"html-keyboard-response","116","223724","0.0-50.0-0.0","","1328.3999999910593","<div style=""display: flex; flex-direction: column; align-items: center; margin-top: -40px;""><img src=""images/pattern_4.png"" style=""width: 234px; height: 230px; margin-top: -50px;""><div style=""display: flex; justify-content: space-between; margin-top: 33px;""><img src=""images/choice_trial_11.png"" style=""width: 408px; height: 417px; margin-right: 200px;""><img src=""images/choice_trial_4.png"" style=""width: 408px; height: 417px;""></div></div>","f","delaylearn","learning","trial","63d455ba1597e5cf03740bec","EWiIxZvyR3NJqAt5qAjURBe3bQT2","5","images/choice_trial_11.png","images/choice_trial_4.png","images/pattern_4.png","f","f","7000","11","4","3","0","22","1","1","11","130","","","","",""
"html-keyboard-response","117","224725","0.0-50.0-1.0","","null","<div style=""display: flex; flex-direction: column; align-items: center; margin-top: -40px;""><img src=""images/pattern_4.png"" style=""width: 234px; height: 230px; margin-top: -50px;""><div style=""display: flex; justify-content: space-between; margin-top: 33px;""><img src=""images/choice_trial_11.png"" style=""width: 408px; height: 417px; margin-right: 608px;""></div></div>","null","delaylearn","learning","display_response","63d455ba1597e5cf03740bec","EWiIxZvyR3NJqAt5qAjURBe3bQT2","","","","","","","","","","","","","","","","","chosen stimuli: images/choice_trial_11.png","","","",""
"html-keyboard-response","118","231733","0.0-50.0-2.0","","null","","null","delaylearn","learning","feedback_duration_window","63d455ba1597e5cf03740bec","EWiIxZvyR3NJqAt5qAjURBe3bQT2","","","","","","","","","","","","","","","","","","7000","","",""
"html-keyboard-response","119","233242","0.0-50.0-3.0","","null","<div style='margin:auto;width: auto; font-size: 150%'><span style='font-weight: bold; font-size: 100px; color: green;'>+10 points!</span><br><br></div>","null","delaylearn","learning","feedback_image_window","63d455ba1597e5cf03740bec","EWiIxZvyR3NJqAt5qAjURBe3bQT2","","","","","","","","","","","","","","","","","","","","",""
"html-keyboard-response","120","233751","0.0-51.0-0.0","","null","","null","","","mood_trial_fixation","","","","","","","","","","","","","","","","","","","","","","",""
"lmdlab-html-vas-response","121","237194","0.0-51.0-1.0","","2440","How happy are you right now?","0.5995370370370371","delaylearn","learning","mood_trial","63d455ba1597e5cf03740bec","EWiIxZvyR3NJqAt5qAjURBe3bQT2","","","","","","","","","","","","","","","","","","","","[""Very unhappy"",""Very happy""]",""
"html-keyboard-response","122","239108","0.0-52.0","","null","<div style=""font-size:100px;"">+</div>","null","delaylearn","learning","ITI","63d455ba1597e5cf03740bec","EWiIxZvyR3NJqAt5qAjURBe3bQT2","","","","","","","","","","","","","","","","","","","1911","",""
"html-keyboard-response","123","240659","0.0-53.0-0.0","","1549.9000000059605","<div style=""display: flex; flex-direction: column; align-items: center; margin-top: -40px;""><img src=""images/pattern_7.png"" style=""width: 234px; height: 230px; margin-top: -50px;""><div style=""display: flex; justify-content: space-between; margin-top: 33px;""><img src=""images/choice_trial_10.png"" style=""width: 408px; height: 417px; margin-right: 200px;""><img src=""images/choice_trial_8.png"" style=""width: 408px; height: 417px;""></div></div>","f","delaylearn","learning","trial","63d455ba1597e5cf03740bec","EWiIxZvyR3NJqAt5qAjURBe3bQT2","5","images/choice_trial_10.png","images/choice_trial_8.png","images/pattern_7.png","j","j","750","10","8","6","1","23","0","0","10","130","","","","",""
"html-keyboard-response","124","241670","0.0-53.0-1.0","","null","<div style=""display: flex; flex-direction: column; align-items: center; margin-top: -40px;""><img src=""images/pattern_7.png"" style=""width: 234px; height: 230px; margin-top: -50px;""><div style=""display: flex; justify-content: space-between; margin-top: 33px;""><img src=""images/choice_trial_10.png"" style=""width: 408px; height: 417px; margin-right: 608px;""></div></div>","null","delaylearn","learning","display_response","63d455ba1597e5cf03740bec","EWiIxZvyR3NJqAt5qAjURBe3bQT2","","","","","","","","","","","","","","","","","chosen stimuli: images/choice_trial_10.png","","","",""
"html-keyboard-response","125","242427","0.0-53.0-2.0","","null","","null","delaylearn","learning","feedback_duration_window","63d455ba1597e5cf03740bec","EWiIxZvyR3NJqAt5qAjURBe3bQT2","","","","","","","","","","","","","","","","","","750","","",""
"html-keyboard-response","126","243931","0.0-53.0-3.0","","null","<div style='margin:auto;width: auto; font-size: 150%'><span style='font-weight: bold; font-size: 100px; color: red;'>0 points!</span><br><br></div>","null","delaylearn","learning","feedback_image_window","63d455ba1597e5cf03740bec","EWiIxZvyR3NJqAt5qAjURBe3bQT2","","","","","","","","","","","","","","","","","","","","",""
"html-keyboard-response","127","245542","0.0-54.0","","null","<div style=""font-size:100px;"">+</div>","null","delaylearn","learning","ITI","63d455ba1597e5cf03740bec","EWiIxZvyR3NJqAt5qAjURBe3bQT2","","","","","","","","","","","","","","","","","","","1607","",""
"html-keyboard-response","128","246895","0.0-55.0-0.0","","1352.1000000089407","<div style=""display: flex; flex-direction: column; align-items: center; margin-top: -40px;""><img src=""images/pattern_1.png"" style=""width: 234px; height: 230px; margin-top: -50px;""><div style=""display: flex; justify-content: space-between; margin-top: 33px;""><img src=""images/choice_trial_15.png"" style=""width: 408px; height: 417px; margin-right: 200px;""><img src=""images/choice_trial_6.png"" style=""width: 408px; height: 417px;""></div></div>","j","delaylearn","learning","trial","63d455ba1597e5cf03740bec","EWiIxZvyR3NJqAt5qAjURBe3bQT2","5","images/choice_trial_15.png","images/choice_trial_6.png","images/pattern_1.png","f","j","7000","15","6","1","1","24","1","0","6","130","","","","",""
"html-keyboard-response","129","247909","0.0-55.0-1.0","","null","<div style=""display: flex; flex-direction: column; align-items: center; margin-top: -40px;""><img src=""images/pattern_1.png"" style=""width: 234px; height: 230px; margin-top: -50px;""><div style=""display: flex; justify-content: space-between; margin-top: 33px;""><img src=""images/choice_trial_6.png"" style=""width: 408px; height: 417px; margin-left:608px;""></div></div>","null","delaylearn","learning","display_response","63d455ba1597e5cf03740bec","EWiIxZvyR3NJqAt5qAjURBe3bQT2","","","","","","","","","","","","","","","","","chosen stimuli: images/choice_trial_6.png","","","",""
"html-keyboard-response","130","254912","0.0-55.0-2.0","","null","","null","delaylearn","learning","feedback_duration_window","63d455ba1597e5cf03740bec","EWiIxZvyR3NJqAt5qAjURBe3bQT2","","","","","","","","","","","","","","","","","","7000","","",""
"html-keyboard-response","131","256427","0.0-55.0-3.0","","null","<div style='margin:auto;width: auto; font-size: 150%'><span style='font-weight: bold; font-size: 100px; color: red;'>0 points!</span><br><br></div>","null","delaylearn","learning","feedback_image_window","63d455ba1597e5cf03740bec","EWiIxZvyR3NJqAt5qAjURBe3bQT2","","","","","","","","","","","","","","","","","","","","",""
"html-keyboard-response","132","258288","0.0-56.0","","null","<div style=""font-size:100px;"">+</div>","null","delaylearn","learning","ITI","63d455ba1597e5cf03740bec","EWiIxZvyR3NJqAt5qAjURBe3bQT2","","","","","","","","","","","","","","","","","","","1859","",""
"html-keyboard-response","133","260319","0.0-57.0-0.0","","2029.9000000059605","<div style=""display: flex; flex-direction: column; align-items: center; margin-top: -40px;""><img src=""images/pattern_5.png"" style=""width: 234px; height: 230px; margin-top: -50px;""><div style=""display: flex; justify-content: space-between; margin-top: 33px;""><img src=""images/choice_trial_13.png"" style=""width: 408px; height: 417px; margin-right: 200px;""><img src=""images/choice_trial_7.png"" style=""width: 408px; height: 417px;""></div></div>","j","delaylearn","learning","trial","63d455ba1597e5cf03740bec","EWiIxZvyR3NJqAt5qAjURBe3bQT2","5","images/choice_trial_13.png","images/choice_trial_7.png","images/pattern_5.png","j","j","750","13","7","4","1","25","1","1","7","140","","","","",""
"html-keyboard-response","134","261331","0.0-57.0-1.0","","null","<div style=""display: flex; flex-direction: column; align-items: center; margin-top: -40px;""><img src=""images/pattern_5.png"" style=""width: 234px; height: 230px; margin-top: -50px;""><div style=""display: flex; justify-content: space-between; margin-top: 33px;""><img src=""images/choice_trial_7.png"" style=""width: 408px; height: 417px; margin-left:608px;""></div></div>","null","delaylearn","learning","display_response","63d455ba1597e5cf03740bec","EWiIxZvyR3NJqAt5qAjURBe3bQT2","","","","","","","","","","","","","","","","","chosen stimuli: images/choice_trial_7.png","","","",""
"html-keyboard-response","135","262090","0.0-57.0-2.0","","null","","null","delaylearn","learning","feedback_duration_window","63d455ba1597e5cf03740bec","EWiIxZvyR3NJqAt5qAjURBe3bQT2","","","","","","","","","","","","","","","","","","750","","",""
"html-keyboard-response","136","263606","0.0-57.0-3.0","","null","<div style='margin:auto;width: auto; font-size: 150%'><span style='font-weight: bold; font-size: 100px; color: green;'>+10 points!</span><br><br></div>","null","delaylearn","learning","feedback_image_window","63d455ba1597e5cf03740bec","EWiIxZvyR3NJqAt5qAjURBe3bQT2","","","","","","","","","","","","","","","","","","","","",""
"html-keyboard-response","137","265743","0.0-58.0","","null","<div style=""font-size:100px;"">+</div>","null","delaylearn","learning","ITI","63d455ba1597e5cf03740bec","EWiIxZvyR3NJqAt5qAjURBe3bQT2","","","","","","","","","","","","","","","","","","","2130","",""
"html-keyboard-response","138","267446","0.0-59.0-0.0","","1701.2999999970198","<div style=""display: flex; flex-direction: column; align-items: center; margin-top: -40px;""><img src=""images/pattern_3.png"" style=""width: 234px; height: 230px; margin-top: -50px;""><div style=""display: flex; justify-content: space-between; margin-top: 33px;""><img src=""images/choice_trial_2.png"" style=""width: 408px; height: 417px; margin-right: 200px;""><img src=""images/choice_trial_16.png"" style=""width: 408px; height: 417px;""></div></div>","f","delaylearn","learning","trial","63d455ba1597e5cf03740bec","EWiIxZvyR3NJqAt5qAjURBe3bQT2","5","images/choice_trial_2.png","images/choice_trial_16.png","images/pattern_3.png","j","j","7000","2","16","2","1","26","0","0","2","140","","","","",""
"html-keyboard-response","139","268461","0.0-59.0-1.0","","null","<div style=""display: flex; flex-direction: column; align-items: center; margin-top: -40px;""><img src=""images/pattern_3.png"" style=""width: 234px; height: 230px; margin-top: -50px;""><div style=""display: flex; justify-content: space-between; margin-top: 33px;""><img src=""images/choice_trial_2.png"" style=""width: 408px; height: 417px; margin-right: 608px;""></div></div>","null","delaylearn","learning","display_response","63d455ba1597e5cf03740bec","EWiIxZvyR3NJqAt5qAjURBe3bQT2","","","","","","","","","","","","","","","","","chosen stimuli: images/choice_trial_2.png","","","",""
"html-keyboard-response","140","275466","0.0-59.0-2.0","","null","","null","delaylearn","learning","feedback_duration_window","63d455ba1597e5cf03740bec","EWiIxZvyR3NJqAt5qAjURBe3bQT2","","","","","","","","","","","","","","","","","","7000","","",""
"html-keyboard-response","141","276980","0.0-59.0-3.0","","null","<div style='margin:auto;width: auto; font-size: 150%'><span style='font-weight: bold; font-size: 100px; color: red;'>0 points!</span><br><br></div>","null","delaylearn","learning","feedback_image_window","63d455ba1597e5cf03740bec","EWiIxZvyR3NJqAt5qAjURBe3bQT2","","","","","","","","","","","","","","","","","","","","",""
"lmdlab-html-vas-response","142","283365","0.0-60.0-0.0","","4873","*How <b><u>confident</u></b> are you feeling about your answers at this moment?*","0.3229166666666667","rewlearn","rate_confidence","","63d455ba1597e5cf03740bec","EWiIxZvyR3NJqAt5qAjURBe3bQT2","","","","","","","","","","","","","","","","","","","","[""No confidence"",""Complete confidence""]",""
"lmdlab-rest-trial-limit","143","295924","0.0-60.0-1.0","","11044.20000000298","<div style=""font-size:40px;""><b>Please take a break!</b><br><br><br><br><p>Great work: you earned 140 points.<br><br><br><p>You have completed part(s) 1 of 5.<br><br><br><br>When you are ready to continue<br><br><br>please click the button.</p><br><br>","0","delaylearn","learning","break","63d455ba1597e5cf03740bec","EWiIxZvyR3NJqAt5qAjURBe3bQT2","","","","","","","","","","","","","","","","","","","","","0"
"html-keyboard-response","144","298931","0.0-60.0-2.0","","null","<div style=""font-size:100px;"">+</div>","null","delaylearn","learning","pre_fixation","63d455ba1597e5cf03740bec","","","","","","","","","","","","","","","","","","","","","",""
"lmdlab-html-vas-response","145","302580","0.0-60.0-3.0-0.0","","2646","How happy are you right now?","0.5752314814814815","delaylearn","learning","mood_baseline","63d455ba1597e5cf03740bec","EWiIxZvyR3NJqAt5qAjURBe3bQT2","","","","","","","","","","","","","","","","","","","","[""Very unhappy"",""Very happy""]",""
"html-keyboard-response","146","304085","0.0-60.0-3.0-1.0","","null","","null","","","mood_baseline_fixation","","","","","","","","","","","","","","","","","","","","","","",""
"html-keyboard-response","147","306282","0.0-61.0","","null","<div style=""font-size:100px;"">+</div>","null","delaylearn","learning","ITI","63d455ba1597e5cf03740bec","EWiIxZvyR3NJqAt5qAjURBe3bQT2","","","","","","","","","","","","","","","","","","","2192","",""
"html-keyboard-response","148","308140","0.0-62.0-0.0","","1857.0999999940395","<div style=""display: flex; flex-direction: column; align-items: center; margin-top: -40px;""><img src=""images/pattern_7.png"" style=""width: 234px; height: 230px; margin-top: -50px;""><div style=""display: flex; justify-content: space-between; margin-top: 33px;""><img src=""images/choice_trial_10.png"" style=""width: 408px; height: 417px; margin-right: 200px;""><img src=""images/choice_trial_8.png"" style=""width: 408px; height: 417px;""></div></div>","j","delaylearn","learning","trial","63d455ba1597e5cf03740bec","EWiIxZvyR3NJqAt5qAjURBe3bQT2","5","images/choice_trial_10.png","images/choice_trial_8.png","images/pattern_7.png","j","j","750","10","8","6","1","27","1","1","8","150","","","","",""
"html-keyboard-response","149","309155","0.0-62.0-1.0","","null","<div style=""display: flex; flex-direction: column; align-items: center; margin-top: -40px;""><img src=""images/pattern_7.png"" style=""width: 234px; height: 230px; margin-top: -50px;""><div style=""display: flex; justify-content: space-between; margin-top: 33px;""><img src=""images/choice_trial_8.png"" style=""width: 408px; height: 417px; margin-left:608px;""></div></div>","null","delaylearn","learning","display_response","63d455ba1597e5cf03740bec","EWiIxZvyR3NJqAt5qAjURBe3bQT2","","","","","","","","","","","","","","","","","chosen stimuli: images/choice_trial_8.png","","","",""
"html-keyboard-response","150","309915","0.0-62.0-2.0","","null","","null","delaylearn","learning","feedback_duration_window","63d455ba1597e5cf03740bec","EWiIxZvyR3NJqAt5qAjURBe3bQT2","","","","","","","","","","","","","","","","","","750","","",""
"html-keyboard-response","151","311417","0.0-62.0-3.0","","null","<div style='margin:auto;width: auto; font-size: 150%'><span style='font-weight: bold; font-size: 100px; color: green;'>+10 points!</span><br><br></div>","null","delaylearn","learning","feedback_image_window","63d455ba1597e5cf03740bec","EWiIxZvyR3NJqAt5qAjURBe3bQT2","","","","","","","","","","","","","","","","","","","","",""
"html-keyboard-response","152","311930","0.0-63.0-0.0","","null","","null","","","mood_trial_fixation","","","","","","","","","","","","","","","","","","","","","","",""
"lmdlab-html-vas-response","153","314888","0.0-63.0-1.0","","1952","How happy are you right now?","0.5543981481481481","delaylearn","learning","mood_trial","63d455ba1597e5cf03740bec","EWiIxZvyR3NJqAt5qAjURBe3bQT2","","","","","","","","","","","","","","","","","","","","[""Very unhappy"",""Very happy""]",""
"html-keyboard-response","154","316653","0.0-64.0","","null","<div style=""font-size:100px;"">+</div>","null","delaylearn","learning","ITI","63d455ba1597e5cf03740bec","EWiIxZvyR3NJqAt5qAjURBe3bQT2","","","","","","","","","","","","","","","","","","","1760","",""
"html-keyboard-response","155","318233","0.0-65.0-0.0","","1578.8999999910593","<div style=""display: flex; flex-direction: column; align-items: center; margin-top: -40px;""><img src=""images/pattern_1.png"" style=""width: 234px; height: 230px; margin-top: -50px;""><div style=""display: flex; justify-content: space-between; margin-top: 33px;""><img src=""images/choice_trial_6.png"" style=""width: 408px; height: 417px; margin-right: 200px;""><img src=""images/choice_trial_15.png"" style=""width: 408px; height: 417px;""></div></div>","f","delaylearn","learning","trial","63d455ba1597e5cf03740bec","EWiIxZvyR3NJqAt5qAjURBe3bQT2","5","images/choice_trial_6.png","images/choice_trial_15.png","images/pattern_1.png","f","f","7000","6","15","1","0","28","1","1","6","160","","","","",""
"html-keyboard-response","156","319242","0.0-65.0-1.0","","null","<div style=""display: flex; flex-direction: column; align-items: center; margin-top: -40px;""><img src=""images/pattern_1.png"" style=""width: 234px; height: 230px; margin-top: -50px;""><div style=""display: flex; justify-content: space-between; margin-top: 33px;""><img src=""images/choice_trial_6.png"" style=""width: 408px; height: 417px; margin-right: 608px;""></div></div>","null","delaylearn","learning","display_response","63d455ba1597e5cf03740bec","EWiIxZvyR3NJqAt5qAjURBe3bQT2","","","","","","","","","","","","","","","","","chosen stimuli: images/choice_trial_6.png","","","",""
"html-keyboard-response","157","326254","0.0-65.0-2.0","","null","","null","delaylearn","learning","feedback_duration_window","63d455ba1597e5cf03740bec","EWiIxZvyR3NJqAt5qAjURBe3bQT2","","","","","","","","","","","","","","","","","","7000","","",""
"html-keyboard-response","158","327769","0.0-65.0-3.0","","null","<div style='margin:auto;width: auto; font-size: 150%'><span style='font-weight: bold; font-size: 100px; color: green;'>+10 points!</span><br><br></div>","null","delaylearn","learning","feedback_image_window","63d455ba1597e5cf03740bec","EWiIxZvyR3NJqAt5qAjURBe3bQT2","","","","","","","","","","","","","","","","","","","","",""
"html-keyboard-response","159","330264","0.0-66.0","","null","<div style=""font-size:100px;"">+</div>","null","delaylearn","learning","ITI","63d455ba1597e5cf03740bec","EWiIxZvyR3NJqAt5qAjURBe3bQT2","","","","","","","","","","","","","","","","","","","2494","",""
"html-keyboard-response","160","331951","0.0-67.0-0.0","","1686","<div style=""display: flex; flex-direction: column; align-items: center; margin-top: -40px;""><img src=""images/pattern_5.png"" style=""width: 234px; height: 230px; margin-top: -50px;""><div style=""display: flex; justify-content: space-between; margin-top: 33px;""><img src=""images/choice_trial_7.png"" style=""width: 408px; height: 417px; margin-right: 200px;""><img src=""images/choice_trial_13.png"" style=""width: 408px; height: 417px;""></div></div>","f","delaylearn","learning","trial","63d455ba1597e5cf03740bec","EWiIxZvyR3NJqAt5qAjURBe3bQT2","5","images/choice_trial_7.png","images/choice_trial_13.png","images/pattern_5.png","f","f","750","7","13","4","0","29","1","1","7","170","","","","",""
"html-keyboard-response","161","332963","0.0-67.0-1.0","","null","<div style=""display: flex; flex-direction: column; align-items: center; margin-top: -40px;""><img src=""images/pattern_5.png"" style=""width: 234px; height: 230px; margin-top: -50px;""><div style=""display: flex; justify-content: space-between; margin-top: 33px;""><img src=""images/choice_trial_7.png"" style=""width: 408px; height: 417px; margin-right: 608px;""></div></div>","null","delaylearn","learning","display_response","63d455ba1597e5cf03740bec","EWiIxZvyR3NJqAt5qAjURBe3bQT2","","","","","","","","","","","","","","","","","chosen stimuli: images/choice_trial_7.png","","","",""
"html-keyboard-response","162","333722","0.0-67.0-2.0","","null","","null","delaylearn","learning","feedback_duration_window","63d455ba1597e5cf03740bec","EWiIxZvyR3NJqAt5qAjURBe3bQT2","","","","","","","","","","","","","","","","","","750","","",""
"html-keyboard-response","163","335227","0.0-67.0-3.0","","null","<div style='margin:auto;width: auto; font-size: 150%'><span style='font-weight: bold; font-size: 100px; color: green;'>+10 points!</span><br><br></div>","null","delaylearn","learning","feedback_image_window","63d455ba1597e5cf03740bec","EWiIxZvyR3NJqAt5qAjURBe3bQT2","","","","","","","","","","","","","","","","","","","","",""
"html-keyboard-response","164","337242","0.0-68.0","","null","<div style=""font-size:100px;"">+</div>","null","delaylearn","learning","ITI","63d455ba1597e5cf03740bec","EWiIxZvyR3NJqAt5qAjURBe3bQT2","","","","","","","","","","","","","","","","","","","2011","",""
"html-keyboard-response","165","339035","0.0-69.0-0.0","","1792.0999999940395","<div style=""display: flex; flex-direction: column; align-items: center; margin-top: -40px;""><img src=""images/pattern_6.png"" style=""width: 234px; height: 230px; margin-top: -50px;""><div style=""display: flex; justify-content: space-between; margin-top: 33px;""><img src=""images/choice_trial_9.png"" style=""width: 408px; height: 417px; margin-right: 200px;""><img src=""images/choice_trial_14.png"" style=""width: 408px; height: 417px;""></div></div>","j","delaylearn","learning","trial","63d455ba1597e5cf03740bec","EWiIxZvyR3NJqAt5qAjURBe3bQT2","5","images/choice_trial_9.png","images/choice_trial_14.png","images/pattern_6.png","j","j","750","9","14","5","1","30","1","1","14","180","","","","",""
"html-keyboard-response","166","340036","0.0-69.0-1.0","","null","<div style=""display: flex; flex-direction: column; align-items: center; margin-top: -40px;""><img src=""images/pattern_6.png"" style=""width: 234px; height: 230px; margin-top: -50px;""><div style=""display: flex; justify-content: space-between; margin-top: 33px;""><img src=""images/choice_trial_14.png"" style=""width: 408px; height: 417px; margin-left:608px;""></div></div>","null","delaylearn","learning","display_response","63d455ba1597e5cf03740bec","EWiIxZvyR3NJqAt5qAjURBe3bQT2","","","","","","","","","","","","","","","","","chosen stimuli: images/choice_trial_14.png","","","",""
"html-keyboard-response","167","340795","0.0-69.0-2.0","","null","","null","delaylearn","learning","feedback_duration_window","63d455ba1597e5cf03740bec","EWiIxZvyR3NJqAt5qAjURBe3bQT2","","","","","","","","","","","","","","","","","","750","","",""
"html-keyboard-response","168","342297","0.0-69.0-3.0","","null","<div style='margin:auto;width: auto; font-size: 150%'><span style='font-weight: bold; font-size: 100px; color: green;'>+10 points!</span><br><br></div>","null","delaylearn","learning","feedback_image_window","63d455ba1597e5cf03740bec","EWiIxZvyR3NJqAt5qAjURBe3bQT2","","","","","","","","","","","","","","","","","","","","",""
"html-keyboard-response","169","342808","0.0-70.0-0.0","","null","","null","","","mood_trial_fixation","","","","","","","","","","","","","","","","","","","","","","",""
"lmdlab-html-vas-response","170","346720","0.0-70.0-1.0","","2905","How happy are you right now?","0.6574074074074074","delaylearn","learning","mood_trial","63d455ba1597e5cf03740bec","EWiIxZvyR3NJqAt5qAjURBe3bQT2","","","","","","","","","","","","","","","","","","","","[""Very unhappy"",""Very happy""]",""
"html-keyboard-response","171","348721","0.0-71.0","","null","<div style=""font-size:100px;"">+</div>","null","delaylearn","learning","ITI","63d455ba1597e5cf03740bec","EWiIxZvyR3NJqAt5qAjURBe3bQT2","","","","","","","","","","","","","","","","","","","1996","",""
"html-keyboard-response","172","349942","0.0-72.0-0.0","","1220.4000000059605","<div style=""display: flex; flex-direction: column; align-items: center; margin-top: -40px;""><img src=""images/pattern_4.png"" style=""width: 234px; height: 230px; margin-top: -50px;""><div style=""display: flex; justify-content: space-between; margin-top: 33px;""><img src=""images/choice_trial_4.png"" style=""width: 408px; height: 417px; margin-right: 200px;""><img src=""images/choice_trial_11.png"" style=""width: 408px; height: 417px;""></div></div>","j","delaylearn","learning","trial","63d455ba1597e5cf03740bec","EWiIxZvyR3NJqAt5qAjURBe3bQT2","5","images/choice_trial_4.png","images/choice_trial_11.png","images/pattern_4.png","j","j","7000","4","11","3","1","31","1","1","11","190","","","","",""
"html-keyboard-response","173","350943","0.0-72.0-1.0","","null","<div style=""display: flex; flex-direction: column; align-items: center; margin-top: -40px;""><img src=""images/pattern_4.png"" style=""width: 234px; height: 230px; margin-top: -50px;""><div style=""display: flex; justify-content: space-between; margin-top: 33px;""><img src=""images/choice_trial_11.png"" style=""width: 408px; height: 417px; margin-left:608px;""></div></div>","null","delaylearn","learning","display_response","63d455ba1597e5cf03740bec","EWiIxZvyR3NJqAt5qAjURBe3bQT2","","","","","","","","","","","","","","","","","chosen stimuli: images/choice_trial_11.png","","","",""
"html-keyboard-response","174","357945","0.0-72.0-2.0","","null","","null","delaylearn","learning","feedback_duration_window","63d455ba1597e5cf03740bec","EWiIxZvyR3NJqAt5qAjURBe3bQT2","","","","","","","","","","","","","","","","","","7000","","",""
"html-keyboard-response","175","359461","0.0-72.0-3.0","","null","<div style='margin:auto;width: auto; font-size: 150%'><span style='font-weight: bold; font-size: 100px; color: green;'>+10 points!</span><br><br></div>","null","delaylearn","learning","feedback_image_window","63d455ba1597e5cf03740bec","EWiIxZvyR3NJqAt5qAjURBe3bQT2","","","","","","","","","","","","","","","","","","","","",""
"html-keyboard-response","176","361599","0.0-73.0","","null","<div style=""font-size:100px;"">+</div>","null","delaylearn","learning","ITI","63d455ba1597e5cf03740bec","EWiIxZvyR3NJqAt5qAjURBe3bQT2","","","","","","","","","","","","","","","","","","","2125","",""
"html-keyboard-response","177","363186","0.0-74.0-0.0","","1585.9000000059605","<div style=""display: flex; flex-direction: column; align-items: center; margin-top: -40px;""><img src=""images/pattern_3.png"" style=""width: 234px; height: 230px; margin-top: -50px;""><div style=""display: flex; justify-content: space-between; margin-top: 33px;""><img src=""images/choice_trial_2.png"" style=""width: 408px; height: 417px; margin-right: 200px;""><img src=""images/choice_trial_16.png"" style=""width: 408px; height: 417px;""></div></div>","j","delaylearn","learning","trial","63d455ba1597e5cf03740bec","EWiIxZvyR3NJqAt5qAjURBe3bQT2","5","images/choice_trial_2.png","images/choice_trial_16.png","images/pattern_3.png","j","j","7000","2","16","2","1","32","1","1","16","200","","","","",""
"html-keyboard-response","178","364200","0.0-74.0-1.0","","null","<div style=""display: flex; flex-direction: column; align-items: center; margin-top: -40px;""><img src=""images/pattern_3.png"" style=""width: 234px; height: 230px; margin-top: -50px;""><div style=""display: flex; justify-content: space-between; margin-top: 33px;""><img src=""images/choice_trial_16.png"" style=""width: 408px; height: 417px; margin-left:608px;""></div></div>","null","delaylearn","learning","display_response","63d455ba1597e5cf03740bec","EWiIxZvyR3NJqAt5qAjURBe3bQT2","","","","","","","","","","","","","","","","","chosen stimuli: images/choice_trial_16.png","","","",""
"html-keyboard-response","179","371208","0.0-74.0-2.0","","null","","null","delaylearn","learning","feedback_duration_window","63d455ba1597e5cf03740bec","EWiIxZvyR3NJqAt5qAjURBe3bQT2","","","","","","","","","","","","","","","","","","7000","","",""
"html-keyboard-response","180","372709","0.0-74.0-3.0","","null","<div style='margin:auto;width: auto; font-size: 150%'><span style='font-weight: bold; font-size: 100px; color: green;'>+10 points!</span><br><br></div>","null","delaylearn","learning","feedback_image_window","63d455ba1597e5cf03740bec","EWiIxZvyR3NJqAt5qAjURBe3bQT2","","","","","","","","","","","","","","","","","","","","",""
"html-keyboard-response","181","374870","0.0-75.0","","null","<div style=""font-size:100px;"">+</div>","null","delaylearn","learning","ITI","63d455ba1597e5cf03740bec","EWiIxZvyR3NJqAt5qAjURBe3bQT2","","","","","","","","","","","","","","","","","","","2153","",""
"html-keyboard-response","182","376297","0.0-76.0-0.0","","1426.7000000029802","<div style=""display: flex; flex-direction: column; align-items: center; margin-top: -40px;""><img src=""images/pattern_5.png"" style=""width: 234px; height: 230px; margin-top: -50px;""><div style=""display: flex; justify-content: space-between; margin-top: 33px;""><img src=""images/choice_trial_7.png"" style=""width: 408px; height: 417px; margin-right: 200px;""><img src=""images/choice_trial_13.png"" style=""width: 408px; height: 417px;""></div></div>","f","delaylearn","learning","trial","63d455ba1597e5cf03740bec","EWiIxZvyR3NJqAt5qAjURBe3bQT2","5","images/choice_trial_7.png","images/choice_trial_13.png","images/pattern_5.png","j","f","750","7","13","4","0","33","1","0","7","200","","","","",""
"html-keyboard-response","183","377299","0.0-76.0-1.0","","null","<div style=""display: flex; flex-direction: column; align-items: center; margin-top: -40px;""><img src=""images/pattern_5.png"" style=""width: 234px; height: 230px; margin-top: -50px;""><div style=""display: flex; justify-content: space-between; margin-top: 33px;""><img src=""images/choice_trial_7.png"" style=""width: 408px; height: 417px; margin-right: 608px;""></div></div>","null","delaylearn","learning","display_response","63d455ba1597e5cf03740bec","EWiIxZvyR3NJqAt5qAjURBe3bQT2","","","","","","","","","","","","","","","","","chosen stimuli: images/choice_trial_7.png","","","",""
"html-keyboard-response","184","378058","0.0-76.0-2.0","","null","","null","delaylearn","learning","feedback_duration_window","63d455ba1597e5cf03740bec","EWiIxZvyR3NJqAt5qAjURBe3bQT2","","","","","","","","","","","","","","","","","","750","","",""
"html-keyboard-response","185","379568","0.0-76.0-3.0","","null","<div style='margin:auto;width: auto; font-size: 150%'><span style='font-weight: bold; font-size: 100px; color: red;'>0 points!</span><br><br></div>","null","delaylearn","learning","feedback_image_window","63d455ba1597e5cf03740bec","EWiIxZvyR3NJqAt5qAjURBe3bQT2","","","","","","","","","","","","","","","","","","","","",""
"html-keyboard-response","186","381131","0.0-77.0","","null","<div style=""font-size:100px;"">+</div>","null","delaylearn","learning","ITI","63d455ba1597e5cf03740bec","EWiIxZvyR3NJqAt5qAjURBe3bQT2","","","","","","","","","","","","","","","","","","","1555","",""
"html-keyboard-response","187","382261","0.0-78.0-0.0","","1129.5","<div style=""display: flex; flex-direction: column; align-items: center; margin-top: -40px;""><img src=""images/pattern_1.png"" style=""width: 234px; height: 230px; margin-top: -50px;""><div style=""display: flex; justify-content: space-between; margin-top: 33px;""><img src=""images/choice_trial_6.png"" style=""width: 408px; height: 417px; margin-right: 200px;""><img src=""images/choice_trial_15.png"" style=""width: 408px; height: 417px;""></div></div>","f","delaylearn","learning","trial","63d455ba1597e5cf03740bec","EWiIxZvyR3NJqAt5qAjURBe3bQT2","5","images/choice_trial_6.png","images/choice_trial_15.png","images/pattern_1.png","f","f","7000","6","15","1","0","34","1","1","6","210","","","","",""
"html-keyboard-response","188","383263","0.0-78.0-1.0","","null","<div style=""display: flex; flex-direction: column; align-items: center; margin-top: -40px;""><img src=""images/pattern_1.png"" style=""width: 234px; height: 230px; margin-top: -50px;""><div style=""display: flex; justify-content: space-between; margin-top: 33px;""><img src=""images/choice_trial_6.png"" style=""width: 408px; height: 417px; margin-right: 608px;""></div></div>","null","delaylearn","learning","display_response","63d455ba1597e5cf03740bec","EWiIxZvyR3NJqAt5qAjURBe3bQT2","","","","","","","","","","","","","","","","","chosen stimuli: images/choice_trial_6.png","","","",""
"html-keyboard-response","189","390278","0.0-78.0-2.0","","null","","null","delaylearn","learning","feedback_duration_window","63d455ba1597e5cf03740bec","EWiIxZvyR3NJqAt5qAjURBe3bQT2","","","","","","","","","","","","","","","","","","7000","","",""
"html-keyboard-response","190","391789","0.0-78.0-3.0","","null","<div style='margin:auto;width: auto; font-size: 150%'><span style='font-weight: bold; font-size: 100px; color: green;'>+10 points!</span><br><br></div>","null","delaylearn","learning","feedback_image_window","63d455ba1597e5cf03740bec","EWiIxZvyR3NJqAt5qAjURBe3bQT2","","","","","","","","","","","","","","","","","","","","",""
"html-keyboard-response","191","392299","0.0-79.0-0.0","","null","","null","","","mood_trial_fixation","","","","","","","","","","","","","","","","","","","","","","",""
"lmdlab-html-vas-response","192","397550","0.0-79.0-1.0","","4248","How happy are you right now?","0.5972222222222222","delaylearn","learning","mood_trial","63d455ba1597e5cf03740bec","EWiIxZvyR3NJqAt5qAjURBe3bQT2","","","","","","","","","","","","","","","","","","","","[""Very unhappy"",""Very happy""]",""
"html-keyboard-response","193","399667","0.0-80.0","","null","<div style=""font-size:100px;"">+</div>","null","delaylearn","learning","ITI","63d455ba1597e5cf03740bec","EWiIxZvyR3NJqAt5qAjURBe3bQT2","","","","","","","","","","","","","","","","","","","2114","",""
"html-keyboard-response","194","400865","0.0-81.0-0.0","","1196.5","<div style=""display: flex; flex-direction: column; align-items: center; margin-top: -40px;""><img src=""images/pattern_6.png"" style=""width: 234px; height: 230px; margin-top: -50px;""><div style=""display: flex; justify-content: space-between; margin-top: 33px;""><img src=""images/choice_trial_14.png"" style=""width: 408px; height: 417px; margin-right: 200px;""><img src=""images/choice_trial_9.png"" style=""width: 408px; height: 417px;""></div></div>","f","delaylearn","learning","trial","63d455ba1597e5cf03740bec","EWiIxZvyR3NJqAt5qAjURBe3bQT2","5","images/choice_trial_14.png","images/choice_trial_9.png","images/pattern_6.png","j","f","750","14","9","5","0","35","1","0","14","210","","","","",""
"html-keyboard-response","195","401868","0.0-81.0-1.0","","null","<div style=""display: flex; flex-direction: column; align-items: center; margin-top: -40px;""><img src=""images/pattern_6.png"" style=""width: 234px; height: 230px; margin-top: -50px;""><div style=""display: flex; justify-content: space-between; margin-top: 33px;""><img src=""images/choice_trial_14.png"" style=""width: 408px; height: 417px; margin-right: 608px;""></div></div>","null","delaylearn","learning","display_response","63d455ba1597e5cf03740bec","EWiIxZvyR3NJqAt5qAjURBe3bQT2","","","","","","","","","","","","","","","","","chosen stimuli: images/choice_trial_14.png","","","",""
"html-keyboard-response","196","402629","0.0-81.0-2.0","","null","","null","delaylearn","learning","feedback_duration_window","63d455ba1597e5cf03740bec","EWiIxZvyR3NJqAt5qAjURBe3bQT2","","","","","","","","","","","","","","","","","","750","","",""
"html-keyboard-response","197","404142","0.0-81.0-3.0","","null","<div style='margin:auto;width: auto; font-size: 150%'><span style='font-weight: bold; font-size: 100px; color: red;'>0 points!</span><br><br></div>","null","delaylearn","learning","feedback_image_window","63d455ba1597e5cf03740bec","EWiIxZvyR3NJqAt5qAjURBe3bQT2","","","","","","","","","","","","","","","","","","","","",""
"html-keyboard-response","198","405904","0.0-82.0","","null","<div style=""font-size:100px;"">+</div>","null","delaylearn","learning","ITI","63d455ba1597e5cf03740bec","EWiIxZvyR3NJqAt5qAjURBe3bQT2","","","","","","","","","","","","","","","","","","","1748","",""
"html-keyboard-response","199","406924","0.0-83.0-0.0","","1019.5","<div style=""display: flex; flex-direction: column; align-items: center; margin-top: -40px;""><img src=""images/pattern_3.png"" style=""width: 234px; height: 230px; margin-top: -50px;""><div style=""display: flex; justify-content: space-between; margin-top: 33px;""><img src=""images/choice_trial_2.png"" style=""width: 408px; height: 417px; margin-right: 200px;""><img src=""images/choice_trial_16.png"" style=""width: 408px; height: 417px;""></div></div>","j","delaylearn","learning","trial","63d455ba1597e5cf03740bec","EWiIxZvyR3NJqAt5qAjURBe3bQT2","5","images/choice_trial_2.png","images/choice_trial_16.png","images/pattern_3.png","j","j","7000","2","16","2","1","36","1","1","16","220","","","","",""
"html-keyboard-response","200","407926","0.0-83.0-1.0","","null","<div style=""display: flex; flex-direction: column; align-items: center; margin-top: -40px;""><img src=""images/pattern_3.png"" style=""width: 234px; height: 230px; margin-top: -50px;""><div style=""display: flex; justify-content: space-between; margin-top: 33px;""><img src=""images/choice_trial_16.png"" style=""width: 408px; height: 417px; margin-left:608px;""></div></div>","null","delaylearn","learning","display_response","63d455ba1597e5cf03740bec","EWiIxZvyR3NJqAt5qAjURBe3bQT2","","","","","","","","","","","","","","","","","chosen stimuli: images/choice_trial_16.png","","","",""
"html-keyboard-response","201","414937","0.0-83.0-2.0","","null","","null","delaylearn","learning","feedback_duration_window","63d455ba1597e5cf03740bec","EWiIxZvyR3NJqAt5qAjURBe3bQT2","","","","","","","","","","","","","","","","","","7000","","",""
"html-keyboard-response","202","416439","0.0-83.0-3.0","","null","<div style='margin:auto;width: auto; font-size: 150%'><span style='font-weight: bold; font-size: 100px; color: green;'>+10 points!</span><br><br></div>","null","delaylearn","learning","feedback_image_window","63d455ba1597e5cf03740bec","EWiIxZvyR3NJqAt5qAjURBe3bQT2","","","","","","","","","","","","","","","","","","","","",""
"html-keyboard-response","203","418100","0.0-84.0","","null","<div style=""font-size:100px;"">+</div>","null","delaylearn","learning","ITI","63d455ba1597e5cf03740bec","EWiIxZvyR3NJqAt5qAjURBe3bQT2","","","","","","","","","","","","","","","","","","","1658","",""
"html-keyboard-response","204","419342","0.0-85.0-0.0","","1242","<div style=""display: flex; flex-direction: column; align-items: center; margin-top: -40px;""><img src=""images/pattern_4.png"" style=""width: 234px; height: 230px; margin-top: -50px;""><div style=""display: flex; justify-content: space-between; margin-top: 33px;""><img src=""images/choice_trial_4.png"" style=""width: 408px; height: 417px; margin-right: 200px;""><img src=""images/choice_trial_11.png"" style=""width: 408px; height: 417px;""></div></div>","j","delaylearn","learning","trial","63d455ba1597e5cf03740bec","EWiIxZvyR3NJqAt5qAjURBe3bQT2","5","images/choice_trial_4.png","images/choice_trial_11.png","images/pattern_4.png","f","j","7000","4","11","3","1","37","1","0","11","220","","","","",""
"html-keyboard-response","205","420348","0.0-85.0-1.0","","null","<div style=""display: flex; flex-direction: column; align-items: center; margin-top: -40px;""><img src=""images/pattern_4.png"" style=""width: 234px; height: 230px; margin-top: -50px;""><div style=""display: flex; justify-content: space-between; margin-top: 33px;""><img src=""images/choice_trial_11.png"" style=""width: 408px; height: 417px; margin-left:608px;""></div></div>","null","delaylearn","learning","display_response","63d455ba1597e5cf03740bec","EWiIxZvyR3NJqAt5qAjURBe3bQT2","","","","","","","","","","","","","","","","","chosen stimuli: images/choice_trial_11.png","","","",""
"html-keyboard-response","206","427365","0.0-85.0-2.0","","null","","null","delaylearn","learning","feedback_duration_window","63d455ba1597e5cf03740bec","EWiIxZvyR3NJqAt5qAjURBe3bQT2","","","","","","","","","","","","","","","","","","7000","","",""
"html-keyboard-response","207","428879","0.0-85.0-3.0","","null","<div style='margin:auto;width: auto; font-size: 150%'><span style='font-weight: bold; font-size: 100px; color: red;'>0 points!</span><br><br></div>","null","delaylearn","learning","feedback_image_window","63d455ba1597e5cf03740bec","EWiIxZvyR3NJqAt5qAjURBe3bQT2","","","","","","","","","","","","","","","","","","","","",""
"html-keyboard-response","208","430961","0.0-86.0","","null","<div style=""font-size:100px;"">+</div>","null","delaylearn","learning","ITI","63d455ba1597e5cf03740bec","EWiIxZvyR3NJqAt5qAjURBe3bQT2","","","","","","","","","","","","","","","","","","","2079","",""
"html-keyboard-response","209","432396","0.0-87.0-0.0","","1434.5999999940395","<div style=""display: flex; flex-direction: column; align-items: center; margin-top: -40px;""><img src=""images/pattern_7.png"" style=""width: 234px; height: 230px; margin-top: -50px;""><div style=""display: flex; justify-content: space-between; margin-top: 33px;""><img src=""images/choice_trial_8.png"" style=""width: 408px; height: 417px; margin-right: 200px;""><img src=""images/choice_trial_10.png"" style=""width: 408px; height: 417px;""></div></div>","f","delaylearn","learning","trial","63d455ba1597e5cf03740bec","EWiIxZvyR3NJqAt5qAjURBe3bQT2","5","images/choice_trial_8.png","images/choice_trial_10.png","images/pattern_7.png","f","f","750","8","10","6","0","38","1","1","8","230","","","","",""
"html-keyboard-response","210","433404","0.0-87.0-1.0","","null","<div style=""display: flex; flex-direction: column; align-items: center; margin-top: -40px;""><img src=""images/pattern_7.png"" style=""width: 234px; height: 230px; margin-top: -50px;""><div style=""display: flex; justify-content: space-between; margin-top: 33px;""><img src=""images/choice_trial_8.png"" style=""width: 408px; height: 417px; margin-right: 608px;""></div></div>","null","delaylearn","learning","display_response","63d455ba1597e5cf03740bec","EWiIxZvyR3NJqAt5qAjURBe3bQT2","","","","","","","","","","","","","","","","","chosen stimuli: images/choice_trial_8.png","","","",""
"html-keyboard-response","211","434160","0.0-87.0-2.0","","null","","null","delaylearn","learning","feedback_duration_window","63d455ba1597e5cf03740bec","EWiIxZvyR3NJqAt5qAjURBe3bQT2","","","","","","","","","","","","","","","","","","750","","",""
"html-keyboard-response","212","435665","0.0-87.0-3.0","","null","<div style='margin:auto;width: auto; font-size: 150%'><span style='font-weight: bold; font-size: 100px; color: green;'>+10 points!</span><br><br></div>","null","delaylearn","learning","feedback_image_window","63d455ba1597e5cf03740bec","EWiIxZvyR3NJqAt5qAjURBe3bQT2","","","","","","","","","","","","","","","","","","","","",""
"html-keyboard-response","213","437230","0.0-88.0","","null","<div style=""font-size:100px;"">+</div>","null","delaylearn","learning","ITI","63d455ba1597e5cf03740bec","EWiIxZvyR3NJqAt5qAjURBe3bQT2","","","","","","","","","","","","","","","","","","","1549","",""
"html-keyboard-response","214","438170","0.0-89.0-0.0","","939.7000000029802","<div style=""display: flex; flex-direction: column; align-items: center; margin-top: -40px;""><img src=""images/pattern_1.png"" style=""width: 234px; height: 230px; margin-top: -50px;""><div style=""display: flex; justify-content: space-between; margin-top: 33px;""><img src=""images/choice_trial_6.png"" style=""width: 408px; height: 417px; margin-right: 200px;""><img src=""images/choice_trial_15.png"" style=""width: 408px; height: 417px;""></div></div>","f","delaylearn","learning","trial","63d455ba1597e5cf03740bec","EWiIxZvyR3NJqAt5qAjURBe3bQT2","5","images/choice_trial_6.png","images/choice_trial_15.png","images/pattern_1.png","f","f","7000","6","15","1","0","39","1","1","6","240","","","","",""
"html-keyboard-response","215","439174","0.0-89.0-1.0","","null","<div style=""display: flex; flex-direction: column; align-items: center; margin-top: -40px;""><img src=""images/pattern_1.png"" style=""width: 234px; height: 230px; margin-top: -50px;""><div style=""display: flex; justify-content: space-between; margin-top: 33px;""><img src=""images/choice_trial_6.png"" style=""width: 408px; height: 417px; margin-right: 608px;""></div></div>","null","delaylearn","learning","display_response","63d455ba1597e5cf03740bec","EWiIxZvyR3NJqAt5qAjURBe3bQT2","","","","","","","","","","","","","","","","","chosen stimuli: images/choice_trial_6.png","","","",""
"html-keyboard-response","216","446178","0.0-89.0-2.0","","null","","null","delaylearn","learning","feedback_duration_window","63d455ba1597e5cf03740bec","EWiIxZvyR3NJqAt5qAjURBe3bQT2","","","","","","","","","","","","","","","","","","7000","","",""
"html-keyboard-response","217","447680","0.0-89.0-3.0","","null","<div style='margin:auto;width: auto; font-size: 150%'><span style='font-weight: bold; font-size: 100px; color: green;'>+10 points!</span><br><br></div>","null","delaylearn","learning","feedback_image_window","63d455ba1597e5cf03740bec","EWiIxZvyR3NJqAt5qAjURBe3bQT2","","","","","","","","","","","","","","","","","","","","",""
"html-keyboard-response","218","448188","0.0-90.0-0.0","","null","","null","","","mood_trial_fixation","","","","","","","","","","","","","","","","","","","","","","",""
"lmdlab-html-vas-response","219","452148","0.0-90.0-1.0","","2946","How happy are you right now?","0.5300925925925926","delaylearn","learning","mood_trial","63d455ba1597e5cf03740bec","EWiIxZvyR3NJqAt5qAjURBe3bQT2","","","","","","","","","","","","","","","","","","","","[""Very unhappy"",""Very happy""]",""
"html-keyboard-response","220","454376","0.0-91.0","","null","<div style=""font-size:100px;"">+</div>","null","delaylearn","learning","ITI","63d455ba1597e5cf03740bec","EWiIxZvyR3NJqAt5qAjURBe3bQT2","","","","","","","","","","","","","","","","","","","2223","",""
