"trial_type","trial_index","time_elapsed","internal_node_id","participant","rt","stimulus","response","exp_name","exp_stage","test_part","subjectID","databaseID","counterbal","choice_stimuli_1","choice_stimuli_2","pattern_stimuli","rewarded_answer","correct_answer","feedback_duration_times","stim_left","stim_right","pair","leftright_counter","trial","response_correct","response_rewarded","chosen_stim","counter","displayed_choice","feedback_durations","ITI_duration","labels","rest_warning"
"pavlovia","0","547","0.0-0.0","","","","","","","","","","","","","","","","","","","","","","","","","","","","","",""
"html-keyboard-response","1","3551","0.0-1.0","","null","<div style=""font-size:100px;"">+</div>","null","delaylearn","learning","pre_fixation","631a1897a8f28243082da8ef","","","","","","","","","","","","","","","","","","","","","",""
"html-keyboard-response","2","4697","0.0-2.0-0.0","","1143.699999988079","<div style=""display: flex; flex-direction: column; align-items: center; margin-top: -40px;""><img src=""images/demo_images/pattern_1.png"" style=""width: 234px; height: 230px; margin-top: -50px;""><div style=""display: flex; justify-content: space-between; margin-top: 33px;""><img src=""images/demo_images/choice_trial_2.png"" style=""width: 408px; height: 417px; margin-right: 200px;""><img src=""images/demo_images/choice_trial_1.png"" style=""width: 408px; height: 417px;""></div></div>","j","delaylearn","learning","trial","631a1897a8f28243082da8ef","odhxlDyx7tXshRX9kVVpxMZlz7r1","3","images/demo_images/choice_trial_2.png","images/demo_images/choice_trial_1.png","images/demo_images/pattern_1.png","j","j","3000","2","1","20","1","1","1","1","1","10","","","","",""
"html-keyboard-response","3","5704","0.0-2.0-1.0","","null","<div style=""display: flex; flex-direction: column; align-items: center; margin-top: -40px;""><img src=""images/demo_images/pattern_1.png"" style=""width: 234px; height: 230px; margin-top: -50px;""><div style=""display: flex; justify-content: space-between; margin-top: 33px;""><img src=""images/demo_images/choice_trial_1.png"" style=""width: 408px; height: 417px; margin-left:608px;""></div></div>","null","delaylearn","learning","display_response","631a1897a8f28243082da8ef","odhxlDyx7tXshRX9kVVpxMZlz7r1","","","","","","","","","","","","","","","","","chosen stimuli: images/demo_images/choice_trial_1.png","","","",""
"html-keyboard-response","4","8712","0.0-2.0-2.0","","null","","null","delaylearn","learning","feedback_duration_window","631a1897a8f28243082da8ef","odhxlDyx7tXshRX9kVVpxMZlz7r1","","","","","","","","","","","","","","","","","","3000","","",""
"html-keyboard-response","5","10220","0.0-2.0-3.0","","null","<div style='margin:auto;width: auto; font-size: 150%'><span style='font-weight: bold; font-size: 100px; color: green;'>+10 points!</span><br><br></div>","null","delaylearn","learning","feedback_image_window","631a1897a8f28243082da8ef","odhxlDyx7tXshRX9kVVpxMZlz7r1","","","","","","","","","","","","","","","","","","","","",""
"html-keyboard-response","6","12261","0.0-3.0","","null","<div style=""font-size:100px;"">+</div>","null","delaylearn","learning","ITI","631a1897a8f28243082da8ef","odhxlDyx7tXshRX9kVVpxMZlz7r1","","","","","","","","","","","","","","","","","","","2034","",""
"html-keyboard-response","7","13730","0.0-4.0-0.0","","1465.300000011921","<div style=""display: flex; flex-direction: column; align-items: center; margin-top: -40px;""><img src=""images/demo_images/pattern_1.png"" style=""width: 234px; height: 230px; margin-top: -50px;""><div style=""display: flex; justify-content: space-between; margin-top: 33px;""><img src=""images/demo_images/choice_trial_2.png"" style=""width: 408px; height: 417px; margin-right: 200px;""><img src=""images/demo_images/choice_trial_1.png"" style=""width: 408px; height: 417px;""></div></div>","f","delaylearn","learning","trial","631a1897a8f28243082da8ef","odhxlDyx7tXshRX9kVVpxMZlz7r1","3","images/demo_images/choice_trial_2.png","images/demo_images/choice_trial_1.png","images/demo_images/pattern_1.png","j","j","3000","2","1","20","1","2","0","0","2","10","","","","",""
"html-keyboard-response","8","14737","0.0-4.0-1.0","","null","<div style=""display: flex; flex-direction: column; align-items: center; margin-top: -40px;""><img src=""images/demo_images/pattern_1.png"" style=""width: 234px; height: 230px; margin-top: -50px;""><div style=""display: flex; justify-content: space-between; margin-top: 33px;""><img src=""images/demo_images/choice_trial_2.png"" style=""width: 408px; height: 417px; margin-right: 608px;""></div></div>","null","delaylearn","learning","display_response","631a1897a8f28243082da8ef","odhxlDyx7tXshRX9kVVpxMZlz7r1","","","","","","","","","","","","","","","","","chosen stimuli: images/demo_images/choice_trial_2.png","","","",""
"html-keyboard-response","9","17744","0.0-4.0-2.0","","null","","null","delaylearn","learning","feedback_duration_window","631a1897a8f28243082da8ef","odhxlDyx7tXshRX9kVVpxMZlz7r1","","","","","","","","","","","","","","","","","","3000","","",""
"html-keyboard-response","10","19251","0.0-4.0-3.0","","null","<div style='margin:auto;width: auto; font-size: 150%'><span style='font-weight: bold; font-size: 100px; color: red;'>0 points!</span><br><br></div>","null","delaylearn","learning","feedback_image_window","631a1897a8f28243082da8ef","odhxlDyx7tXshRX9kVVpxMZlz7r1","","","","","","","","","","","","","","","","","","","","",""
"html-keyboard-response","11","21726","0.0-5.0","","null","<div style=""font-size:100px;"">+</div>","null","delaylearn","learning","ITI","631a1897a8f28243082da8ef","odhxlDyx7tXshRX9kVVpxMZlz7r1","","","","","","","","","","","","","","","","","","","2468","",""
"html-keyboard-response","12","23088","0.0-6.0-0.0","","1359.1000000238419","<div style=""display: flex; flex-direction: column; align-items: center; margin-top: -40px;""><img src=""images/demo_images/pattern_1.png"" style=""width: 234px; height: 230px; margin-top: -50px;""><div style=""display: flex; justify-content: space-between; margin-top: 33px;""><img src=""images/demo_images/choice_trial_1.png"" style=""width: 408px; height: 417px; margin-right: 200px;""><img src=""images/demo_images/choice_trial_2.png"" style=""width: 408px; height: 417px;""></div></div>","j","delaylearn","learning","trial","631a1897a8f28243082da8ef","odhxlDyx7tXshRX9kVVpxMZlz7r1","3","images/demo_images/choice_trial_1.png","images/demo_images/choice_trial_2.png","images/demo_images/pattern_1.png","j","f","3000","1","2","20","0","3","0","1","2","20","","","","",""
"html-keyboard-response","13","24094","0.0-6.0-1.0","","null","<div style=""display: flex; flex-direction: column; align-items: center; margin-top: -40px;""><img src=""images/demo_images/pattern_1.png"" style=""width: 234px; height: 230px; margin-top: -50px;""><div style=""display: flex; justify-content: space-between; margin-top: 33px;""><img src=""images/demo_images/choice_trial_2.png"" style=""width: 408px; height: 417px; margin-left:608px;""></div></div>","null","delaylearn","learning","display_response","631a1897a8f28243082da8ef","odhxlDyx7tXshRX9kVVpxMZlz7r1","","","","","","","","","","","","","","","","","chosen stimuli: images/demo_images/choice_trial_2.png","","","",""
"html-keyboard-response","14","27101","0.0-6.0-2.0","","null","","null","delaylearn","learning","feedback_duration_window","631a1897a8f28243082da8ef","odhxlDyx7tXshRX9kVVpxMZlz7r1","","","","","","","","","","","","","","","","","","3000","","",""
"html-keyboard-response","15","28608","0.0-6.0-3.0","","null","<div style='margin:auto;width: auto; font-size: 150%'><span style='font-weight: bold; font-size: 100px; color: green;'>+10 points!</span><br><br></div>","null","delaylearn","learning","feedback_image_window","631a1897a8f28243082da8ef","odhxlDyx7tXshRX9kVVpxMZlz7r1","","","","","","","","","","","","","","","","","","","","",""
"html-keyboard-response","16","30503","0.0-7.0","","null","<div style=""font-size:100px;"">+</div>","null","delaylearn","learning","ITI","631a1897a8f28243082da8ef","odhxlDyx7tXshRX9kVVpxMZlz7r1","","","","","","","","","","","","","","","","","","","1888","",""
"html-keyboard-response","17","32230","0.0-8.0-0.0","","1724.800000011921","<div style=""display: flex; flex-direction: column; align-items: center; margin-top: -40px;""><img src=""images/demo_images/pattern_1.png"" style=""width: 234px; height: 230px; margin-top: -50px;""><div style=""display: flex; justify-content: space-between; margin-top: 33px;""><img src=""images/demo_images/choice_trial_1.png"" style=""width: 408px; height: 417px; margin-right: 200px;""><img src=""images/demo_images/choice_trial_2.png"" style=""width: 408px; height: 417px;""></div></div>","f","delaylearn","learning","trial","631a1897a8f28243082da8ef","odhxlDyx7tXshRX9kVVpxMZlz7r1","3","images/demo_images/choice_trial_1.png","images/demo_images/choice_trial_2.png","images/demo_images/pattern_1.png","f","f","3000","1","2","20","0","4","1","1","1","30","","","","",""
"html-keyboard-response","18","33238","0.0-8.0-1.0","","null","<div style=""display: flex; flex-direction: column; align-items: center; margin-top: -40px;""><img src=""images/demo_images/pattern_1.png"" style=""width: 234px; height: 230px; margin-top: -50px;""><div style=""display: flex; justify-content: space-between; margin-top: 33px;""><img src=""images/demo_images/choice_trial_1.png"" style=""width: 408px; height: 417px; margin-right: 608px;""></div></div>","null","delaylearn","learning","display_response","631a1897a8f28243082da8ef","odhxlDyx7tXshRX9kVVpxMZlz7r1","","","","","","","","","","","","","","","","","chosen stimuli: images/demo_images/choice_trial_1.png","","","",""
"html-keyboard-response","19","36243","0.0-8.0-2.0","","null","","null","delaylearn","learning","feedback_duration_window","631a1897a8f28243082da8ef","odhxlDyx7tXshRX9kVVpxMZlz7r1","","","","","","","","","","","","","","","","","","3000","","",""
"html-keyboard-response","20","37751","0.0-8.0-3.0","","null","<div style='margin:auto;width: auto; font-size: 150%'><span style='font-weight: bold; font-size: 100px; color: green;'>+10 points!</span><br><br></div>","null","delaylearn","learning","feedback_image_window","631a1897a8f28243082da8ef","odhxlDyx7tXshRX9kVVpxMZlz7r1","","","","","","","","","","","","","","","","","","","","",""
"html-keyboard-response","21","38258","0.0-9.0-0.0","","null","","null","","","mood_trial_fixation","","","","","","","","","","","","","","","","","","","","","","",""
"lmdlab-html-vas-response","22","42674","0.0-9.0-1.0","","3401","How happy are you right now?","0.7366666158040365","delaylearn","learning","mood_trial","631a1897a8f28243082da8ef","odhxlDyx7tXshRX9kVVpxMZlz7r1","","","","","","","","","","","","","","","","","","","","[""Very unhappy"",""Very happy""]",""
"html-keyboard-response","23","45145","0.0-10.0","","null","<div style=""font-size:100px;"">+</div>","null","delaylearn","learning","ITI","631a1897a8f28243082da8ef","odhxlDyx7tXshRX9kVVpxMZlz7r1","","","","","","","","","","","","","","","","","","","2468","",""
"html-keyboard-response","24","46178","0.0-11.0-0.0","","1028.5999999642372","<div style=""display: flex; flex-direction: column; align-items: center; margin-top: -40px;""><img src=""images/demo_images/pattern_1.png"" style=""width: 234px; height: 230px; margin-top: -50px;""><div style=""display: flex; justify-content: space-between; margin-top: 33px;""><img src=""images/demo_images/choice_trial_2.png"" style=""width: 408px; height: 417px; margin-right: 200px;""><img src=""images/demo_images/choice_trial_1.png"" style=""width: 408px; height: 417px;""></div></div>","j","delaylearn","learning","trial","631a1897a8f28243082da8ef","odhxlDyx7tXshRX9kVVpxMZlz7r1","3","images/demo_images/choice_trial_2.png","images/demo_images/choice_trial_1.png","images/demo_images/pattern_1.png","j","j","3000","2","1","20","1","5","1","1","1","40","","","","",""
"html-keyboard-response","25","47182","0.0-11.0-1.0","","null","<div style=""display: flex; flex-direction: column; align-items: center; margin-top: -40px;""><img src=""images/demo_images/pattern_1.png"" style=""width: 234px; height: 230px; margin-top: -50px;""><div style=""display: flex; justify-content: space-between; margin-top: 33px;""><img src=""images/demo_images/choice_trial_1.png"" style=""width: 408px; height: 417px; margin-left:608px;""></div></div>","null","delaylearn","learning","display_response","631a1897a8f28243082da8ef","odhxlDyx7tXshRX9kVVpxMZlz7r1","","","","","","","","","","","","","","","","","chosen stimuli: images/demo_images/choice_trial_1.png","","","",""
"html-keyboard-response","26","50189","0.0-11.0-2.0","","null","","null","delaylearn","learning","feedback_duration_window","631a1897a8f28243082da8ef","odhxlDyx7tXshRX9kVVpxMZlz7r1","","","","","","","","","","","","","","","","","","3000","","",""
"html-keyboard-response","27","51697","0.0-11.0-3.0","","null","<div style='margin:auto;width: auto; font-size: 150%'><span style='font-weight: bold; font-size: 100px; color: green;'>+10 points!</span><br><br></div>","null","delaylearn","learning","feedback_image_window","631a1897a8f28243082da8ef","odhxlDyx7tXshRX9kVVpxMZlz7r1","","","","","","","","","","","","","","","","","","","","",""
"html-keyboard-response","28","53427","0.0-12.0","","null","<div style=""font-size:100px;"">+</div>","null","delaylearn","learning","ITI","631a1897a8f28243082da8ef","odhxlDyx7tXshRX9kVVpxMZlz7r1","","","","","","","","","","","","","","","","","","","1723","",""
"html-keyboard-response","29","54896","0.0-13.0-0.0","","1466.5","<div style=""display: flex; flex-direction: column; align-items: center; margin-top: -40px;""><img src=""images/demo_images/pattern_1.png"" style=""width: 234px; height: 230px; margin-top: -50px;""><div style=""display: flex; justify-content: space-between; margin-top: 33px;""><img src=""images/demo_images/choice_trial_1.png"" style=""width: 408px; height: 417px; margin-right: 200px;""><img src=""images/demo_images/choice_trial_2.png"" style=""width: 408px; height: 417px;""></div></div>","f","delaylearn","learning","trial","631a1897a8f28243082da8ef","odhxlDyx7tXshRX9kVVpxMZlz7r1","3","images/demo_images/choice_trial_1.png","images/demo_images/choice_trial_2.png","images/demo_images/pattern_1.png","f","f","3000","1","2","20","0","6","1","1","1","50","","","","",""
"html-keyboard-response","30","55904","0.0-13.0-1.0","","null","<div style=""display: flex; flex-direction: column; align-items: center; margin-top: -40px;""><img src=""images/demo_images/pattern_1.png"" style=""width: 234px; height: 230px; margin-top: -50px;""><div style=""display: flex; justify-content: space-between; margin-top: 33px;""><img src=""images/demo_images/choice_trial_1.png"" style=""width: 408px; height: 417px; margin-right: 608px;""></div></div>","null","delaylearn","learning","display_response","631a1897a8f28243082da8ef","odhxlDyx7tXshRX9kVVpxMZlz7r1","","","","","","","","","","","","","","","","","chosen stimuli: images/demo_images/choice_trial_1.png","","","",""
"html-keyboard-response","31","58908","0.0-13.0-2.0","","null","","null","delaylearn","learning","feedback_duration_window","631a1897a8f28243082da8ef","odhxlDyx7tXshRX9kVVpxMZlz7r1","","","","","","","","","","","","","","","","","","3000","","",""
"html-keyboard-response","32","60416","0.0-13.0-3.0","","null","<div style='margin:auto;width: auto; font-size: 150%'><span style='font-weight: bold; font-size: 100px; color: green;'>+10 points!</span><br><br></div>","null","delaylearn","learning","feedback_image_window","631a1897a8f28243082da8ef","odhxlDyx7tXshRX9kVVpxMZlz7r1","","","","","","","","","","","","","","","","","","","","",""
"html-keyboard-response","33","62462","0.0-14.0","","null","<div style=""font-size:100px;"">+</div>","null","delaylearn","learning","ITI","631a1897a8f28243082da8ef","odhxlDyx7tXshRX9kVVpxMZlz7r1","","","","","","","","","","","","","","","","","","","2039","",""
"html-keyboard-response","34","65236","0.0-15.0-0.0","","2770.900000035763","<div style=""display: flex; flex-direction: column; align-items: center; margin-top: -40px;""><img src=""images/demo_images/pattern_1.png"" style=""width: 234px; height: 230px; margin-top: -50px;""><div style=""display: flex; justify-content: space-between; margin-top: 33px;""><img src=""images/demo_images/choice_trial_2.png"" style=""width: 408px; height: 417px; margin-right: 200px;""><img src=""images/demo_images/choice_trial_1.png"" style=""width: 408px; height: 417px;""></div></div>","j","delaylearn","learning","trial","631a1897a8f28243082da8ef","odhxlDyx7tXshRX9kVVpxMZlz7r1","3","images/demo_images/choice_trial_2.png","images/demo_images/choice_trial_1.png","images/demo_images/pattern_1.png","j","j","3000","2","1","20","1","7","1","1","1","60","","","","",""
"html-keyboard-response","35","66242","0.0-15.0-1.0","","null","<div style=""display: flex; flex-direction: column; align-items: center; margin-top: -40px;""><img src=""images/demo_images/pattern_1.png"" style=""width: 234px; height: 230px; margin-top: -50px;""><div style=""display: flex; justify-content: space-between; margin-top: 33px;""><img src=""images/demo_images/choice_trial_1.png"" style=""width: 408px; height: 417px; margin-left:608px;""></div></div>","null","delaylearn","learning","display_response","631a1897a8f28243082da8ef","odhxlDyx7tXshRX9kVVpxMZlz7r1","","","","","","","","","","","","","","","","","chosen stimuli: images/demo_images/choice_trial_1.png","","","",""
"html-keyboard-response","36","69249","0.0-15.0-2.0","","null","","null","delaylearn","learning","feedback_duration_window","631a1897a8f28243082da8ef","odhxlDyx7tXshRX9kVVpxMZlz7r1","","","","","","","","","","","","","","","","","","3000","","",""
"html-keyboard-response","37","70753","0.0-15.0-3.0","","null","<div style='margin:auto;width: auto; font-size: 150%'><span style='font-weight: bold; font-size: 100px; color: green;'>+10 points!</span><br><br></div>","null","delaylearn","learning","feedback_image_window","631a1897a8f28243082da8ef","odhxlDyx7tXshRX9kVVpxMZlz7r1","","","","","","","","","","","","","","","","","","","","",""
"html-keyboard-response","38","72867","0.0-16.0","","null","<div style=""font-size:100px;"">+</div>","null","delaylearn","learning","ITI","631a1897a8f28243082da8ef","odhxlDyx7tXshRX9kVVpxMZlz7r1","","","","","","","","","","","","","","","","","","","2108","",""
"html-keyboard-response","39","74254","0.0-17.0-0.0","","1383.8999999761581","<div style=""display: flex; flex-direction: column; align-items: center; margin-top: -40px;""><img src=""images/demo_images/pattern_1.png"" style=""width: 234px; height: 230px; margin-top: -50px;""><div style=""display: flex; justify-content: space-between; margin-top: 33px;""><img src=""images/demo_images/choice_trial_1.png"" style=""width: 408px; height: 417px; margin-right: 200px;""><img src=""images/demo_images/choice_trial_2.png"" style=""width: 408px; height: 417px;""></div></div>","f","delaylearn","learning","trial","631a1897a8f28243082da8ef","odhxlDyx7tXshRX9kVVpxMZlz7r1","3","images/demo_images/choice_trial_1.png","images/demo_images/choice_trial_2.png","images/demo_images/pattern_1.png","f","f","3000","1","2","20","0","8","1","1","1","70","","","","",""
"html-keyboard-response","40","75261","0.0-17.0-1.0","","null","<div style=""display: flex; flex-direction: column; align-items: center; margin-top: -40px;""><img src=""images/demo_images/pattern_1.png"" style=""width: 234px; height: 230px; margin-top: -50px;""><div style=""display: flex; justify-content: space-between; margin-top: 33px;""><img src=""images/demo_images/choice_trial_1.png"" style=""width: 408px; height: 417px; margin-right: 608px;""></div></div>","null","delaylearn","learning","display_response","631a1897a8f28243082da8ef","odhxlDyx7tXshRX9kVVpxMZlz7r1","","","","","","","","","","","","","","","","","chosen stimuli: images/demo_images/choice_trial_1.png","","","",""
"html-keyboard-response","41","78265","0.0-17.0-2.0","","null","","null","delaylearn","learning","feedback_duration_window","631a1897a8f28243082da8ef","odhxlDyx7tXshRX9kVVpxMZlz7r1","","","","","","","","","","","","","","","","","","3000","","",""
"html-keyboard-response","42","79773","0.0-17.0-3.0","","null","<div style='margin:auto;width: auto; font-size: 150%'><span style='font-weight: bold; font-size: 100px; color: green;'>+10 points!</span><br><br></div>","null","delaylearn","learning","feedback_image_window","631a1897a8f28243082da8ef","odhxlDyx7tXshRX9kVVpxMZlz7r1","","","","","","","","","","","","","","","","","","","","",""
"html-button-response","43","82605","0.0-18.0","","2829.399999976158","
  <div style=""display: flex; align-items: center; justify-content: center; height: 80vh;"">
  <div>
          <img src=""images/inst_demo_finish.png"" style=""width: 80vw; height:auto;"">
          <br><br>
      </div>
      <br><br>
  </div>","0","","","","","","","","","","","","","","","","","","","","","","","","","",""
"html-keyboard-response","44","122843","0.0-19.0","","40238.19999998808","
  <div style=""display: flex; align-items: center; justify-content: center; height: 80vh;"">
  <div>
          <img src=""images/inst_6.png"" style=""width: 80vw; height:auto;"">
          <br><br>
      </div>
      <br><br>
  </div>","f","","","","","","","","","","","","","","","","","","","","","","","","","",""
"html-keyboard-response","45","125851","0.0-20.0","","null","<div style=""font-size:100px;"">+</div>","null","delaylearn","learning","pre_fixation","631a1897a8f28243082da8ef","","","","","","","","","","","","","","","","","","","","","",""
"html-keyboard-response","46","127604","0.0-21.0","","null","<div style=""font-size:100px;"">+</div>","null","delaylearn","learning","ITI","631a1897a8f28243082da8ef","odhxlDyx7tXshRX9kVVpxMZlz7r1","","","","","","","","","","","","","","","","","","","1745","",""
"html-keyboard-response","47","128927","0.0-22.0-0.0","","1319.9000000357628","<div style=""display: flex; flex-direction: column; align-items: center; margin-top: -40px;""><img src=""images/pattern_3.png"" style=""width: 234px; height: 230px; margin-top: -50px;""><div style=""display: flex; justify-content: space-between; margin-top: 33px;""><img src=""images/choice_trial_13.png"" style=""width: 408px; height: 417px; margin-right: 200px;""><img src=""images/choice_trial_10.png"" style=""width: 408px; height: 417px;""></div></div>","j","delaylearn","learning","trial","631a1897a8f28243082da8ef","odhxlDyx7tXshRX9kVVpxMZlz7r1","3","images/choice_trial_13.png","images/choice_trial_10.png","images/pattern_3.png","f","f","7000","13","10","2","0","9","0","0","10","70","","","","",""
"html-keyboard-response","48","129935","0.0-22.0-1.0","","null","<div style=""display: flex; flex-direction: column; align-items: center; margin-top: -40px;""><img src=""images/pattern_3.png"" style=""width: 234px; height: 230px; margin-top: -50px;""><div style=""display: flex; justify-content: space-between; margin-top: 33px;""><img src=""images/choice_trial_10.png"" style=""width: 408px; height: 417px; margin-left:608px;""></div></div>","null","delaylearn","learning","display_response","631a1897a8f28243082da8ef","odhxlDyx7tXshRX9kVVpxMZlz7r1","","","","","","","","","","","","","","","","","chosen stimuli: images/choice_trial_10.png","","","",""
"html-keyboard-response","49","136943","0.0-22.0-2.0","","null","","null","delaylearn","learning","feedback_duration_window","631a1897a8f28243082da8ef","odhxlDyx7tXshRX9kVVpxMZlz7r1","","","","","","","","","","","","","","","","","","7000","","",""
"html-keyboard-response","50","138449","0.0-22.0-3.0","","null","<div style='margin:auto;width: auto; font-size: 150%'><span style='font-weight: bold; font-size: 100px; color: red;'>0 points!</span><br><br></div>","null","delaylearn","learning","feedback_image_window","631a1897a8f28243082da8ef","odhxlDyx7tXshRX9kVVpxMZlz7r1","","","","","","","","","","","","","","","","","","","","",""
"html-keyboard-response","51","140848","0.0-23.0","","null","<div style=""font-size:100px;"">+</div>","null","delaylearn","learning","ITI","631a1897a8f28243082da8ef","odhxlDyx7tXshRX9kVVpxMZlz7r1","","","","","","","","","","","","","","","","","","","2393","",""
"html-keyboard-response","52","142342","0.0-24.0-0.0","","1490.9000000357628","<div style=""display: flex; flex-direction: column; align-items: center; margin-top: -40px;""><img src=""images/pattern_7.png"" style=""width: 234px; height: 230px; margin-top: -50px;""><div style=""display: flex; justify-content: space-between; margin-top: 33px;""><img src=""images/choice_trial_12.png"" style=""width: 408px; height: 417px; margin-right: 200px;""><img src=""images/choice_trial_6.png"" style=""width: 408px; height: 417px;""></div></div>","f","delaylearn","learning","trial","631a1897a8f28243082da8ef","odhxlDyx7tXshRX9kVVpxMZlz7r1","3","images/choice_trial_12.png","images/choice_trial_6.png","images/pattern_7.png","j","j","750","12","6","6","1","10","0","0","12","70","","","","",""
"html-keyboard-response","53","143349","0.0-24.0-1.0","","null","<div style=""display: flex; flex-direction: column; align-items: center; margin-top: -40px;""><img src=""images/pattern_7.png"" style=""width: 234px; height: 230px; margin-top: -50px;""><div style=""display: flex; justify-content: space-between; margin-top: 33px;""><img src=""images/choice_trial_12.png"" style=""width: 408px; height: 417px; margin-right: 608px;""></div></div>","null","delaylearn","learning","display_response","631a1897a8f28243082da8ef","odhxlDyx7tXshRX9kVVpxMZlz7r1","","","","","","","","","","","","","","","","","chosen stimuli: images/choice_trial_12.png","","","",""
"html-keyboard-response","54","144107","0.0-24.0-2.0","","null","","null","delaylearn","learning","feedback_duration_window","631a1897a8f28243082da8ef","odhxlDyx7tXshRX9kVVpxMZlz7r1","","","","","","","","","","","","","","","","","","750","","",""
"html-keyboard-response","55","145610","0.0-24.0-3.0","","null","<div style='margin:auto;width: auto; font-size: 150%'><span style='font-weight: bold; font-size: 100px; color: red;'>0 points!</span><br><br></div>","null","delaylearn","learning","feedback_image_window","631a1897a8f28243082da8ef","odhxlDyx7tXshRX9kVVpxMZlz7r1","","","","","","","","","","","","","","","","","","","","",""
"html-keyboard-response","56","148081","0.0-25.0","","null","<div style=""font-size:100px;"">+</div>","null","delaylearn","learning","ITI","631a1897a8f28243082da8ef","odhxlDyx7tXshRX9kVVpxMZlz7r1","","","","","","","","","","","","","","","","","","","2465","",""
"html-keyboard-response","57","149110","0.0-26.0-0.0","","1025.699999988079","<div style=""display: flex; flex-direction: column; align-items: center; margin-top: -40px;""><img src=""images/pattern_4.png"" style=""width: 234px; height: 230px; margin-top: -50px;""><div style=""display: flex; justify-content: space-between; margin-top: 33px;""><img src=""images/choice_trial_15.png"" style=""width: 408px; height: 417px; margin-right: 200px;""><img src=""images/choice_trial_9.png"" style=""width: 408px; height: 417px;""></div></div>","f","delaylearn","learning","trial","631a1897a8f28243082da8ef","odhxlDyx7tXshRX9kVVpxMZlz7r1","3","images/choice_trial_15.png","images/choice_trial_9.png","images/pattern_4.png","f","f","7000","15","9","3","0","11","1","1","15","80","","","","",""
"html-keyboard-response","58","150116","0.0-26.0-1.0","","null","<div style=""display: flex; flex-direction: column; align-items: center; margin-top: -40px;""><img src=""images/pattern_4.png"" style=""width: 234px; height: 230px; margin-top: -50px;""><div style=""display: flex; justify-content: space-between; margin-top: 33px;""><img src=""images/choice_trial_15.png"" style=""width: 408px; height: 417px; margin-right: 608px;""></div></div>","null","delaylearn","learning","display_response","631a1897a8f28243082da8ef","odhxlDyx7tXshRX9kVVpxMZlz7r1","","","","","","","","","","","","","","","","","chosen stimuli: images/choice_trial_15.png","","","",""
"html-keyboard-response","59","157119","0.0-26.0-2.0","","null","","null","delaylearn","learning","feedback_duration_window","631a1897a8f28243082da8ef","odhxlDyx7tXshRX9kVVpxMZlz7r1","","","","","","","","","","","","","","","","","","7000","","",""
"html-keyboard-response","60","158627","0.0-26.0-3.0","","null","<div style='margin:auto;width: auto; font-size: 150%'><span style='font-weight: bold; font-size: 100px; color: green;'>+10 points!</span><br><br></div>","null","delaylearn","learning","feedback_image_window","631a1897a8f28243082da8ef","odhxlDyx7tXshRX9kVVpxMZlz7r1","","","","","","","","","","","","","","","","","","","","",""
"html-keyboard-response","61","160917","0.0-27.0","","null","<div style=""font-size:100px;"">+</div>","null","delaylearn","learning","ITI","631a1897a8f28243082da8ef","odhxlDyx7tXshRX9kVVpxMZlz7r1","","","","","","","","","","","","","","","","","","","2283","",""
"html-keyboard-response","62","161866","0.0-28.0-0.0","","945.6999999880791","<div style=""display: flex; flex-direction: column; align-items: center; margin-top: -40px;""><img src=""images/pattern_5.png"" style=""width: 234px; height: 230px; margin-top: -50px;""><div style=""display: flex; justify-content: space-between; margin-top: 33px;""><img src=""images/choice_trial_2.png"" style=""width: 408px; height: 417px; margin-right: 200px;""><img src=""images/choice_trial_11.png"" style=""width: 408px; height: 417px;""></div></div>","j","delaylearn","learning","trial","631a1897a8f28243082da8ef","odhxlDyx7tXshRX9kVVpxMZlz7r1","3","images/choice_trial_2.png","images/choice_trial_11.png","images/pattern_5.png","j","j","750","2","11","4","1","12","1","1","11","90","","","","",""
"html-keyboard-response","63","162874","0.0-28.0-1.0","","null","<div style=""display: flex; flex-direction: column; align-items: center; margin-top: -40px;""><img src=""images/pattern_5.png"" style=""width: 234px; height: 230px; margin-top: -50px;""><div style=""display: flex; justify-content: space-between; margin-top: 33px;""><img src=""images/choice_trial_11.png"" style=""width: 408px; height: 417px; margin-left:608px;""></div></div>","null","delaylearn","learning","display_response","631a1897a8f28243082da8ef","odhxlDyx7tXshRX9kVVpxMZlz7r1","","","","","","","","","","","","","","","","","chosen stimuli: images/choice_trial_11.png","","","",""
"html-keyboard-response","64","163632","0.0-28.0-2.0","","null","","null","delaylearn","learning","feedback_duration_window","631a1897a8f28243082da8ef","odhxlDyx7tXshRX9kVVpxMZlz7r1","","","","","","","","","","","","","","","","","","750","","",""
"html-keyboard-response","65","165137","0.0-28.0-3.0","","null","<div style='margin:auto;width: auto; font-size: 150%'><span style='font-weight: bold; font-size: 100px; color: green;'>+10 points!</span><br><br></div>","null","delaylearn","learning","feedback_image_window","631a1897a8f28243082da8ef","odhxlDyx7tXshRX9kVVpxMZlz7r1","","","","","","","","","","","","","","","","","","","","",""
"html-keyboard-response","66","167422","0.0-29.0","","null","<div style=""font-size:100px;"">+</div>","null","delaylearn","learning","ITI","631a1897a8f28243082da8ef","odhxlDyx7tXshRX9kVVpxMZlz7r1","","","","","","","","","","","","","","","","","","","2279","",""
"html-keyboard-response","67","168430","0.0-30.0-0.0","","1005.7000000476837","<div style=""display: flex; flex-direction: column; align-items: center; margin-top: -40px;""><img src=""images/pattern_6.png"" style=""width: 234px; height: 230px; margin-top: -50px;""><div style=""display: flex; justify-content: space-between; margin-top: 33px;""><img src=""images/choice_trial_16.png"" style=""width: 408px; height: 417px; margin-right: 200px;""><img src=""images/choice_trial_3.png"" style=""width: 408px; height: 417px;""></div></div>","j","delaylearn","learning","trial","631a1897a8f28243082da8ef","odhxlDyx7tXshRX9kVVpxMZlz7r1","3","images/choice_trial_16.png","images/choice_trial_3.png","images/pattern_6.png","j","f","750","16","3","5","0","13","0","1","3","100","","","","",""
"html-keyboard-response","68","169434","0.0-30.0-1.0","","null","<div style=""display: flex; flex-direction: column; align-items: center; margin-top: -40px;""><img src=""images/pattern_6.png"" style=""width: 234px; height: 230px; margin-top: -50px;""><div style=""display: flex; justify-content: space-between; margin-top: 33px;""><img src=""images/choice_trial_3.png"" style=""width: 408px; height: 417px; margin-left:608px;""></div></div>","null","delaylearn","learning","display_response","631a1897a8f28243082da8ef","odhxlDyx7tXshRX9kVVpxMZlz7r1","","","","","","","","","","","","","","","","","chosen stimuli: images/choice_trial_3.png","","","",""
"html-keyboard-response","69","170190","0.0-30.0-2.0","","null","","null","delaylearn","learning","feedback_duration_window","631a1897a8f28243082da8ef","odhxlDyx7tXshRX9kVVpxMZlz7r1","","","","","","","","","","","","","","","","","","750","","",""
"html-keyboard-response","70","171696","0.0-30.0-3.0","","null","<div style='margin:auto;width: auto; font-size: 150%'><span style='font-weight: bold; font-size: 100px; color: green;'>+10 points!</span><br><br></div>","null","delaylearn","learning","feedback_image_window","631a1897a8f28243082da8ef","odhxlDyx7tXshRX9kVVpxMZlz7r1","","","","","","","","","","","","","","","","","","","","",""
"html-keyboard-response","71","172198","0.0-31.0-0.0","","null","","null","","","mood_trial_fixation","","","","","","","","","","","","","","","","","","","","","","",""
"lmdlab-html-vas-response","72","176756","0.0-31.0-1.0","","3548","How happy are you right now?","0.42166661580403647","delaylearn","learning","mood_trial","631a1897a8f28243082da8ef","odhxlDyx7tXshRX9kVVpxMZlz7r1","","","","","","","","","","","","","","","","","","","","[""Very unhappy"",""Very happy""]",""
"html-keyboard-response","73","178619","0.0-32.0","","null","<div style=""font-size:100px;"">+</div>","null","delaylearn","learning","ITI","631a1897a8f28243082da8ef","odhxlDyx7tXshRX9kVVpxMZlz7r1","","","","","","","","","","","","","","","","","","","1857","",""
"html-keyboard-response","74","179569","0.0-33.0-0.0","","946.1999999880791","<div style=""display: flex; flex-direction: column; align-items: center; margin-top: -40px;""><img src=""images/pattern_1.png"" style=""width: 234px; height: 230px; margin-top: -50px;""><div style=""display: flex; justify-content: space-between; margin-top: 33px;""><img src=""images/choice_trial_8.png"" style=""width: 408px; height: 417px; margin-right: 200px;""><img src=""images/choice_trial_14.png"" style=""width: 408px; height: 417px;""></div></div>","j","delaylearn","learning","trial","631a1897a8f28243082da8ef","odhxlDyx7tXshRX9kVVpxMZlz7r1","3","images/choice_trial_8.png","images/choice_trial_14.png","images/pattern_1.png","j","j","7000","8","14","1","1","14","1","1","14","110","","","","",""
"html-keyboard-response","75","180577","0.0-33.0-1.0","","null","<div style=""display: flex; flex-direction: column; align-items: center; margin-top: -40px;""><img src=""images/pattern_1.png"" style=""width: 234px; height: 230px; margin-top: -50px;""><div style=""display: flex; justify-content: space-between; margin-top: 33px;""><img src=""images/choice_trial_14.png"" style=""width: 408px; height: 417px; margin-left:608px;""></div></div>","null","delaylearn","learning","display_response","631a1897a8f28243082da8ef","odhxlDyx7tXshRX9kVVpxMZlz7r1","","","","","","","","","","","","","","","","","chosen stimuli: images/choice_trial_14.png","","","",""
"html-keyboard-response","76","187579","0.0-33.0-2.0","","null","","null","delaylearn","learning","feedback_duration_window","631a1897a8f28243082da8ef","odhxlDyx7tXshRX9kVVpxMZlz7r1","","","","","","","","","","","","","","","","","","7000","","",""
"html-keyboard-response","77","189083","0.0-33.0-3.0","","null","<div style='margin:auto;width: auto; font-size: 150%'><span style='font-weight: bold; font-size: 100px; color: green;'>+10 points!</span><br><br></div>","null","delaylearn","learning","feedback_image_window","631a1897a8f28243082da8ef","odhxlDyx7tXshRX9kVVpxMZlz7r1","","","","","","","","","","","","","","","","","","","","",""
"html-keyboard-response","78","191031","0.0-34.0","","null","<div style=""font-size:100px;"">+</div>","null","delaylearn","learning","ITI","631a1897a8f28243082da8ef","odhxlDyx7tXshRX9kVVpxMZlz7r1","","","","","","","","","","","","","","","","","","","1943","",""
"html-keyboard-response","79","192495","0.0-35.0-0.0","","1460.7000000476837","<div style=""display: flex; flex-direction: column; align-items: center; margin-top: -40px;""><img src=""images/pattern_3.png"" style=""width: 234px; height: 230px; margin-top: -50px;""><div style=""display: flex; justify-content: space-between; margin-top: 33px;""><img src=""images/choice_trial_10.png"" style=""width: 408px; height: 417px; margin-right: 200px;""><img src=""images/choice_trial_13.png"" style=""width: 408px; height: 417px;""></div></div>","f","delaylearn","learning","trial","631a1897a8f28243082da8ef","odhxlDyx7tXshRX9kVVpxMZlz7r1","3","images/choice_trial_10.png","images/choice_trial_13.png","images/pattern_3.png","f","j","7000","10","13","2","1","15","0","1","10","120","","","","",""
"html-keyboard-response","80","193504","0.0-35.0-1.0","","null","<div style=""display: flex; flex-direction: column; align-items: center; margin-top: -40px;""><img src=""images/pattern_3.png"" style=""width: 234px; height: 230px; margin-top: -50px;""><div style=""display: flex; justify-content: space-between; margin-top: 33px;""><img src=""images/choice_trial_10.png"" style=""width: 408px; height: 417px; margin-right: 608px;""></div></div>","null","delaylearn","learning","display_response","631a1897a8f28243082da8ef","odhxlDyx7tXshRX9kVVpxMZlz7r1","","","","","","","","","","","","","","","","","chosen stimuli: images/choice_trial_10.png","","","",""
"html-keyboard-response","81","200510","0.0-35.0-2.0","","null","","null","delaylearn","learning","feedback_duration_window","631a1897a8f28243082da8ef","odhxlDyx7tXshRX9kVVpxMZlz7r1","","","","","","","","","","","","","","","","","","7000","","",""
"html-keyboard-response","82","202017","0.0-35.0-3.0","","null","<div style='margin:auto;width: auto; font-size: 150%'><span style='font-weight: bold; font-size: 100px; color: green;'>+10 points!</span><br><br></div>","null","delaylearn","learning","feedback_image_window","631a1897a8f28243082da8ef","odhxlDyx7tXshRX9kVVpxMZlz7r1","","","","","","","","","","","","","","","","","","","","",""
"html-keyboard-response","83","204327","0.0-36.0","","null","<div style=""font-size:100px;"">+</div>","null","delaylearn","learning","ITI","631a1897a8f28243082da8ef","odhxlDyx7tXshRX9kVVpxMZlz7r1","","","","","","","","","","","","","","","","","","","2303","",""
"html-keyboard-response","84","205561","0.0-37.0-0.0","","1230.5","<div style=""display: flex; flex-direction: column; align-items: center; margin-top: -40px;""><img src=""images/pattern_5.png"" style=""width: 234px; height: 230px; margin-top: -50px;""><div style=""display: flex; justify-content: space-between; margin-top: 33px;""><img src=""images/choice_trial_11.png"" style=""width: 408px; height: 417px; margin-right: 200px;""><img src=""images/choice_trial_2.png"" style=""width: 408px; height: 417px;""></div></div>","j","delaylearn","learning","trial","631a1897a8f28243082da8ef","odhxlDyx7tXshRX9kVVpxMZlz7r1","3","images/choice_trial_11.png","images/choice_trial_2.png","images/pattern_5.png","f","f","750","11","2","4","0","16","0","0","2","120","","","","",""
"html-keyboard-response","85","206564","0.0-37.0-1.0","","null","<div style=""display: flex; flex-direction: column; align-items: center; margin-top: -40px;""><img src=""images/pattern_5.png"" style=""width: 234px; height: 230px; margin-top: -50px;""><div style=""display: flex; justify-content: space-between; margin-top: 33px;""><img src=""images/choice_trial_2.png"" style=""width: 408px; height: 417px; margin-left:608px;""></div></div>","null","delaylearn","learning","display_response","631a1897a8f28243082da8ef","odhxlDyx7tXshRX9kVVpxMZlz7r1","","","","","","","","","","","","","","","","","chosen stimuli: images/choice_trial_2.png","","","",""
"html-keyboard-response","86","207318","0.0-37.0-2.0","","null","","null","delaylearn","learning","feedback_duration_window","631a1897a8f28243082da8ef","odhxlDyx7tXshRX9kVVpxMZlz7r1","","","","","","","","","","","","","","","","","","750","","",""
"html-keyboard-response","87","208825","0.0-37.0-3.0","","null","<div style='margin:auto;width: auto; font-size: 150%'><span style='font-weight: bold; font-size: 100px; color: red;'>0 points!</span><br><br></div>","null","delaylearn","learning","feedback_image_window","631a1897a8f28243082da8ef","odhxlDyx7tXshRX9kVVpxMZlz7r1","","","","","","","","","","","","","","","","","","","","",""
"html-keyboard-response","88","209330","0.0-38.0-0.0","","null","","null","","","mood_trial_fixation","","","","","","","","","","","","","","","","","","","","","","",""
"lmdlab-html-vas-response","89","221606","0.0-38.0-1.0","","11269","How happy are you right now?","0.5566666158040364","delaylearn","learning","mood_trial","631a1897a8f28243082da8ef","odhxlDyx7tXshRX9kVVpxMZlz7r1","","","","","","","","","","","","","","","","","","","","[""Very unhappy"",""Very happy""]",""
"html-keyboard-response","90","223810","0.0-39.0","","null","<div style=""font-size:100px;"">+</div>","null","delaylearn","learning","ITI","631a1897a8f28243082da8ef","odhxlDyx7tXshRX9kVVpxMZlz7r1","","","","","","","","","","","","","","","","","","","2200","",""
"html-keyboard-response","91","225287","0.0-40.0-0.0","","1473.5","<div style=""display: flex; flex-direction: column; align-items: center; margin-top: -40px;""><img src=""images/pattern_6.png"" style=""width: 234px; height: 230px; margin-top: -50px;""><div style=""display: flex; justify-content: space-between; margin-top: 33px;""><img src=""images/choice_trial_16.png"" style=""width: 408px; height: 417px; margin-right: 200px;""><img src=""images/choice_trial_3.png"" style=""width: 408px; height: 417px;""></div></div>","j","delaylearn","learning","trial","631a1897a8f28243082da8ef","odhxlDyx7tXshRX9kVVpxMZlz7r1","3","images/choice_trial_16.png","images/choice_trial_3.png","images/pattern_6.png","f","f","750","16","3","5","0","17","0","0","3","120","","","","",""
"html-keyboard-response","92","226295","0.0-40.0-1.0","","null","<div style=""display: flex; flex-direction: column; align-items: center; margin-top: -40px;""><img src=""images/pattern_6.png"" style=""width: 234px; height: 230px; margin-top: -50px;""><div style=""display: flex; justify-content: space-between; margin-top: 33px;""><img src=""images/choice_trial_3.png"" style=""width: 408px; height: 417px; margin-left:608px;""></div></div>","null","delaylearn","learning","display_response","631a1897a8f28243082da8ef","odhxlDyx7tXshRX9kVVpxMZlz7r1","","","","","","","","","","","","","","","","","chosen stimuli: images/choice_trial_3.png","","","",""
"html-keyboard-response","93","227052","0.0-40.0-2.0","","null","","null","delaylearn","learning","feedback_duration_window","631a1897a8f28243082da8ef","odhxlDyx7tXshRX9kVVpxMZlz7r1","","","","","","","","","","","","","","","","","","750","","",""
"html-keyboard-response","94","228560","0.0-40.0-3.0","","null","<div style='margin:auto;width: auto; font-size: 150%'><span style='font-weight: bold; font-size: 100px; color: red;'>0 points!</span><br><br></div>","null","delaylearn","learning","feedback_image_window","631a1897a8f28243082da8ef","odhxlDyx7tXshRX9kVVpxMZlz7r1","","","","","","","","","","","","","","","","","","","","",""
"html-keyboard-response","95","230683","0.0-41.0","","null","<div style=""font-size:100px;"">+</div>","null","delaylearn","learning","ITI","631a1897a8f28243082da8ef","odhxlDyx7tXshRX9kVVpxMZlz7r1","","","","","","","","","","","","","","","","","","","2121","",""
"html-keyboard-response","96","231926","0.0-42.0-0.0","","1239","<div style=""display: flex; flex-direction: column; align-items: center; margin-top: -40px;""><img src=""images/pattern_4.png"" style=""width: 234px; height: 230px; margin-top: -50px;""><div style=""display: flex; justify-content: space-between; margin-top: 33px;""><img src=""images/choice_trial_9.png"" style=""width: 408px; height: 417px; margin-right: 200px;""><img src=""images/choice_trial_15.png"" style=""width: 408px; height: 417px;""></div></div>","j","delaylearn","learning","trial","631a1897a8f28243082da8ef","odhxlDyx7tXshRX9kVVpxMZlz7r1","3","images/choice_trial_9.png","images/choice_trial_15.png","images/pattern_4.png","j","j","7000","9","15","3","1","18","1","1","15","130","","","","",""
"html-keyboard-response","97","232930","0.0-42.0-1.0","","null","<div style=""display: flex; flex-direction: column; align-items: center; margin-top: -40px;""><img src=""images/pattern_4.png"" style=""width: 234px; height: 230px; margin-top: -50px;""><div style=""display: flex; justify-content: space-between; margin-top: 33px;""><img src=""images/choice_trial_15.png"" style=""width: 408px; height: 417px; margin-left:608px;""></div></div>","null","delaylearn","learning","display_response","631a1897a8f28243082da8ef","odhxlDyx7tXshRX9kVVpxMZlz7r1","","","","","","","","","","","","","","","","","chosen stimuli: images/choice_trial_15.png","","","",""
"html-keyboard-response","98","239936","0.0-42.0-2.0","","null","","null","delaylearn","learning","feedback_duration_window","631a1897a8f28243082da8ef","odhxlDyx7tXshRX9kVVpxMZlz7r1","","","","","","","","","","","","","","","","","","7000","","",""
"html-keyboard-response","99","241445","0.0-42.0-3.0","","null","<div style='margin:auto;width: auto; font-size: 150%'><span style='font-weight: bold; font-size: 100px; color: green;'>+10 points!</span><br><br></div>","null","delaylearn","learning","feedback_image_window","631a1897a8f28243082da8ef","odhxlDyx7tXshRX9kVVpxMZlz7r1","","","","","","","","","","","","","","","","","","","","",""
"html-keyboard-response","100","243013","0.0-43.0","","null","<div style=""font-size:100px;"">+</div>","null","delaylearn","learning","ITI","631a1897a8f28243082da8ef","odhxlDyx7tXshRX9kVVpxMZlz7r1","","","","","","","","","","","","","","","","","","","1561","",""
"html-keyboard-response","101","244385","0.0-44.0-0.0","","1368.699999988079","<div style=""display: flex; flex-direction: column; align-items: center; margin-top: -40px;""><img src=""images/pattern_7.png"" style=""width: 234px; height: 230px; margin-top: -50px;""><div style=""display: flex; justify-content: space-between; margin-top: 33px;""><img src=""images/choice_trial_6.png"" style=""width: 408px; height: 417px; margin-right: 200px;""><img src=""images/choice_trial_12.png"" style=""width: 408px; height: 417px;""></div></div>","j","delaylearn","learning","trial","631a1897a8f28243082da8ef","odhxlDyx7tXshRX9kVVpxMZlz7r1","3","images/choice_trial_6.png","images/choice_trial_12.png","images/pattern_7.png","j","f","750","6","12","6","0","19","0","1","12","140","","","","",""
"html-keyboard-response","102","245392","0.0-44.0-1.0","","null","<div style=""display: flex; flex-direction: column; align-items: center; margin-top: -40px;""><img src=""images/pattern_7.png"" style=""width: 234px; height: 230px; margin-top: -50px;""><div style=""display: flex; justify-content: space-between; margin-top: 33px;""><img src=""images/choice_trial_12.png"" style=""width: 408px; height: 417px; margin-left:608px;""></div></div>","null","delaylearn","learning","display_response","631a1897a8f28243082da8ef","odhxlDyx7tXshRX9kVVpxMZlz7r1","","","","","","","","","","","","","","","","","chosen stimuli: images/choice_trial_12.png","","","",""
"html-keyboard-response","103","246145","0.0-44.0-2.0","","null","","null","delaylearn","learning","feedback_duration_window","631a1897a8f28243082da8ef","odhxlDyx7tXshRX9kVVpxMZlz7r1","","","","","","","","","","","","","","","","","","750","","",""
"html-keyboard-response","104","247650","0.0-44.0-3.0","","null","<div style='margin:auto;width: auto; font-size: 150%'><span style='font-weight: bold; font-size: 100px; color: green;'>+10 points!</span><br><br></div>","null","delaylearn","learning","feedback_image_window","631a1897a8f28243082da8ef","odhxlDyx7tXshRX9kVVpxMZlz7r1","","","","","","","","","","","","","","","","","","","","",""
"html-keyboard-response","105","250085","0.0-45.0","","null","<div style=""font-size:100px;"">+</div>","null","delaylearn","learning","ITI","631a1897a8f28243082da8ef","odhxlDyx7tXshRX9kVVpxMZlz7r1","","","","","","","","","","","","","","","","","","","2429","",""
"html-keyboard-response","106","251310","0.0-46.0-0.0","","1221.1000000238419","<div style=""display: flex; flex-direction: column; align-items: center; margin-top: -40px;""><img src=""images/pattern_1.png"" style=""width: 234px; height: 230px; margin-top: -50px;""><div style=""display: flex; justify-content: space-between; margin-top: 33px;""><img src=""images/choice_trial_14.png"" style=""width: 408px; height: 417px; margin-right: 200px;""><img src=""images/choice_trial_8.png"" style=""width: 408px; height: 417px;""></div></div>","f","delaylearn","learning","trial","631a1897a8f28243082da8ef","odhxlDyx7tXshRX9kVVpxMZlz7r1","3","images/choice_trial_14.png","images/choice_trial_8.png","images/pattern_1.png","f","f","7000","14","8","1","0","20","1","1","14","150","","","","",""
"html-keyboard-response","107","252314","0.0-46.0-1.0","","null","<div style=""display: flex; flex-direction: column; align-items: center; margin-top: -40px;""><img src=""images/pattern_1.png"" style=""width: 234px; height: 230px; margin-top: -50px;""><div style=""display: flex; justify-content: space-between; margin-top: 33px;""><img src=""images/choice_trial_14.png"" style=""width: 408px; height: 417px; margin-right: 608px;""></div></div>","null","delaylearn","learning","display_response","631a1897a8f28243082da8ef","odhxlDyx7tXshRX9kVVpxMZlz7r1","","","","","","","","","","","","","","","","","chosen stimuli: images/choice_trial_14.png","","","",""
"html-keyboard-response","108","259321","0.0-46.0-2.0","","null","","null","delaylearn","learning","feedback_duration_window","631a1897a8f28243082da8ef","odhxlDyx7tXshRX9kVVpxMZlz7r1","","","","","","","","","","","","","","","","","","7000","","",""
"html-keyboard-response","109","260827","0.0-46.0-3.0","","null","<div style='margin:auto;width: auto; font-size: 150%'><span style='font-weight: bold; font-size: 100px; color: green;'>+10 points!</span><br><br></div>","null","delaylearn","learning","feedback_image_window","631a1897a8f28243082da8ef","odhxlDyx7tXshRX9kVVpxMZlz7r1","","","","","","","","","","","","","","","","","","","","",""
"html-keyboard-response","110","262932","0.0-47.0","","null","<div style=""font-size:100px;"">+</div>","null","delaylearn","learning","ITI","631a1897a8f28243082da8ef","odhxlDyx7tXshRX9kVVpxMZlz7r1","","","","","","","","","","","","","","","","","","","2098","",""
"html-keyboard-response","111","264824","0.0-48.0-0.0","","1889","<div style=""display: flex; flex-direction: column; align-items: center; margin-top: -40px;""><img src=""images/pattern_6.png"" style=""width: 234px; height: 230px; margin-top: -50px;""><div style=""display: flex; justify-content: space-between; margin-top: 33px;""><img src=""images/choice_trial_3.png"" style=""width: 408px; height: 417px; margin-right: 200px;""><img src=""images/choice_trial_16.png"" style=""width: 408px; height: 417px;""></div></div>","j","delaylearn","learning","trial","631a1897a8f28243082da8ef","odhxlDyx7tXshRX9kVVpxMZlz7r1","3","images/choice_trial_3.png","images/choice_trial_16.png","images/pattern_6.png","j","j","750","3","16","5","1","21","1","1","16","160","","","","",""
"html-keyboard-response","112","265831","0.0-48.0-1.0","","null","<div style=""display: flex; flex-direction: column; align-items: center; margin-top: -40px;""><img src=""images/pattern_6.png"" style=""width: 234px; height: 230px; margin-top: -50px;""><div style=""display: flex; justify-content: space-between; margin-top: 33px;""><img src=""images/choice_trial_16.png"" style=""width: 408px; height: 417px; margin-left:608px;""></div></div>","null","delaylearn","learning","display_response","631a1897a8f28243082da8ef","odhxlDyx7tXshRX9kVVpxMZlz7r1","","","","","","","","","","","","","","","","","chosen stimuli: images/choice_trial_16.png","","","",""
"html-keyboard-response","113","266588","0.0-48.0-2.0","","null","","null","delaylearn","learning","feedback_duration_window","631a1897a8f28243082da8ef","odhxlDyx7tXshRX9kVVpxMZlz7r1","","","","","","","","","","","","","","","","","","750","","",""
"html-keyboard-response","114","268095","0.0-48.0-3.0","","null","<div style='margin:auto;width: auto; font-size: 150%'><span style='font-weight: bold; font-size: 100px; color: green;'>+10 points!</span><br><br></div>","null","delaylearn","learning","feedback_image_window","631a1897a8f28243082da8ef","odhxlDyx7tXshRX9kVVpxMZlz7r1","","","","","","","","","","","","","","","","","","","","",""
"html-keyboard-response","115","270402","0.0-49.0","","null","<div style=""font-size:100px;"">+</div>","null","delaylearn","learning","ITI","631a1897a8f28243082da8ef","odhxlDyx7tXshRX9kVVpxMZlz7r1","","","","","","","","","","","","","","","","","","","2300","",""
"html-keyboard-response","116","271202","0.0-50.0-0.0","","797.4000000357628","<div style=""display: flex; flex-direction: column; align-items: center; margin-top: -40px;""><img src=""images/pattern_4.png"" style=""width: 234px; height: 230px; margin-top: -50px;""><div style=""display: flex; justify-content: space-between; margin-top: 33px;""><img src=""images/choice_trial_15.png"" style=""width: 408px; height: 417px; margin-right: 200px;""><img src=""images/choice_trial_9.png"" style=""width: 408px; height: 417px;""></div></div>","f","delaylearn","learning","trial","631a1897a8f28243082da8ef","odhxlDyx7tXshRX9kVVpxMZlz7r1","3","images/choice_trial_15.png","images/choice_trial_9.png","images/pattern_4.png","f","f","7000","15","9","3","0","22","1","1","15","170","","","","",""
"html-keyboard-response","117","272211","0.0-50.0-1.0","","null","<div style=""display: flex; flex-direction: column; align-items: center; margin-top: -40px;""><img src=""images/pattern_4.png"" style=""width: 234px; height: 230px; margin-top: -50px;""><div style=""display: flex; justify-content: space-between; margin-top: 33px;""><img src=""images/choice_trial_15.png"" style=""width: 408px; height: 417px; margin-right: 608px;""></div></div>","null","delaylearn","learning","display_response","631a1897a8f28243082da8ef","odhxlDyx7tXshRX9kVVpxMZlz7r1","","","","","","","","","","","","","","","","","chosen stimuli: images/choice_trial_15.png","","","",""
"html-keyboard-response","118","279216","0.0-50.0-2.0","","null","","null","delaylearn","learning","feedback_duration_window","631a1897a8f28243082da8ef","odhxlDyx7tXshRX9kVVpxMZlz7r1","","","","","","","","","","","","","","","","","","7000","","",""
"html-keyboard-response","119","280723","0.0-50.0-3.0","","null","<div style='margin:auto;width: auto; font-size: 150%'><span style='font-weight: bold; font-size: 100px; color: green;'>+10 points!</span><br><br></div>","null","delaylearn","learning","feedback_image_window","631a1897a8f28243082da8ef","odhxlDyx7tXshRX9kVVpxMZlz7r1","","","","","","","","","","","","","","","","","","","","",""
"html-keyboard-response","120","281227","0.0-51.0-0.0","","null","","null","","","mood_trial_fixation","","","","","","","","","","","","","","","","","","","","","","",""
"lmdlab-html-vas-response","121","285722","0.0-51.0-1.0","","3484","How happy are you right now?","0.6999999491373697","delaylearn","learning","mood_trial","631a1897a8f28243082da8ef","odhxlDyx7tXshRX9kVVpxMZlz7r1","","","","","","","","","","","","","","","","","","","","[""Very unhappy"",""Very happy""]",""
"html-keyboard-response","122","288139","0.0-52.0","","null","<div style=""font-size:100px;"">+</div>","null","delaylearn","learning","ITI","631a1897a8f28243082da8ef","odhxlDyx7tXshRX9kVVpxMZlz7r1","","","","","","","","","","","","","","","","","","","2409","",""
"html-keyboard-response","123","288953","0.0-53.0-0.0","","810.4000000357628","<div style=""display: flex; flex-direction: column; align-items: center; margin-top: -40px;""><img src=""images/pattern_7.png"" style=""width: 234px; height: 230px; margin-top: -50px;""><div style=""display: flex; justify-content: space-between; margin-top: 33px;""><img src=""images/choice_trial_12.png"" style=""width: 408px; height: 417px; margin-right: 200px;""><img src=""images/choice_trial_6.png"" style=""width: 408px; height: 417px;""></div></div>","j","delaylearn","learning","trial","631a1897a8f28243082da8ef","odhxlDyx7tXshRX9kVVpxMZlz7r1","3","images/choice_trial_12.png","images/choice_trial_6.png","images/pattern_7.png","j","j","750","12","6","6","1","23","1","1","6","180","","","","",""
"html-keyboard-response","124","289960","0.0-53.0-1.0","","null","<div style=""display: flex; flex-direction: column; align-items: center; margin-top: -40px;""><img src=""images/pattern_7.png"" style=""width: 234px; height: 230px; margin-top: -50px;""><div style=""display: flex; justify-content: space-between; margin-top: 33px;""><img src=""images/choice_trial_6.png"" style=""width: 408px; height: 417px; margin-left:608px;""></div></div>","null","delaylearn","learning","display_response","631a1897a8f28243082da8ef","odhxlDyx7tXshRX9kVVpxMZlz7r1","","","","","","","","","","","","","","","","","chosen stimuli: images/choice_trial_6.png","","","",""
"html-keyboard-response","125","290717","0.0-53.0-2.0","","null","","null","delaylearn","learning","feedback_duration_window","631a1897a8f28243082da8ef","odhxlDyx7tXshRX9kVVpxMZlz7r1","","","","","","","","","","","","","","","","","","750","","",""
"html-keyboard-response","126","292224","0.0-53.0-3.0","","null","<div style='margin:auto;width: auto; font-size: 150%'><span style='font-weight: bold; font-size: 100px; color: green;'>+10 points!</span><br><br></div>","null","delaylearn","learning","feedback_image_window","631a1897a8f28243082da8ef","odhxlDyx7tXshRX9kVVpxMZlz7r1","","","","","","","","","","","","","","","","","","","","",""
"html-keyboard-response","127","294568","0.0-54.0","","null","<div style=""font-size:100px;"">+</div>","null","delaylearn","learning","ITI","631a1897a8f28243082da8ef","odhxlDyx7tXshRX9kVVpxMZlz7r1","","","","","","","","","","","","","","","","","","","2342","",""
"html-keyboard-response","128","295342","0.0-55.0-0.0","","770.3000000119209","<div style=""display: flex; flex-direction: column; align-items: center; margin-top: -40px;""><img src=""images/pattern_1.png"" style=""width: 234px; height: 230px; margin-top: -50px;""><div style=""display: flex; justify-content: space-between; margin-top: 33px;""><img src=""images/choice_trial_8.png"" style=""width: 408px; height: 417px; margin-right: 200px;""><img src=""images/choice_trial_14.png"" style=""width: 408px; height: 417px;""></div></div>","f","delaylearn","learning","trial","631a1897a8f28243082da8ef","odhxlDyx7tXshRX9kVVpxMZlz7r1","3","images/choice_trial_8.png","images/choice_trial_14.png","images/pattern_1.png","f","j","7000","8","14","1","1","24","0","1","8","190","","","","",""
"html-keyboard-response","129","296346","0.0-55.0-1.0","","null","<div style=""display: flex; flex-direction: column; align-items: center; margin-top: -40px;""><img src=""images/pattern_1.png"" style=""width: 234px; height: 230px; margin-top: -50px;""><div style=""display: flex; justify-content: space-between; margin-top: 33px;""><img src=""images/choice_trial_8.png"" style=""width: 408px; height: 417px; margin-right: 608px;""></div></div>","null","delaylearn","learning","display_response","631a1897a8f28243082da8ef","odhxlDyx7tXshRX9kVVpxMZlz7r1","","","","","","","","","","","","","","","","","chosen stimuli: images/choice_trial_8.png","","","",""
"html-keyboard-response","130","303353","0.0-55.0-2.0","","null","","null","delaylearn","learning","feedback_duration_window","631a1897a8f28243082da8ef","odhxlDyx7tXshRX9kVVpxMZlz7r1","","","","","","","","","","","","","","","","","","7000","","",""
"html-keyboard-response","131","304859","0.0-55.0-3.0","","null","<div style='margin:auto;width: auto; font-size: 150%'><span style='font-weight: bold; font-size: 100px; color: green;'>+10 points!</span><br><br></div>","null","delaylearn","learning","feedback_image_window","631a1897a8f28243082da8ef","odhxlDyx7tXshRX9kVVpxMZlz7r1","","","","","","","","","","","","","","","","","","","","",""
"html-keyboard-response","132","306711","0.0-56.0","","null","<div style=""font-size:100px;"">+</div>","null","delaylearn","learning","ITI","631a1897a8f28243082da8ef","odhxlDyx7tXshRX9kVVpxMZlz7r1","","","","","","","","","","","","","","","","","","","1846","",""
"html-keyboard-response","133","308653","0.0-57.0-0.0","","1938.4000000357628","<div style=""display: flex; flex-direction: column; align-items: center; margin-top: -40px;""><img src=""images/pattern_5.png"" style=""width: 234px; height: 230px; margin-top: -50px;""><div style=""display: flex; justify-content: space-between; margin-top: 33px;""><img src=""images/choice_trial_2.png"" style=""width: 408px; height: 417px; margin-right: 200px;""><img src=""images/choice_trial_11.png"" style=""width: 408px; height: 417px;""></div></div>","j","delaylearn","learning","trial","631a1897a8f28243082da8ef","odhxlDyx7tXshRX9kVVpxMZlz7r1","3","images/choice_trial_2.png","images/choice_trial_11.png","images/pattern_5.png","j","j","750","2","11","4","1","25","1","1","11","200","","","","",""
"html-keyboard-response","134","309660","0.0-57.0-1.0","","null","<div style=""display: flex; flex-direction: column; align-items: center; margin-top: -40px;""><img src=""images/pattern_5.png"" style=""width: 234px; height: 230px; margin-top: -50px;""><div style=""display: flex; justify-content: space-between; margin-top: 33px;""><img src=""images/choice_trial_11.png"" style=""width: 408px; height: 417px; margin-left:608px;""></div></div>","null","delaylearn","learning","display_response","631a1897a8f28243082da8ef","odhxlDyx7tXshRX9kVVpxMZlz7r1","","","","","","","","","","","","","","","","","chosen stimuli: images/choice_trial_11.png","","","",""
"html-keyboard-response","135","310412","0.0-57.0-2.0","","null","","null","delaylearn","learning","feedback_duration_window","631a1897a8f28243082da8ef","odhxlDyx7tXshRX9kVVpxMZlz7r1","","","","","","","","","","","","","","","","","","750","","",""
"html-keyboard-response","136","311920","0.0-57.0-3.0","","null","<div style='margin:auto;width: auto; font-size: 150%'><span style='font-weight: bold; font-size: 100px; color: green;'>+10 points!</span><br><br></div>","null","delaylearn","learning","feedback_image_window","631a1897a8f28243082da8ef","odhxlDyx7tXshRX9kVVpxMZlz7r1","","","","","","","","","","","","","","","","","","","","",""
"html-keyboard-response","137","313538","0.0-58.0","","null","<div style=""font-size:100px;"">+</div>","null","delaylearn","learning","ITI","631a1897a8f28243082da8ef","odhxlDyx7tXshRX9kVVpxMZlz7r1","","","","","","","","","","","","","","","","","","","1612","",""
"html-keyboard-response","138","314480","0.0-59.0-0.0","","938.5","<div style=""display: flex; flex-direction: column; align-items: center; margin-top: -40px;""><img src=""images/pattern_3.png"" style=""width: 234px; height: 230px; margin-top: -50px;""><div style=""display: flex; justify-content: space-between; margin-top: 33px;""><img src=""images/choice_trial_10.png"" style=""width: 408px; height: 417px; margin-right: 200px;""><img src=""images/choice_trial_13.png"" style=""width: 408px; height: 417px;""></div></div>","f","delaylearn","learning","trial","631a1897a8f28243082da8ef","odhxlDyx7tXshRX9kVVpxMZlz7r1","3","images/choice_trial_10.png","images/choice_trial_13.png","images/pattern_3.png","j","j","7000","10","13","2","1","26","0","0","10","200","","","","",""
"html-keyboard-response","139","315485","0.0-59.0-1.0","","null","<div style=""display: flex; flex-direction: column; align-items: center; margin-top: -40px;""><img src=""images/pattern_3.png"" style=""width: 234px; height: 230px; margin-top: -50px;""><div style=""display: flex; justify-content: space-between; margin-top: 33px;""><img src=""images/choice_trial_10.png"" style=""width: 408px; height: 417px; margin-right: 608px;""></div></div>","null","delaylearn","learning","display_response","631a1897a8f28243082da8ef","odhxlDyx7tXshRX9kVVpxMZlz7r1","","","","","","","","","","","","","","","","","chosen stimuli: images/choice_trial_10.png","","","",""
"html-keyboard-response","140","322489","0.0-59.0-2.0","","null","","null","delaylearn","learning","feedback_duration_window","631a1897a8f28243082da8ef","odhxlDyx7tXshRX9kVVpxMZlz7r1","","","","","","","","","","","","","","","","","","7000","","",""
"html-keyboard-response","141","323997","0.0-59.0-3.0","","null","<div style='margin:auto;width: auto; font-size: 150%'><span style='font-weight: bold; font-size: 100px; color: red;'>0 points!</span><br><br></div>","null","delaylearn","learning","feedback_image_window","631a1897a8f28243082da8ef","odhxlDyx7tXshRX9kVVpxMZlz7r1","","","","","","","","","","","","","","","","","","","","",""
"lmdlab-html-vas-response","142","329256","0.0-60.0-0.0","","3748","*How <b><u>confident</u></b> are you feeling about your answers at this moment?*","0.4133477783203125","rewlearn","rate_confidence","","631a1897a8f28243082da8ef","odhxlDyx7tXshRX9kVVpxMZlz7r1","","","","","","","","","","","","","","","","","","","","[""No confidence"",""Complete confidence""]",""
"lmdlab-rest-trial-limit","143","400722","0.0-60.0-1.0","","69964.5","<div style=""font-size:40px;""><b>Please take a break!</b><br><br><br><br><p>Great work: you earned 200 points.<br><br><br><p>You have completed part(s) 1 of 5.<br><br><br><br>When you are ready to continue<br><br><br>please click the button.</p><br><br>","0","delaylearn","learning","break","631a1897a8f28243082da8ef","odhxlDyx7tXshRX9kVVpxMZlz7r1","","","","","","","","","","","","","","","","","","","","","0"
"html-keyboard-response","144","403726","0.0-60.0-2.0","","null","<div style=""font-size:100px;"">+</div>","null","delaylearn","learning","pre_fixation","631a1897a8f28243082da8ef","","","","","","","","","","","","","","","","","","","","","",""
"lmdlab-html-vas-response","145","407738","0.0-60.0-3.0-0.0","","3001","How happy are you right now?","0.5633332824707031","delaylearn","learning","mood_baseline","631a1897a8f28243082da8ef","odhxlDyx7tXshRX9kVVpxMZlz7r1","","","","","","","","","","","","","","","","","","","","[""Very unhappy"",""Very happy""]",""
"html-keyboard-response","146","409245","0.0-60.0-3.0-1.0","","null","","null","","","mood_baseline_fixation","","","","","","","","","","","","","","","","","","","","","","",""
"html-keyboard-response","147","410890","0.0-61.0","","null","<div style=""font-size:100px;"">+</div>","null","delaylearn","learning","ITI","631a1897a8f28243082da8ef","odhxlDyx7tXshRX9kVVpxMZlz7r1","","","","","","","","","","","","","","","","","","","1642","",""
"html-keyboard-response","148","411671","0.0-62.0-0.0","","776.6000000238419","<div style=""display: flex; flex-direction: column; align-items: center; margin-top: -40px;""><img src=""images/pattern_7.png"" style=""width: 234px; height: 230px; margin-top: -50px;""><div style=""display: flex; justify-content: space-between; margin-top: 33px;""><img src=""images/choice_trial_12.png"" style=""width: 408px; height: 417px; margin-right: 200px;""><img src=""images/choice_trial_6.png"" style=""width: 408px; height: 417px;""></div></div>","j","delaylearn","learning","trial","631a1897a8f28243082da8ef","odhxlDyx7tXshRX9kVVpxMZlz7r1","3","images/choice_trial_12.png","images/choice_trial_6.png","images/pattern_7.png","j","j","750","12","6","6","1","27","1","1","6","210","","","","",""
"html-keyboard-response","149","412675","0.0-62.0-1.0","","null","<div style=""display: flex; flex-direction: column; align-items: center; margin-top: -40px;""><img src=""images/pattern_7.png"" style=""width: 234px; height: 230px; margin-top: -50px;""><div style=""display: flex; justify-content: space-between; margin-top: 33px;""><img src=""images/choice_trial_6.png"" style=""width: 408px; height: 417px; margin-left:608px;""></div></div>","null","delaylearn","learning","display_response","631a1897a8f28243082da8ef","odhxlDyx7tXshRX9kVVpxMZlz7r1","","","","","","","","","","","","","","","","","chosen stimuli: images/choice_trial_6.png","","","",""
"html-keyboard-response","150","413432","0.0-62.0-2.0","","null","","null","delaylearn","learning","feedback_duration_window","631a1897a8f28243082da8ef","odhxlDyx7tXshRX9kVVpxMZlz7r1","","","","","","","","","","","","","","","","","","750","","",""
"html-keyboard-response","151","414938","0.0-62.0-3.0","","null","<div style='margin:auto;width: auto; font-size: 150%'><span style='font-weight: bold; font-size: 100px; color: green;'>+10 points!</span><br><br></div>","null","delaylearn","learning","feedback_image_window","631a1897a8f28243082da8ef","odhxlDyx7tXshRX9kVVpxMZlz7r1","","","","","","","","","","","","","","","","","","","","",""
"html-keyboard-response","152","415445","0.0-63.0-0.0","","null","","null","","","mood_trial_fixation","","","","","","","","","","","","","","","","","","","","","","",""
"lmdlab-html-vas-response","153","418939","0.0-63.0-1.0","","2483","How happy are you right now?","0.7849999491373698","delaylearn","learning","mood_trial","631a1897a8f28243082da8ef","odhxlDyx7tXshRX9kVVpxMZlz7r1","","","","","","","","","","","","","","","","","","","","[""Very unhappy"",""Very happy""]",""
"html-keyboard-response","154","420622","0.0-64.0","","null","<div style=""font-size:100px;"">+</div>","null","delaylearn","learning","ITI","631a1897a8f28243082da8ef","odhxlDyx7tXshRX9kVVpxMZlz7r1","","","","","","","","","","","","","","","","","","","1679","",""
"html-keyboard-response","155","421550","0.0-65.0-0.0","","923.8999999761581","<div style=""display: flex; flex-direction: column; align-items: center; margin-top: -40px;""><img src=""images/pattern_1.png"" style=""width: 234px; height: 230px; margin-top: -50px;""><div style=""display: flex; justify-content: space-between; margin-top: 33px;""><img src=""images/choice_trial_14.png"" style=""width: 408px; height: 417px; margin-right: 200px;""><img src=""images/choice_trial_8.png"" style=""width: 408px; height: 417px;""></div></div>","j","delaylearn","learning","trial","631a1897a8f28243082da8ef","odhxlDyx7tXshRX9kVVpxMZlz7r1","3","images/choice_trial_14.png","images/choice_trial_8.png","images/pattern_1.png","f","f","7000","14","8","1","0","28","0","0","8","210","","","","",""
"html-keyboard-response","156","422555","0.0-65.0-1.0","","null","<div style=""display: flex; flex-direction: column; align-items: center; margin-top: -40px;""><img src=""images/pattern_1.png"" style=""width: 234px; height: 230px; margin-top: -50px;""><div style=""display: flex; justify-content: space-between; margin-top: 33px;""><img src=""images/choice_trial_8.png"" style=""width: 408px; height: 417px; margin-left:608px;""></div></div>","null","delaylearn","learning","display_response","631a1897a8f28243082da8ef","odhxlDyx7tXshRX9kVVpxMZlz7r1","","","","","","","","","","","","","","","","","chosen stimuli: images/choice_trial_8.png","","","",""
"html-keyboard-response","157","429562","0.0-65.0-2.0","","null","","null","delaylearn","learning","feedback_duration_window","631a1897a8f28243082da8ef","odhxlDyx7tXshRX9kVVpxMZlz7r1","","","","","","","","","","","","","","","","","","7000","","",""
"html-keyboard-response","158","431070","0.0-65.0-3.0","","null","<div style='margin:auto;width: auto; font-size: 150%'><span style='font-weight: bold; font-size: 100px; color: red;'>0 points!</span><br><br></div>","null","delaylearn","learning","feedback_image_window","631a1897a8f28243082da8ef","odhxlDyx7tXshRX9kVVpxMZlz7r1","","","","","","","","","","","","","","","","","","","","",""
"html-keyboard-response","159","433404","0.0-66.0","","null","<div style=""font-size:100px;"">+</div>","null","delaylearn","learning","ITI","631a1897a8f28243082da8ef","odhxlDyx7tXshRX9kVVpxMZlz7r1","","","","","","","","","","","","","","","","","","","2327","",""
"html-keyboard-response","160","435101","0.0-67.0-0.0","","1692.5","<div style=""display: flex; flex-direction: column; align-items: center; margin-top: -40px;""><img src=""images/pattern_5.png"" style=""width: 234px; height: 230px; margin-top: -50px;""><div style=""display: flex; justify-content: space-between; margin-top: 33px;""><img src=""images/choice_trial_11.png"" style=""width: 408px; height: 417px; margin-right: 200px;""><img src=""images/choice_trial_2.png"" style=""width: 408px; height: 417px;""></div></div>","f","delaylearn","learning","trial","631a1897a8f28243082da8ef","odhxlDyx7tXshRX9kVVpxMZlz7r1","3","images/choice_trial_11.png","images/choice_trial_2.png","images/pattern_5.png","f","f","750","11","2","4","0","29","1","1","11","220","","","","",""
"html-keyboard-response","161","436108","0.0-67.0-1.0","","null","<div style=""display: flex; flex-direction: column; align-items: center; margin-top: -40px;""><img src=""images/pattern_5.png"" style=""width: 234px; height: 230px; margin-top: -50px;""><div style=""display: flex; justify-content: space-between; margin-top: 33px;""><img src=""images/choice_trial_11.png"" style=""width: 408px; height: 417px; margin-right: 608px;""></div></div>","null","delaylearn","learning","display_response","631a1897a8f28243082da8ef","odhxlDyx7tXshRX9kVVpxMZlz7r1","","","","","","","","","","","","","","","","","chosen stimuli: images/choice_trial_11.png","","","",""
"html-keyboard-response","162","436866","0.0-67.0-2.0","","null","","null","delaylearn","learning","feedback_duration_window","631a1897a8f28243082da8ef","odhxlDyx7tXshRX9kVVpxMZlz7r1","","","","","","","","","","","","","","","","","","750","","",""
"html-keyboard-response","163","438372","0.0-67.0-3.0","","null","<div style='margin:auto;width: auto; font-size: 150%'><span style='font-weight: bold; font-size: 100px; color: green;'>+10 points!</span><br><br></div>","null","delaylearn","learning","feedback_image_window","631a1897a8f28243082da8ef","odhxlDyx7tXshRX9kVVpxMZlz7r1","","","","","","","","","","","","","","","","","","","","",""
"html-keyboard-response","164","440398","0.0-68.0","","null","<div style=""font-size:100px;"">+</div>","null","delaylearn","learning","ITI","631a1897a8f28243082da8ef","odhxlDyx7tXshRX9kVVpxMZlz7r1","","","","","","","","","","","","","","","","","","","2020","",""
"html-keyboard-response","165","441504","0.0-69.0-0.0","","1102","<div style=""display: flex; flex-direction: column; align-items: center; margin-top: -40px;""><img src=""images/pattern_6.png"" style=""width: 234px; height: 230px; margin-top: -50px;""><div style=""display: flex; justify-content: space-between; margin-top: 33px;""><img src=""images/choice_trial_3.png"" style=""width: 408px; height: 417px; margin-right: 200px;""><img src=""images/choice_trial_16.png"" style=""width: 408px; height: 417px;""></div></div>","f","delaylearn","learning","trial","631a1897a8f28243082da8ef","odhxlDyx7tXshRX9kVVpxMZlz7r1","3","images/choice_trial_3.png","images/choice_trial_16.png","images/pattern_6.png","j","j","750","3","16","5","1","30","0","0","3","220","","","","",""
"html-keyboard-response","166","442510","0.0-69.0-1.0","","null","<div style=""display: flex; flex-direction: column; align-items: center; margin-top: -40px;""><img src=""images/pattern_6.png"" style=""width: 234px; height: 230px; margin-top: -50px;""><div style=""display: flex; justify-content: space-between; margin-top: 33px;""><img src=""images/choice_trial_3.png"" style=""width: 408px; height: 417px; margin-right: 608px;""></div></div>","null","delaylearn","learning","display_response","631a1897a8f28243082da8ef","odhxlDyx7tXshRX9kVVpxMZlz7r1","","","","","","","","","","","","","","","","","chosen stimuli: images/choice_trial_3.png","","","",""
"html-keyboard-response","167","443264","0.0-69.0-2.0","","null","","null","delaylearn","learning","feedback_duration_window","631a1897a8f28243082da8ef","odhxlDyx7tXshRX9kVVpxMZlz7r1","","","","","","","","","","","","","","","","","","750","","",""
"html-keyboard-response","168","444771","0.0-69.0-3.0","","null","<div style='margin:auto;width: auto; font-size: 150%'><span style='font-weight: bold; font-size: 100px; color: red;'>0 points!</span><br><br></div>","null","delaylearn","learning","feedback_image_window","631a1897a8f28243082da8ef","odhxlDyx7tXshRX9kVVpxMZlz7r1","","","","","","","","","","","","","","","","","","","","",""
"html-keyboard-response","169","445277","0.0-70.0-0.0","","null","","null","","","mood_trial_fixation","","","","","","","","","","","","","","","","","","","","","","",""
"lmdlab-html-vas-response","170","448903","0.0-70.0-1.0","","2618","How happy are you right now?","0.5033332824707031","delaylearn","learning","mood_trial","631a1897a8f28243082da8ef","odhxlDyx7tXshRX9kVVpxMZlz7r1","","","","","","","","","","","","","","","","","","","","[""Very unhappy"",""Very happy""]",""
"html-keyboard-response","171","450598","0.0-71.0","","null","<div style=""font-size:100px;"">+</div>","null","delaylearn","learning","ITI","631a1897a8f28243082da8ef","odhxlDyx7tXshRX9kVVpxMZlz7r1","","","","","","","","","","","","","","","","","","","1687","",""
"html-keyboard-response","172","451314","0.0-72.0-0.0","","712.1999999880791","<div style=""display: flex; flex-direction: column; align-items: center; margin-top: -40px;""><img src=""images/pattern_4.png"" style=""width: 234px; height: 230px; margin-top: -50px;""><div style=""display: flex; justify-content: space-between; margin-top: 33px;""><img src=""images/choice_trial_9.png"" style=""width: 408px; height: 417px; margin-right: 200px;""><img src=""images/choice_trial_15.png"" style=""width: 408px; height: 417px;""></div></div>","j","delaylearn","learning","trial","631a1897a8f28243082da8ef","odhxlDyx7tXshRX9kVVpxMZlz7r1","3","images/choice_trial_9.png","images/choice_trial_15.png","images/pattern_4.png","j","j","7000","9","15","3","1","31","1","1","15","230","","","","",""
"html-keyboard-response","173","452322","0.0-72.0-1.0","","null","<div style=""display: flex; flex-direction: column; align-items: center; margin-top: -40px;""><img src=""images/pattern_4.png"" style=""width: 234px; height: 230px; margin-top: -50px;""><div style=""display: flex; justify-content: space-between; margin-top: 33px;""><img src=""images/choice_trial_15.png"" style=""width: 408px; height: 417px; margin-left:608px;""></div></div>","null","delaylearn","learning","display_response","631a1897a8f28243082da8ef","odhxlDyx7tXshRX9kVVpxMZlz7r1","","","","","","","","","","","","","","","","","chosen stimuli: images/choice_trial_15.png","","","",""
"html-keyboard-response","174","459327","0.0-72.0-2.0","","null","","null","delaylearn","learning","feedback_duration_window","631a1897a8f28243082da8ef","odhxlDyx7tXshRX9kVVpxMZlz7r1","","","","","","","","","","","","","","","","","","7000","","",""
"html-keyboard-response","175","460834","0.0-72.0-3.0","","null","<div style='margin:auto;width: auto; font-size: 150%'><span style='font-weight: bold; font-size: 100px; color: green;'>+10 points!</span><br><br></div>","null","delaylearn","learning","feedback_image_window","631a1897a8f28243082da8ef","odhxlDyx7tXshRX9kVVpxMZlz7r1","","","","","","","","","","","","","","","","","","","","",""
"html-keyboard-response","176","462796","0.0-73.0","","null","<div style=""font-size:100px;"">+</div>","null","delaylearn","learning","ITI","631a1897a8f28243082da8ef","odhxlDyx7tXshRX9kVVpxMZlz7r1","","","","","","","","","","","","","","","","","","","1955","",""
"html-keyboard-response","177","463698","0.0-74.0-0.0","","898.6999999880791","<div style=""display: flex; flex-direction: column; align-items: center; margin-top: -40px;""><img src=""images/pattern_3.png"" style=""width: 234px; height: 230px; margin-top: -50px;""><div style=""display: flex; justify-content: space-between; margin-top: 33px;""><img src=""images/choice_trial_10.png"" style=""width: 408px; height: 417px; margin-right: 200px;""><img src=""images/choice_trial_13.png"" style=""width: 408px; height: 417px;""></div></div>","f","delaylearn","learning","trial","631a1897a8f28243082da8ef","odhxlDyx7tXshRX9kVVpxMZlz7r1","3","images/choice_trial_10.png","images/choice_trial_13.png","images/pattern_3.png","j","j","7000","10","13","2","1","32","0","0","10","230","","","","",""
"html-keyboard-response","178","464704","0.0-74.0-1.0","","null","<div style=""display: flex; flex-direction: column; align-items: center; margin-top: -40px;""><img src=""images/pattern_3.png"" style=""width: 234px; height: 230px; margin-top: -50px;""><div style=""display: flex; justify-content: space-between; margin-top: 33px;""><img src=""images/choice_trial_10.png"" style=""width: 408px; height: 417px; margin-right: 608px;""></div></div>","null","delaylearn","learning","display_response","631a1897a8f28243082da8ef","odhxlDyx7tXshRX9kVVpxMZlz7r1","","","","","","","","","","","","","","","","","chosen stimuli: images/choice_trial_10.png","","","",""
"html-keyboard-response","179","471710","0.0-74.0-2.0","","null","","null","delaylearn","learning","feedback_duration_window","631a1897a8f28243082da8ef","odhxlDyx7tXshRX9kVVpxMZlz7r1","","","","","","","","","","","","","","","","","","7000","","",""
"html-keyboard-response","180","473216","0.0-74.0-3.0","","null","<div style='margin:auto;width: auto; font-size: 150%'><span style='font-weight: bold; font-size: 100px; color: red;'>0 points!</span><br><br></div>","null","delaylearn","learning","feedback_image_window","631a1897a8f28243082da8ef","odhxlDyx7tXshRX9kVVpxMZlz7r1","","","","","","","","","","","","","","","","","","","","",""
"html-keyboard-response","181","475237","0.0-75.0","","null","<div style=""font-size:100px;"">+</div>","null","delaylearn","learning","ITI","631a1897a8f28243082da8ef","odhxlDyx7tXshRX9kVVpxMZlz7r1","","","","","","","","","","","","","","","","","","","2014","",""
"html-keyboard-response","182","476291","0.0-76.0-0.0","","1050.199999988079","<div style=""display: flex; flex-direction: column; align-items: center; margin-top: -40px;""><img src=""images/pattern_5.png"" style=""width: 234px; height: 230px; margin-top: -50px;""><div style=""display: flex; justify-content: space-between; margin-top: 33px;""><img src=""images/choice_trial_11.png"" style=""width: 408px; height: 417px; margin-right: 200px;""><img src=""images/choice_trial_2.png"" style=""width: 408px; height: 417px;""></div></div>","j","delaylearn","learning","trial","631a1897a8f28243082da8ef","odhxlDyx7tXshRX9kVVpxMZlz7r1","3","images/choice_trial_11.png","images/choice_trial_2.png","images/pattern_5.png","j","f","750","11","2","4","0","33","0","1","2","240","","","","",""
"html-keyboard-response","183","477299","0.0-76.0-1.0","","null","<div style=""display: flex; flex-direction: column; align-items: center; margin-top: -40px;""><img src=""images/pattern_5.png"" style=""width: 234px; height: 230px; margin-top: -50px;""><div style=""display: flex; justify-content: space-between; margin-top: 33px;""><img src=""images/choice_trial_2.png"" style=""width: 408px; height: 417px; margin-left:608px;""></div></div>","null","delaylearn","learning","display_response","631a1897a8f28243082da8ef","odhxlDyx7tXshRX9kVVpxMZlz7r1","","","","","","","","","","","","","","","","","chosen stimuli: images/choice_trial_2.png","","","",""
"html-keyboard-response","184","478052","0.0-76.0-2.0","","null","","null","delaylearn","learning","feedback_duration_window","631a1897a8f28243082da8ef","odhxlDyx7tXshRX9kVVpxMZlz7r1","","","","","","","","","","","","","","","","","","750","","",""
"html-keyboard-response","185","479560","0.0-76.0-3.0","","null","<div style='margin:auto;width: auto; font-size: 150%'><span style='font-weight: bold; font-size: 100px; color: green;'>+10 points!</span><br><br></div>","null","delaylearn","learning","feedback_image_window","631a1897a8f28243082da8ef","odhxlDyx7tXshRX9kVVpxMZlz7r1","","","","","","","","","","","","","","","","","","","","",""
"html-keyboard-response","186","481468","0.0-77.0","","null","<div style=""font-size:100px;"">+</div>","null","delaylearn","learning","ITI","631a1897a8f28243082da8ef","odhxlDyx7tXshRX9kVVpxMZlz7r1","","","","","","","","","","","","","","","","","","","1904","",""
"html-keyboard-response","187","482716","0.0-78.0-0.0","","1244","<div style=""display: flex; flex-direction: column; align-items: center; margin-top: -40px;""><img src=""images/pattern_1.png"" style=""width: 234px; height: 230px; margin-top: -50px;""><div style=""display: flex; justify-content: space-between; margin-top: 33px;""><img src=""images/choice_trial_14.png"" style=""width: 408px; height: 417px; margin-right: 200px;""><img src=""images/choice_trial_8.png"" style=""width: 408px; height: 417px;""></div></div>","j","delaylearn","learning","trial","631a1897a8f28243082da8ef","odhxlDyx7tXshRX9kVVpxMZlz7r1","3","images/choice_trial_14.png","images/choice_trial_8.png","images/pattern_1.png","f","f","7000","14","8","1","0","34","0","0","8","240","","","","",""
"html-keyboard-response","188","483724","0.0-78.0-1.0","","null","<div style=""display: flex; flex-direction: column; align-items: center; margin-top: -40px;""><img src=""images/pattern_1.png"" style=""width: 234px; height: 230px; margin-top: -50px;""><div style=""display: flex; justify-content: space-between; margin-top: 33px;""><img src=""images/choice_trial_8.png"" style=""width: 408px; height: 417px; margin-left:608px;""></div></div>","null","delaylearn","learning","display_response","631a1897a8f28243082da8ef","odhxlDyx7tXshRX9kVVpxMZlz7r1","","","","","","","","","","","","","","","","","chosen stimuli: images/choice_trial_8.png","","","",""
"html-keyboard-response","189","490730","0.0-78.0-2.0","","null","","null","delaylearn","learning","feedback_duration_window","631a1897a8f28243082da8ef","odhxlDyx7tXshRX9kVVpxMZlz7r1","","","","","","","","","","","","","","","","","","7000","","",""
"html-keyboard-response","190","492238","0.0-78.0-3.0","","null","<div style='margin:auto;width: auto; font-size: 150%'><span style='font-weight: bold; font-size: 100px; color: red;'>0 points!</span><br><br></div>","null","delaylearn","learning","feedback_image_window","631a1897a8f28243082da8ef","odhxlDyx7tXshRX9kVVpxMZlz7r1","","","","","","","","","","","","","","","","","","","","",""
"html-keyboard-response","191","492742","0.0-79.0-0.0","","null","","null","","","mood_trial_fixation","","","","","","","","","","","","","","","","","","","","","","",""
"lmdlab-html-vas-response","192","496022","0.0-79.0-1.0","","2271","How happy are you right now?","0.6633332824707031","delaylearn","learning","mood_trial","631a1897a8f28243082da8ef","odhxlDyx7tXshRX9kVVpxMZlz7r1","","","","","","","","","","","","","","","","","","","","[""Very unhappy"",""Very happy""]",""
"html-keyboard-response","193","497697","0.0-80.0","","null","<div style=""font-size:100px;"">+</div>","null","delaylearn","learning","ITI","631a1897a8f28243082da8ef","odhxlDyx7tXshRX9kVVpxMZlz7r1","","","","","","","","","","","","","","","","","","","1669","",""
"html-keyboard-response","194","498695","0.0-81.0-0.0","","994.5999999642372","<div style=""display: flex; flex-direction: column; align-items: center; margin-top: -40px;""><img src=""images/pattern_6.png"" style=""width: 234px; height: 230px; margin-top: -50px;""><div style=""display: flex; justify-content: space-between; margin-top: 33px;""><img src=""images/choice_trial_16.png"" style=""width: 408px; height: 417px; margin-right: 200px;""><img src=""images/choice_trial_3.png"" style=""width: 408px; height: 417px;""></div></div>","f","delaylearn","learning","trial","631a1897a8f28243082da8ef","odhxlDyx7tXshRX9kVVpxMZlz7r1","3","images/choice_trial_16.png","images/choice_trial_3.png","images/pattern_6.png","j","f","750","16","3","5","0","35","1","0","16","240","","","","",""
"html-keyboard-response","195","499700","0.0-81.0-1.0","","null","<div style=""display: flex; flex-direction: column; align-items: center; margin-top: -40px;""><img src=""images/pattern_6.png"" style=""width: 234px; height: 230px; margin-top: -50px;""><div style=""display: flex; justify-content: space-between; margin-top: 33px;""><img src=""images/choice_trial_16.png"" style=""width: 408px; height: 417px; margin-right: 608px;""></div></div>","null","delaylearn","learning","display_response","631a1897a8f28243082da8ef","odhxlDyx7tXshRX9kVVpxMZlz7r1","","","","","","","","","","","","","","","","","chosen stimuli: images/choice_trial_16.png","","","",""
"html-keyboard-response","196","500457","0.0-81.0-2.0","","null","","null","delaylearn","learning","feedback_duration_window","631a1897a8f28243082da8ef","odhxlDyx7tXshRX9kVVpxMZlz7r1","","","","","","","","","","","","","","","","","","750","","",""
"html-keyboard-response","197","501960","0.0-81.0-3.0","","null","<div style='margin:auto;width: auto; font-size: 150%'><span style='font-weight: bold; font-size: 100px; color: red;'>0 points!</span><br><br></div>","null","delaylearn","learning","feedback_image_window","631a1897a8f28243082da8ef","odhxlDyx7tXshRX9kVVpxMZlz7r1","","","","","","","","","","","","","","","","","","","","",""
"html-keyboard-response","198","503865","0.0-82.0","","null","<div style=""font-size:100px;"">+</div>","null","delaylearn","learning","ITI","631a1897a8f28243082da8ef","odhxlDyx7tXshRX9kVVpxMZlz7r1","","","","","","","","","","","","","","","","","","","1898","",""
"html-keyboard-response","199","505101","0.0-83.0-0.0","","1231.800000011921","<div style=""display: flex; flex-direction: column; align-items: center; margin-top: -40px;""><img src=""images/pattern_3.png"" style=""width: 234px; height: 230px; margin-top: -50px;""><div style=""display: flex; justify-content: space-between; margin-top: 33px;""><img src=""images/choice_trial_10.png"" style=""width: 408px; height: 417px; margin-right: 200px;""><img src=""images/choice_trial_13.png"" style=""width: 408px; height: 417px;""></div></div>","f","delaylearn","learning","trial","631a1897a8f28243082da8ef","odhxlDyx7tXshRX9kVVpxMZlz7r1","3","images/choice_trial_10.png","images/choice_trial_13.png","images/pattern_3.png","j","j","7000","10","13","2","1","36","0","0","10","240","","","","",""
"html-keyboard-response","200","506108","0.0-83.0-1.0","","null","<div style=""display: flex; flex-direction: column; align-items: center; margin-top: -40px;""><img src=""images/pattern_3.png"" style=""width: 234px; height: 230px; margin-top: -50px;""><div style=""display: flex; justify-content: space-between; margin-top: 33px;""><img src=""images/choice_trial_10.png"" style=""width: 408px; height: 417px; margin-right: 608px;""></div></div>","null","delaylearn","learning","display_response","631a1897a8f28243082da8ef","odhxlDyx7tXshRX9kVVpxMZlz7r1","","","","","","","","","","","","","","","","","chosen stimuli: images/choice_trial_10.png","","","",""
"html-keyboard-response","201","513112","0.0-83.0-2.0","","null","","null","delaylearn","learning","feedback_duration_window","631a1897a8f28243082da8ef","odhxlDyx7tXshRX9kVVpxMZlz7r1","","","","","","","","","","","","","","","","","","7000","","",""
"html-keyboard-response","202","514618","0.0-83.0-3.0","","null","<div style='margin:auto;width: auto; font-size: 150%'><span style='font-weight: bold; font-size: 100px; color: red;'>0 points!</span><br><br></div>","null","delaylearn","learning","feedback_image_window","631a1897a8f28243082da8ef","odhxlDyx7tXshRX9kVVpxMZlz7r1","","","","","","","","","","","","","","","","","","","","",""
"html-keyboard-response","203","516331","0.0-84.0","","null","<div style=""font-size:100px;"">+</div>","null","delaylearn","learning","ITI","631a1897a8f28243082da8ef","odhxlDyx7tXshRX9kVVpxMZlz7r1","","","","","","","","","","","","","","","","","","","1709","",""
"html-keyboard-response","204","517133","0.0-85.0-0.0","","798.7000000476837","<div style=""display: flex; flex-direction: column; align-items: center; margin-top: -40px;""><img src=""images/pattern_4.png"" style=""width: 234px; height: 230px; margin-top: -50px;""><div style=""display: flex; justify-content: space-between; margin-top: 33px;""><img src=""images/choice_trial_9.png"" style=""width: 408px; height: 417px; margin-right: 200px;""><img src=""images/choice_trial_15.png"" style=""width: 408px; height: 417px;""></div></div>","j","delaylearn","learning","trial","631a1897a8f28243082da8ef","odhxlDyx7tXshRX9kVVpxMZlz7r1","3","images/choice_trial_9.png","images/choice_trial_15.png","images/pattern_4.png","f","j","7000","9","15","3","1","37","1","0","15","240","","","","",""
"html-keyboard-response","205","518138","0.0-85.0-1.0","","null","<div style=""display: flex; flex-direction: column; align-items: center; margin-top: -40px;""><img src=""images/pattern_4.png"" style=""width: 234px; height: 230px; margin-top: -50px;""><div style=""display: flex; justify-content: space-between; margin-top: 33px;""><img src=""images/choice_trial_15.png"" style=""width: 408px; height: 417px; margin-left:608px;""></div></div>","null","delaylearn","learning","display_response","631a1897a8f28243082da8ef","odhxlDyx7tXshRX9kVVpxMZlz7r1","","","","","","","","","","","","","","","","","chosen stimuli: images/choice_trial_15.png","","","",""
"html-keyboard-response","206","525142","0.0-85.0-2.0","","null","","null","delaylearn","learning","feedback_duration_window","631a1897a8f28243082da8ef","odhxlDyx7tXshRX9kVVpxMZlz7r1","","","","","","","","","","","","","","","","","","7000","","",""
"html-keyboard-response","207","526645","0.0-85.0-3.0","","null","<div style='margin:auto;width: auto; font-size: 150%'><span style='font-weight: bold; font-size: 100px; color: red;'>0 points!</span><br><br></div>","null","delaylearn","learning","feedback_image_window","631a1897a8f28243082da8ef","odhxlDyx7tXshRX9kVVpxMZlz7r1","","","","","","","","","","","","","","","","","","","","",""
"html-keyboard-response","208","528321","0.0-86.0","","null","<div style=""font-size:100px;"">+</div>","null","delaylearn","learning","ITI","631a1897a8f28243082da8ef","odhxlDyx7tXshRX9kVVpxMZlz7r1","","","","","","","","","","","","","","","","","","","1669","",""
"html-keyboard-response","209","529984","0.0-87.0-0.0","","1659.0999999642372","<div style=""display: flex; flex-direction: column; align-items: center; margin-top: -40px;""><img src=""images/pattern_7.png"" style=""width: 234px; height: 230px; margin-top: -50px;""><div style=""display: flex; justify-content: space-between; margin-top: 33px;""><img src=""images/choice_trial_6.png"" style=""width: 408px; height: 417px; margin-right: 200px;""><img src=""images/choice_trial_12.png"" style=""width: 408px; height: 417px;""></div></div>","j","delaylearn","learning","trial","631a1897a8f28243082da8ef","odhxlDyx7tXshRX9kVVpxMZlz7r1","3","images/choice_trial_6.png","images/choice_trial_12.png","images/pattern_7.png","f","f","750","6","12","6","0","38","0","0","12","240","","","","",""
"html-keyboard-response","210","530989","0.0-87.0-1.0","","null","<div style=""display: flex; flex-direction: column; align-items: center; margin-top: -40px;""><img src=""images/pattern_7.png"" style=""width: 234px; height: 230px; margin-top: -50px;""><div style=""display: flex; justify-content: space-between; margin-top: 33px;""><img src=""images/choice_trial_12.png"" style=""width: 408px; height: 417px; margin-left:608px;""></div></div>","null","delaylearn","learning","display_response","631a1897a8f28243082da8ef","odhxlDyx7tXshRX9kVVpxMZlz7r1","","","","","","","","","","","","","","","","","chosen stimuli: images/choice_trial_12.png","","","",""
"html-keyboard-response","211","531744","0.0-87.0-2.0","","null","","null","delaylearn","learning","feedback_duration_window","631a1897a8f28243082da8ef","odhxlDyx7tXshRX9kVVpxMZlz7r1","","","","","","","","","","","","","","","","","","750","","",""
"html-keyboard-response","212","533250","0.0-87.0-3.0","","null","<div style='margin:auto;width: auto; font-size: 150%'><span style='font-weight: bold; font-size: 100px; color: red;'>0 points!</span><br><br></div>","null","delaylearn","learning","feedback_image_window","631a1897a8f28243082da8ef","odhxlDyx7tXshRX9kVVpxMZlz7r1","","","","","","","","","","","","","","","","","","","","",""
"html-keyboard-response","213","534827","0.0-88.0","","null","<div style=""font-size:100px;"">+</div>","null","delaylearn","learning","ITI","631a1897a8f28243082da8ef","odhxlDyx7tXshRX9kVVpxMZlz7r1","","","","","","","","","","","","","","","","","","","1570","",""
"html-keyboard-response","214","535975","0.0-89.0-0.0","","1144.3999999761581","<div style=""display: flex; flex-direction: column; align-items: center; margin-top: -40px;""><img src=""images/pattern_1.png"" style=""width: 234px; height: 230px; margin-top: -50px;""><div style=""display: flex; justify-content: space-between; margin-top: 33px;""><img src=""images/choice_trial_14.png"" style=""width: 408px; height: 417px; margin-right: 200px;""><img src=""images/choice_trial_8.png"" style=""width: 408px; height: 417px;""></div></div>","f","delaylearn","learning","trial","631a1897a8f28243082da8ef","odhxlDyx7tXshRX9kVVpxMZlz7r1","3","images/choice_trial_14.png","images/choice_trial_8.png","images/pattern_1.png","f","f","7000","14","8","1","0","39","1","1","14","250","","","","",""
"html-keyboard-response","215","536983","0.0-89.0-1.0","","null","<div style=""display: flex; flex-direction: column; align-items: center; margin-top: -40px;""><img src=""images/pattern_1.png"" style=""width: 234px; height: 230px; margin-top: -50px;""><div style=""display: flex; justify-content: space-between; margin-top: 33px;""><img src=""images/choice_trial_14.png"" style=""width: 408px; height: 417px; margin-right: 608px;""></div></div>","null","delaylearn","learning","display_response","631a1897a8f28243082da8ef","odhxlDyx7tXshRX9kVVpxMZlz7r1","","","","","","","","","","","","","","","","","chosen stimuli: images/choice_trial_14.png","","","",""
"html-keyboard-response","216","543990","0.0-89.0-2.0","","null","","null","delaylearn","learning","feedback_duration_window","631a1897a8f28243082da8ef","odhxlDyx7tXshRX9kVVpxMZlz7r1","","","","","","","","","","","","","","","","","","7000","","",""
"html-keyboard-response","217","545495","0.0-89.0-3.0","","null","<div style='margin:auto;width: auto; font-size: 150%'><span style='font-weight: bold; font-size: 100px; color: green;'>+10 points!</span><br><br></div>","null","delaylearn","learning","feedback_image_window","631a1897a8f28243082da8ef","odhxlDyx7tXshRX9kVVpxMZlz7r1","","","","","","","","","","","","","","","","","","","","",""
"html-keyboard-response","218","545996","0.0-90.0-0.0","","null","","null","","","mood_trial_fixation","","","","","","","","","","","","","","","","","","","","","","",""
"lmdlab-html-vas-response","219","549753","0.0-90.0-1.0","","2748","How happy are you right now?","0.19333328247070314","delaylearn","learning","mood_trial","631a1897a8f28243082da8ef","odhxlDyx7tXshRX9kVVpxMZlz7r1","","","","","","","","","","","","","","","","","","","","[""Very unhappy"",""Very happy""]",""
"html-keyboard-response","220","551350","0.0-91.0","","null","<div style=""font-size:100px;"">+</div>","null","delaylearn","learning","ITI","631a1897a8f28243082da8ef","odhxlDyx7tXshRX9kVVpxMZlz7r1","","","","","","","","","","","","","","","","","","","1591","",""
