"trial_type","trial_index","time_elapsed","internal_node_id","participant","rt","stimulus","response","exp_name","exp_stage","test_part","subjectID","databaseID","counterbal","choice_stimuli_1","choice_stimuli_2","pattern_stimuli","rewarded_answer","correct_answer","feedback_duration_times","stim_left","stim_right","pair","leftright_counter","trial","response_correct","response_rewarded","chosen_stim","counter","displayed_choice","feedback_durations","ITI_duration","labels","rest_warning"
"pavlovia","0","548","0.0-0.0","","","","","","","","","","","","","","","","","","","","","","","","","","","","","",""
"html-keyboard-response","1","3558","0.0-1.0","","null","<div style=""font-size:100px;"">+</div>","null","delaylearn","learning","pre_fixation","5bbe9a9570f8df0001c13f11","","","","","","","","","","","","","","","","","","","","","",""
"html-keyboard-response","2","4944","0.0-2.0-0.0","","1383","<div style=""display: flex; flex-direction: column; align-items: center; margin-top: -40px;""><img src=""images/demo_images/pattern_1.png"" style=""width: 234px; height: 230px; margin-top: -50px;""><div style=""display: flex; justify-content: space-between; margin-top: 33px;""><img src=""images/demo_images/choice_trial_2.png"" style=""width: 408px; height: 417px; margin-right: 200px;""><img src=""images/demo_images/choice_trial_1.png"" style=""width: 408px; height: 417px;""></div></div>","f","delaylearn","learning","trial","5bbe9a9570f8df0001c13f11","BkGNxM74MINbK8H03C8qA7Xo5JE3","5","images/demo_images/choice_trial_2.png","images/demo_images/choice_trial_1.png","images/demo_images/pattern_1.png","j","j","3000","2","1","20","1","1","0","0","2","0","","","","",""
"html-keyboard-response","3","5953","0.0-2.0-1.0","","null","<div style=""display: flex; flex-direction: column; align-items: center; margin-top: -40px;""><img src=""images/demo_images/pattern_1.png"" style=""width: 234px; height: 230px; margin-top: -50px;""><div style=""display: flex; justify-content: space-between; margin-top: 33px;""><img src=""images/demo_images/choice_trial_2.png"" style=""width: 408px; height: 417px; margin-right: 608px;""></div></div>","null","delaylearn","learning","display_response","5bbe9a9570f8df0001c13f11","BkGNxM74MINbK8H03C8qA7Xo5JE3","","","","","","","","","","","","","","","","","chosen stimuli: images/demo_images/choice_trial_2.png","","","",""
"html-keyboard-response","4","8966","0.0-2.0-2.0","","null","","null","delaylearn","learning","feedback_duration_window","5bbe9a9570f8df0001c13f11","BkGNxM74MINbK8H03C8qA7Xo5JE3","","","","","","","","","","","","","","","","","","3000","","",""
"html-keyboard-response","5","10470","0.0-2.0-3.0","","null","<div style='margin:auto;width: auto; font-size: 150%'><span style='font-weight: bold; font-size: 100px; color: red;'>0 points!</span><br><br></div>","null","delaylearn","learning","feedback_image_window","5bbe9a9570f8df0001c13f11","BkGNxM74MINbK8H03C8qA7Xo5JE3","","","","","","","","","","","","","","","","","","","","",""
"html-keyboard-response","6","12084","0.0-3.0","","null","<div style=""font-size:100px;"">+</div>","null","delaylearn","learning","ITI","5bbe9a9570f8df0001c13f11","BkGNxM74MINbK8H03C8qA7Xo5JE3","","","","","","","","","","","","","","","","","","","1607","",""
"html-keyboard-response","7","13398","0.0-4.0-0.0","","1315","<div style=""display: flex; flex-direction: column; align-items: center; margin-top: -40px;""><img src=""images/demo_images/pattern_1.png"" style=""width: 234px; height: 230px; margin-top: -50px;""><div style=""display: flex; justify-content: space-between; margin-top: 33px;""><img src=""images/demo_images/choice_trial_2.png"" style=""width: 408px; height: 417px; margin-right: 200px;""><img src=""images/demo_images/choice_trial_1.png"" style=""width: 408px; height: 417px;""></div></div>","j","delaylearn","learning","trial","5bbe9a9570f8df0001c13f11","BkGNxM74MINbK8H03C8qA7Xo5JE3","5","images/demo_images/choice_trial_2.png","images/demo_images/choice_trial_1.png","images/demo_images/pattern_1.png","j","j","3000","2","1","20","1","2","1","1","1","10","","","","",""
"html-keyboard-response","8","14401","0.0-4.0-1.0","","null","<div style=""display: flex; flex-direction: column; align-items: center; margin-top: -40px;""><img src=""images/demo_images/pattern_1.png"" style=""width: 234px; height: 230px; margin-top: -50px;""><div style=""display: flex; justify-content: space-between; margin-top: 33px;""><img src=""images/demo_images/choice_trial_1.png"" style=""width: 408px; height: 417px; margin-left:608px;""></div></div>","null","delaylearn","learning","display_response","5bbe9a9570f8df0001c13f11","BkGNxM74MINbK8H03C8qA7Xo5JE3","","","","","","","","","","","","","","","","","chosen stimuli: images/demo_images/choice_trial_1.png","","","",""
"html-keyboard-response","9","17410","0.0-4.0-2.0","","null","","null","delaylearn","learning","feedback_duration_window","5bbe9a9570f8df0001c13f11","BkGNxM74MINbK8H03C8qA7Xo5JE3","","","","","","","","","","","","","","","","","","3000","","",""
"html-keyboard-response","10","18919","0.0-4.0-3.0","","null","<div style='margin:auto;width: auto; font-size: 150%'><span style='font-weight: bold; font-size: 100px; color: green;'>+10 points!</span><br><br></div>","null","delaylearn","learning","feedback_image_window","5bbe9a9570f8df0001c13f11","BkGNxM74MINbK8H03C8qA7Xo5JE3","","","","","","","","","","","","","","","","","","","","",""
"html-keyboard-response","11","20839","0.0-5.0","","null","<div style=""font-size:100px;"">+</div>","null","delaylearn","learning","ITI","5bbe9a9570f8df0001c13f11","BkGNxM74MINbK8H03C8qA7Xo5JE3","","","","","","","","","","","","","","","","","","","1904","",""
"html-keyboard-response","12","22239","0.0-6.0-0.0","","1398","<div style=""display: flex; flex-direction: column; align-items: center; margin-top: -40px;""><img src=""images/demo_images/pattern_1.png"" style=""width: 234px; height: 230px; margin-top: -50px;""><div style=""display: flex; justify-content: space-between; margin-top: 33px;""><img src=""images/demo_images/choice_trial_1.png"" style=""width: 408px; height: 417px; margin-right: 200px;""><img src=""images/demo_images/choice_trial_2.png"" style=""width: 408px; height: 417px;""></div></div>","f","delaylearn","learning","trial","5bbe9a9570f8df0001c13f11","BkGNxM74MINbK8H03C8qA7Xo5JE3","5","images/demo_images/choice_trial_1.png","images/demo_images/choice_trial_2.png","images/demo_images/pattern_1.png","j","f","3000","1","2","20","0","3","1","0","1","10","","","","",""
"html-keyboard-response","13","23246","0.0-6.0-1.0","","null","<div style=""display: flex; flex-direction: column; align-items: center; margin-top: -40px;""><img src=""images/demo_images/pattern_1.png"" style=""width: 234px; height: 230px; margin-top: -50px;""><div style=""display: flex; justify-content: space-between; margin-top: 33px;""><img src=""images/demo_images/choice_trial_1.png"" style=""width: 408px; height: 417px; margin-right: 608px;""></div></div>","null","delaylearn","learning","display_response","5bbe9a9570f8df0001c13f11","BkGNxM74MINbK8H03C8qA7Xo5JE3","","","","","","","","","","","","","","","","","chosen stimuli: images/demo_images/choice_trial_1.png","","","",""
"html-keyboard-response","14","26255","0.0-6.0-2.0","","null","","null","delaylearn","learning","feedback_duration_window","5bbe9a9570f8df0001c13f11","BkGNxM74MINbK8H03C8qA7Xo5JE3","","","","","","","","","","","","","","","","","","3000","","",""
"html-keyboard-response","15","27760","0.0-6.0-3.0","","null","<div style='margin:auto;width: auto; font-size: 150%'><span style='font-weight: bold; font-size: 100px; color: red;'>0 points!</span><br><br></div>","null","delaylearn","learning","feedback_image_window","5bbe9a9570f8df0001c13f11","BkGNxM74MINbK8H03C8qA7Xo5JE3","","","","","","","","","","","","","","","","","","","","",""
"html-keyboard-response","16","29387","0.0-7.0","","null","<div style=""font-size:100px;"">+</div>","null","delaylearn","learning","ITI","5bbe9a9570f8df0001c13f11","BkGNxM74MINbK8H03C8qA7Xo5JE3","","","","","","","","","","","","","","","","","","","1614","",""
"html-keyboard-response","17","30314","0.0-8.0-0.0","","926","<div style=""display: flex; flex-direction: column; align-items: center; margin-top: -40px;""><img src=""images/demo_images/pattern_1.png"" style=""width: 234px; height: 230px; margin-top: -50px;""><div style=""display: flex; justify-content: space-between; margin-top: 33px;""><img src=""images/demo_images/choice_trial_1.png"" style=""width: 408px; height: 417px; margin-right: 200px;""><img src=""images/demo_images/choice_trial_2.png"" style=""width: 408px; height: 417px;""></div></div>","j","delaylearn","learning","trial","5bbe9a9570f8df0001c13f11","BkGNxM74MINbK8H03C8qA7Xo5JE3","5","images/demo_images/choice_trial_1.png","images/demo_images/choice_trial_2.png","images/demo_images/pattern_1.png","f","f","3000","1","2","20","0","4","0","0","2","10","","","","",""
"html-keyboard-response","18","31324","0.0-8.0-1.0","","null","<div style=""display: flex; flex-direction: column; align-items: center; margin-top: -40px;""><img src=""images/demo_images/pattern_1.png"" style=""width: 234px; height: 230px; margin-top: -50px;""><div style=""display: flex; justify-content: space-between; margin-top: 33px;""><img src=""images/demo_images/choice_trial_2.png"" style=""width: 408px; height: 417px; margin-left:608px;""></div></div>","null","delaylearn","learning","display_response","5bbe9a9570f8df0001c13f11","BkGNxM74MINbK8H03C8qA7Xo5JE3","","","","","","","","","","","","","","","","","chosen stimuli: images/demo_images/choice_trial_2.png","","","",""
"html-keyboard-response","19","34333","0.0-8.0-2.0","","null","","null","delaylearn","learning","feedback_duration_window","5bbe9a9570f8df0001c13f11","BkGNxM74MINbK8H03C8qA7Xo5JE3","","","","","","","","","","","","","","","","","","3000","","",""
"html-keyboard-response","20","35841","0.0-8.0-3.0","","null","<div style='margin:auto;width: auto; font-size: 150%'><span style='font-weight: bold; font-size: 100px; color: red;'>0 points!</span><br><br></div>","null","delaylearn","learning","feedback_image_window","5bbe9a9570f8df0001c13f11","BkGNxM74MINbK8H03C8qA7Xo5JE3","","","","","","","","","","","","","","","","","","","","",""
"html-keyboard-response","21","36354","0.0-9.0-0.0","","null","","null","","","mood_trial_fixation","","","","","","","","","","","","","","","","","","","","","","",""
"lmdlab-html-vas-response","22","40724","0.0-9.0-1.0","","3356","How happy are you right now?","0.4722222222222222","delaylearn","learning","mood_trial","5bbe9a9570f8df0001c13f11","BkGNxM74MINbK8H03C8qA7Xo5JE3","","","","","","","","","","","","","","","","","","","","[""Very unhappy"",""Very happy""]",""
"html-keyboard-response","23","43201","0.0-10.0","","null","<div style=""font-size:100px;"">+</div>","null","delaylearn","learning","ITI","5bbe9a9570f8df0001c13f11","BkGNxM74MINbK8H03C8qA7Xo5JE3","","","","","","","","","","","","","","","","","","","2457","",""
"html-keyboard-response","24","44344","0.0-11.0-0.0","","1140","<div style=""display: flex; flex-direction: column; align-items: center; margin-top: -40px;""><img src=""images/demo_images/pattern_1.png"" style=""width: 234px; height: 230px; margin-top: -50px;""><div style=""display: flex; justify-content: space-between; margin-top: 33px;""><img src=""images/demo_images/choice_trial_2.png"" style=""width: 408px; height: 417px; margin-right: 200px;""><img src=""images/demo_images/choice_trial_1.png"" style=""width: 408px; height: 417px;""></div></div>","f","delaylearn","learning","trial","5bbe9a9570f8df0001c13f11","BkGNxM74MINbK8H03C8qA7Xo5JE3","5","images/demo_images/choice_trial_2.png","images/demo_images/choice_trial_1.png","images/demo_images/pattern_1.png","j","j","3000","2","1","20","1","5","0","0","2","10","","","","",""
"html-keyboard-response","25","45347","0.0-11.0-1.0","","null","<div style=""display: flex; flex-direction: column; align-items: center; margin-top: -40px;""><img src=""images/demo_images/pattern_1.png"" style=""width: 234px; height: 230px; margin-top: -50px;""><div style=""display: flex; justify-content: space-between; margin-top: 33px;""><img src=""images/demo_images/choice_trial_2.png"" style=""width: 408px; height: 417px; margin-right: 608px;""></div></div>","null","delaylearn","learning","display_response","5bbe9a9570f8df0001c13f11","BkGNxM74MINbK8H03C8qA7Xo5JE3","","","","","","","","","","","","","","","","","chosen stimuli: images/demo_images/choice_trial_2.png","","","",""
"html-keyboard-response","26","48359","0.0-11.0-2.0","","null","","null","delaylearn","learning","feedback_duration_window","5bbe9a9570f8df0001c13f11","BkGNxM74MINbK8H03C8qA7Xo5JE3","","","","","","","","","","","","","","","","","","3000","","",""
"html-keyboard-response","27","49867","0.0-11.0-3.0","","null","<div style='margin:auto;width: auto; font-size: 150%'><span style='font-weight: bold; font-size: 100px; color: red;'>0 points!</span><br><br></div>","null","delaylearn","learning","feedback_image_window","5bbe9a9570f8df0001c13f11","BkGNxM74MINbK8H03C8qA7Xo5JE3","","","","","","","","","","","","","","","","","","","","",""
"html-keyboard-response","28","51875","0.0-12.0","","null","<div style=""font-size:100px;"">+</div>","null","delaylearn","learning","ITI","5bbe9a9570f8df0001c13f11","BkGNxM74MINbK8H03C8qA7Xo5JE3","","","","","","","","","","","","","","","","","","","1997","",""
"html-keyboard-response","29","52890","0.0-13.0-0.0","","1014","<div style=""display: flex; flex-direction: column; align-items: center; margin-top: -40px;""><img src=""images/demo_images/pattern_1.png"" style=""width: 234px; height: 230px; margin-top: -50px;""><div style=""display: flex; justify-content: space-between; margin-top: 33px;""><img src=""images/demo_images/choice_trial_1.png"" style=""width: 408px; height: 417px; margin-right: 200px;""><img src=""images/demo_images/choice_trial_2.png"" style=""width: 408px; height: 417px;""></div></div>","j","delaylearn","learning","trial","5bbe9a9570f8df0001c13f11","BkGNxM74MINbK8H03C8qA7Xo5JE3","5","images/demo_images/choice_trial_1.png","images/demo_images/choice_trial_2.png","images/demo_images/pattern_1.png","f","f","3000","1","2","20","0","6","0","0","2","10","","","","",""
"html-keyboard-response","30","53895","0.0-13.0-1.0","","null","<div style=""display: flex; flex-direction: column; align-items: center; margin-top: -40px;""><img src=""images/demo_images/pattern_1.png"" style=""width: 234px; height: 230px; margin-top: -50px;""><div style=""display: flex; justify-content: space-between; margin-top: 33px;""><img src=""images/demo_images/choice_trial_2.png"" style=""width: 408px; height: 417px; margin-left:608px;""></div></div>","null","delaylearn","learning","display_response","5bbe9a9570f8df0001c13f11","BkGNxM74MINbK8H03C8qA7Xo5JE3","","","","","","","","","","","","","","","","","chosen stimuli: images/demo_images/choice_trial_2.png","","","",""
"html-keyboard-response","31","56910","0.0-13.0-2.0","","null","","null","delaylearn","learning","feedback_duration_window","5bbe9a9570f8df0001c13f11","BkGNxM74MINbK8H03C8qA7Xo5JE3","","","","","","","","","","","","","","","","","","3000","","",""
"html-keyboard-response","32","58417","0.0-13.0-3.0","","null","<div style='margin:auto;width: auto; font-size: 150%'><span style='font-weight: bold; font-size: 100px; color: red;'>0 points!</span><br><br></div>","null","delaylearn","learning","feedback_image_window","5bbe9a9570f8df0001c13f11","BkGNxM74MINbK8H03C8qA7Xo5JE3","","","","","","","","","","","","","","","","","","","","",""
"html-keyboard-response","33","59955","0.0-14.0","","null","<div style=""font-size:100px;"">+</div>","null","delaylearn","learning","ITI","5bbe9a9570f8df0001c13f11","BkGNxM74MINbK8H03C8qA7Xo5JE3","","","","","","","","","","","","","","","","","","","1524","",""
"html-keyboard-response","34","60916","0.0-15.0-0.0","","960","<div style=""display: flex; flex-direction: column; align-items: center; margin-top: -40px;""><img src=""images/demo_images/pattern_1.png"" style=""width: 234px; height: 230px; margin-top: -50px;""><div style=""display: flex; justify-content: space-between; margin-top: 33px;""><img src=""images/demo_images/choice_trial_2.png"" style=""width: 408px; height: 417px; margin-right: 200px;""><img src=""images/demo_images/choice_trial_1.png"" style=""width: 408px; height: 417px;""></div></div>","j","delaylearn","learning","trial","5bbe9a9570f8df0001c13f11","BkGNxM74MINbK8H03C8qA7Xo5JE3","5","images/demo_images/choice_trial_2.png","images/demo_images/choice_trial_1.png","images/demo_images/pattern_1.png","j","j","3000","2","1","20","1","7","1","1","1","20","","","","",""
"html-keyboard-response","35","61926","0.0-15.0-1.0","","null","<div style=""display: flex; flex-direction: column; align-items: center; margin-top: -40px;""><img src=""images/demo_images/pattern_1.png"" style=""width: 234px; height: 230px; margin-top: -50px;""><div style=""display: flex; justify-content: space-between; margin-top: 33px;""><img src=""images/demo_images/choice_trial_1.png"" style=""width: 408px; height: 417px; margin-left:608px;""></div></div>","null","delaylearn","learning","display_response","5bbe9a9570f8df0001c13f11","BkGNxM74MINbK8H03C8qA7Xo5JE3","","","","","","","","","","","","","","","","","chosen stimuli: images/demo_images/choice_trial_1.png","","","",""
"html-keyboard-response","36","64926","0.0-15.0-2.0","","null","","null","delaylearn","learning","feedback_duration_window","5bbe9a9570f8df0001c13f11","BkGNxM74MINbK8H03C8qA7Xo5JE3","","","","","","","","","","","","","","","","","","3000","","",""
"html-keyboard-response","37","66436","0.0-15.0-3.0","","null","<div style='margin:auto;width: auto; font-size: 150%'><span style='font-weight: bold; font-size: 100px; color: green;'>+10 points!</span><br><br></div>","null","delaylearn","learning","feedback_image_window","5bbe9a9570f8df0001c13f11","BkGNxM74MINbK8H03C8qA7Xo5JE3","","","","","","","","","","","","","","","","","","","","",""
"html-keyboard-response","38","68458","0.0-16.0","","null","<div style=""font-size:100px;"">+</div>","null","delaylearn","learning","ITI","5bbe9a9570f8df0001c13f11","BkGNxM74MINbK8H03C8qA7Xo5JE3","","","","","","","","","","","","","","","","","","","2005","",""
"html-keyboard-response","39","69345","0.0-17.0-0.0","","885","<div style=""display: flex; flex-direction: column; align-items: center; margin-top: -40px;""><img src=""images/demo_images/pattern_1.png"" style=""width: 234px; height: 230px; margin-top: -50px;""><div style=""display: flex; justify-content: space-between; margin-top: 33px;""><img src=""images/demo_images/choice_trial_1.png"" style=""width: 408px; height: 417px; margin-right: 200px;""><img src=""images/demo_images/choice_trial_2.png"" style=""width: 408px; height: 417px;""></div></div>","f","delaylearn","learning","trial","5bbe9a9570f8df0001c13f11","BkGNxM74MINbK8H03C8qA7Xo5JE3","5","images/demo_images/choice_trial_1.png","images/demo_images/choice_trial_2.png","images/demo_images/pattern_1.png","f","f","3000","1","2","20","0","8","1","1","1","30","","","","",""
"html-keyboard-response","40","70349","0.0-17.0-1.0","","null","<div style=""display: flex; flex-direction: column; align-items: center; margin-top: -40px;""><img src=""images/demo_images/pattern_1.png"" style=""width: 234px; height: 230px; margin-top: -50px;""><div style=""display: flex; justify-content: space-between; margin-top: 33px;""><img src=""images/demo_images/choice_trial_1.png"" style=""width: 408px; height: 417px; margin-right: 608px;""></div></div>","null","delaylearn","learning","display_response","5bbe9a9570f8df0001c13f11","BkGNxM74MINbK8H03C8qA7Xo5JE3","","","","","","","","","","","","","","","","","chosen stimuli: images/demo_images/choice_trial_1.png","","","",""
"html-keyboard-response","41","73354","0.0-17.0-2.0","","null","","null","delaylearn","learning","feedback_duration_window","5bbe9a9570f8df0001c13f11","BkGNxM74MINbK8H03C8qA7Xo5JE3","","","","","","","","","","","","","","","","","","3000","","",""
"html-keyboard-response","42","74868","0.0-17.0-3.0","","null","<div style='margin:auto;width: auto; font-size: 150%'><span style='font-weight: bold; font-size: 100px; color: green;'>+10 points!</span><br><br></div>","null","delaylearn","learning","feedback_image_window","5bbe9a9570f8df0001c13f11","BkGNxM74MINbK8H03C8qA7Xo5JE3","","","","","","","","","","","","","","","","","","","","",""
"html-button-response","43","81027","0.0-18.0","","6158","
  <div style=""display: flex; align-items: center; justify-content: center; height: 80vh;"">
  <div>
          <img src=""images/inst_demo_finish.png"" style=""width: 80vw; height:auto;"">
          <br><br>
      </div>
      <br><br>
  </div>","0","","","","","","","","","","","","","","","","","","","","","","","","","",""
"html-keyboard-response","44","87341","0.0-19.0","","6312","
  <div style=""display: flex; align-items: center; justify-content: center; height: 80vh;"">
  <div>
          <img src=""images/inst_6.png"" style=""width: 80vw; height:auto;"">
          <br><br>
      </div>
      <br><br>
  </div>","f","","","","","","","","","","","","","","","","","","","","","","","","","",""
"html-keyboard-response","45","90346","0.0-20.0","","null","<div style=""font-size:100px;"">+</div>","null","delaylearn","learning","pre_fixation","5bbe9a9570f8df0001c13f11","","","","","","","","","","","","","","","","","","","","","",""
"html-keyboard-response","46","92640","0.0-21.0","","null","<div style=""font-size:100px;"">+</div>","null","delaylearn","learning","ITI","5bbe9a9570f8df0001c13f11","BkGNxM74MINbK8H03C8qA7Xo5JE3","","","","","","","","","","","","","","","","","","","2286","",""
"html-keyboard-response","47","94407","0.0-22.0-0.0","","1763","<div style=""display: flex; flex-direction: column; align-items: center; margin-top: -40px;""><img src=""images/pattern_3.png"" style=""width: 234px; height: 230px; margin-top: -50px;""><div style=""display: flex; justify-content: space-between; margin-top: 33px;""><img src=""images/choice_trial_16.png"" style=""width: 408px; height: 417px; margin-right: 200px;""><img src=""images/choice_trial_2.png"" style=""width: 408px; height: 417px;""></div></div>","f","delaylearn","learning","trial","5bbe9a9570f8df0001c13f11","BkGNxM74MINbK8H03C8qA7Xo5JE3","5","images/choice_trial_16.png","images/choice_trial_2.png","images/pattern_3.png","f","f","7000","16","2","2","0","9","1","1","16","40","","","","",""
"html-keyboard-response","48","95412","0.0-22.0-1.0","","null","<div style=""display: flex; flex-direction: column; align-items: center; margin-top: -40px;""><img src=""images/pattern_3.png"" style=""width: 234px; height: 230px; margin-top: -50px;""><div style=""display: flex; justify-content: space-between; margin-top: 33px;""><img src=""images/choice_trial_16.png"" style=""width: 408px; height: 417px; margin-right: 608px;""></div></div>","null","delaylearn","learning","display_response","5bbe9a9570f8df0001c13f11","BkGNxM74MINbK8H03C8qA7Xo5JE3","","","","","","","","","","","","","","","","","chosen stimuli: images/choice_trial_16.png","","","",""
"html-keyboard-response","49","102427","0.0-22.0-2.0","","null","","null","delaylearn","learning","feedback_duration_window","5bbe9a9570f8df0001c13f11","BkGNxM74MINbK8H03C8qA7Xo5JE3","","","","","","","","","","","","","","","","","","7000","","",""
"html-keyboard-response","50","103939","0.0-22.0-3.0","","null","<div style='margin:auto;width: auto; font-size: 150%'><span style='font-weight: bold; font-size: 100px; color: green;'>+10 points!</span><br><br></div>","null","delaylearn","learning","feedback_image_window","5bbe9a9570f8df0001c13f11","BkGNxM74MINbK8H03C8qA7Xo5JE3","","","","","","","","","","","","","","","","","","","","",""
"html-keyboard-response","51","106351","0.0-23.0","","null","<div style=""font-size:100px;"">+</div>","null","delaylearn","learning","ITI","5bbe9a9570f8df0001c13f11","BkGNxM74MINbK8H03C8qA7Xo5JE3","","","","","","","","","","","","","","","","","","","2409","",""
"html-keyboard-response","52","108706","0.0-24.0-0.0","","2354","<div style=""display: flex; flex-direction: column; align-items: center; margin-top: -40px;""><img src=""images/pattern_7.png"" style=""width: 234px; height: 230px; margin-top: -50px;""><div style=""display: flex; justify-content: space-between; margin-top: 33px;""><img src=""images/choice_trial_10.png"" style=""width: 408px; height: 417px; margin-right: 200px;""><img src=""images/choice_trial_8.png"" style=""width: 408px; height: 417px;""></div></div>","f","delaylearn","learning","trial","5bbe9a9570f8df0001c13f11","BkGNxM74MINbK8H03C8qA7Xo5JE3","5","images/choice_trial_10.png","images/choice_trial_8.png","images/pattern_7.png","j","j","750","10","8","6","1","10","0","0","10","40","","","","",""
"html-keyboard-response","53","109720","0.0-24.0-1.0","","null","<div style=""display: flex; flex-direction: column; align-items: center; margin-top: -40px;""><img src=""images/pattern_7.png"" style=""width: 234px; height: 230px; margin-top: -50px;""><div style=""display: flex; justify-content: space-between; margin-top: 33px;""><img src=""images/choice_trial_10.png"" style=""width: 408px; height: 417px; margin-right: 608px;""></div></div>","null","delaylearn","learning","display_response","5bbe9a9570f8df0001c13f11","BkGNxM74MINbK8H03C8qA7Xo5JE3","","","","","","","","","","","","","","","","","chosen stimuli: images/choice_trial_10.png","","","",""
"html-keyboard-response","54","110484","0.0-24.0-2.0","","null","","null","delaylearn","learning","feedback_duration_window","5bbe9a9570f8df0001c13f11","BkGNxM74MINbK8H03C8qA7Xo5JE3","","","","","","","","","","","","","","","","","","750","","",""
"html-keyboard-response","55","111991","0.0-24.0-3.0","","null","<div style='margin:auto;width: auto; font-size: 150%'><span style='font-weight: bold; font-size: 100px; color: red;'>0 points!</span><br><br></div>","null","delaylearn","learning","feedback_image_window","5bbe9a9570f8df0001c13f11","BkGNxM74MINbK8H03C8qA7Xo5JE3","","","","","","","","","","","","","","","","","","","","",""
"html-keyboard-response","56","113653","0.0-25.0","","null","<div style=""font-size:100px;"">+</div>","null","delaylearn","learning","ITI","5bbe9a9570f8df0001c13f11","BkGNxM74MINbK8H03C8qA7Xo5JE3","","","","","","","","","","","","","","","","","","","1660","",""
"html-keyboard-response","57","115140","0.0-26.0-0.0","","1485","<div style=""display: flex; flex-direction: column; align-items: center; margin-top: -40px;""><img src=""images/pattern_4.png"" style=""width: 234px; height: 230px; margin-top: -50px;""><div style=""display: flex; justify-content: space-between; margin-top: 33px;""><img src=""images/choice_trial_11.png"" style=""width: 408px; height: 417px; margin-right: 200px;""><img src=""images/choice_trial_4.png"" style=""width: 408px; height: 417px;""></div></div>","j","delaylearn","learning","trial","5bbe9a9570f8df0001c13f11","BkGNxM74MINbK8H03C8qA7Xo5JE3","5","images/choice_trial_11.png","images/choice_trial_4.png","images/pattern_4.png","f","f","7000","11","4","3","0","11","0","0","4","40","","","","",""
"html-keyboard-response","58","116155","0.0-26.0-1.0","","null","<div style=""display: flex; flex-direction: column; align-items: center; margin-top: -40px;""><img src=""images/pattern_4.png"" style=""width: 234px; height: 230px; margin-top: -50px;""><div style=""display: flex; justify-content: space-between; margin-top: 33px;""><img src=""images/choice_trial_4.png"" style=""width: 408px; height: 417px; margin-left:608px;""></div></div>","null","delaylearn","learning","display_response","5bbe9a9570f8df0001c13f11","BkGNxM74MINbK8H03C8qA7Xo5JE3","","","","","","","","","","","","","","","","","chosen stimuli: images/choice_trial_4.png","","","",""
"html-keyboard-response","59","123163","0.0-26.0-2.0","","null","","null","delaylearn","learning","feedback_duration_window","5bbe9a9570f8df0001c13f11","BkGNxM74MINbK8H03C8qA7Xo5JE3","","","","","","","","","","","","","","","","","","7000","","",""
"html-keyboard-response","60","124668","0.0-26.0-3.0","","null","<div style='margin:auto;width: auto; font-size: 150%'><span style='font-weight: bold; font-size: 100px; color: red;'>0 points!</span><br><br></div>","null","delaylearn","learning","feedback_image_window","5bbe9a9570f8df0001c13f11","BkGNxM74MINbK8H03C8qA7Xo5JE3","","","","","","","","","","","","","","","","","","","","",""
"html-keyboard-response","61","126928","0.0-27.0","","null","<div style=""font-size:100px;"">+</div>","null","delaylearn","learning","ITI","5bbe9a9570f8df0001c13f11","BkGNxM74MINbK8H03C8qA7Xo5JE3","","","","","","","","","","","","","","","","","","","2255","",""
"html-keyboard-response","62","129116","0.0-28.0-0.0","","2186","<div style=""display: flex; flex-direction: column; align-items: center; margin-top: -40px;""><img src=""images/pattern_5.png"" style=""width: 234px; height: 230px; margin-top: -50px;""><div style=""display: flex; justify-content: space-between; margin-top: 33px;""><img src=""images/choice_trial_13.png"" style=""width: 408px; height: 417px; margin-right: 200px;""><img src=""images/choice_trial_7.png"" style=""width: 408px; height: 417px;""></div></div>","j","delaylearn","learning","trial","5bbe9a9570f8df0001c13f11","BkGNxM74MINbK8H03C8qA7Xo5JE3","5","images/choice_trial_13.png","images/choice_trial_7.png","images/pattern_5.png","j","j","750","13","7","4","1","12","1","1","7","50","","","","",""
"html-keyboard-response","63","130118","0.0-28.0-1.0","","null","<div style=""display: flex; flex-direction: column; align-items: center; margin-top: -40px;""><img src=""images/pattern_5.png"" style=""width: 234px; height: 230px; margin-top: -50px;""><div style=""display: flex; justify-content: space-between; margin-top: 33px;""><img src=""images/choice_trial_7.png"" style=""width: 408px; height: 417px; margin-left:608px;""></div></div>","null","delaylearn","learning","display_response","5bbe9a9570f8df0001c13f11","BkGNxM74MINbK8H03C8qA7Xo5JE3","","","","","","","","","","","","","","","","","chosen stimuli: images/choice_trial_7.png","","","",""
"html-keyboard-response","64","130876","0.0-28.0-2.0","","null","","null","delaylearn","learning","feedback_duration_window","5bbe9a9570f8df0001c13f11","BkGNxM74MINbK8H03C8qA7Xo5JE3","","","","","","","","","","","","","","","","","","750","","",""
"html-keyboard-response","65","132392","0.0-28.0-3.0","","null","<div style='margin:auto;width: auto; font-size: 150%'><span style='font-weight: bold; font-size: 100px; color: green;'>+10 points!</span><br><br></div>","null","delaylearn","learning","feedback_image_window","5bbe9a9570f8df0001c13f11","BkGNxM74MINbK8H03C8qA7Xo5JE3","","","","","","","","","","","","","","","","","","","","",""
"html-keyboard-response","66","134128","0.0-29.0","","null","<div style=""font-size:100px;"">+</div>","null","delaylearn","learning","ITI","5bbe9a9570f8df0001c13f11","BkGNxM74MINbK8H03C8qA7Xo5JE3","","","","","","","","","","","","","","","","","","","1680","",""
"html-keyboard-response","67","136053","0.0-30.0-0.0","","1924","<div style=""display: flex; flex-direction: column; align-items: center; margin-top: -40px;""><img src=""images/pattern_6.png"" style=""width: 234px; height: 230px; margin-top: -50px;""><div style=""display: flex; justify-content: space-between; margin-top: 33px;""><img src=""images/choice_trial_14.png"" style=""width: 408px; height: 417px; margin-right: 200px;""><img src=""images/choice_trial_9.png"" style=""width: 408px; height: 417px;""></div></div>","j","delaylearn","learning","trial","5bbe9a9570f8df0001c13f11","BkGNxM74MINbK8H03C8qA7Xo5JE3","5","images/choice_trial_14.png","images/choice_trial_9.png","images/pattern_6.png","j","f","750","14","9","5","0","13","0","1","9","60","","","","",""
"html-keyboard-response","68","137058","0.0-30.0-1.0","","null","<div style=""display: flex; flex-direction: column; align-items: center; margin-top: -40px;""><img src=""images/pattern_6.png"" style=""width: 234px; height: 230px; margin-top: -50px;""><div style=""display: flex; justify-content: space-between; margin-top: 33px;""><img src=""images/choice_trial_9.png"" style=""width: 408px; height: 417px; margin-left:608px;""></div></div>","null","delaylearn","learning","display_response","5bbe9a9570f8df0001c13f11","BkGNxM74MINbK8H03C8qA7Xo5JE3","","","","","","","","","","","","","","","","","chosen stimuli: images/choice_trial_9.png","","","",""
"html-keyboard-response","69","137819","0.0-30.0-2.0","","null","","null","delaylearn","learning","feedback_duration_window","5bbe9a9570f8df0001c13f11","BkGNxM74MINbK8H03C8qA7Xo5JE3","","","","","","","","","","","","","","","","","","750","","",""
"html-keyboard-response","70","139328","0.0-30.0-3.0","","null","<div style='margin:auto;width: auto; font-size: 150%'><span style='font-weight: bold; font-size: 100px; color: green;'>+10 points!</span><br><br></div>","null","delaylearn","learning","feedback_image_window","5bbe9a9570f8df0001c13f11","BkGNxM74MINbK8H03C8qA7Xo5JE3","","","","","","","","","","","","","","","","","","","","",""
"html-keyboard-response","71","139838","0.0-31.0-0.0","","null","","null","","","mood_trial_fixation","","","","","","","","","","","","","","","","","","","","","","",""
"lmdlab-html-vas-response","72","143876","0.0-31.0-1.0","","3027","How happy are you right now?","0.49382716049382713","delaylearn","learning","mood_trial","5bbe9a9570f8df0001c13f11","BkGNxM74MINbK8H03C8qA7Xo5JE3","","","","","","","","","","","","","","","","","","","","[""Very unhappy"",""Very happy""]",""
"html-keyboard-response","73","145577","0.0-32.0","","null","<div style=""font-size:100px;"">+</div>","null","delaylearn","learning","ITI","5bbe9a9570f8df0001c13f11","BkGNxM74MINbK8H03C8qA7Xo5JE3","","","","","","","","","","","","","","","","","","","1698","",""
"html-keyboard-response","74","147434","0.0-33.0-0.0","","1854","<div style=""display: flex; flex-direction: column; align-items: center; margin-top: -40px;""><img src=""images/pattern_1.png"" style=""width: 234px; height: 230px; margin-top: -50px;""><div style=""display: flex; justify-content: space-between; margin-top: 33px;""><img src=""images/choice_trial_15.png"" style=""width: 408px; height: 417px; margin-right: 200px;""><img src=""images/choice_trial_6.png"" style=""width: 408px; height: 417px;""></div></div>","f","delaylearn","learning","trial","5bbe9a9570f8df0001c13f11","BkGNxM74MINbK8H03C8qA7Xo5JE3","5","images/choice_trial_15.png","images/choice_trial_6.png","images/pattern_1.png","j","j","7000","15","6","1","1","14","0","0","15","60","","","","",""
"html-keyboard-response","75","148441","0.0-33.0-1.0","","null","<div style=""display: flex; flex-direction: column; align-items: center; margin-top: -40px;""><img src=""images/pattern_1.png"" style=""width: 234px; height: 230px; margin-top: -50px;""><div style=""display: flex; justify-content: space-between; margin-top: 33px;""><img src=""images/choice_trial_15.png"" style=""width: 408px; height: 417px; margin-right: 608px;""></div></div>","null","delaylearn","learning","display_response","5bbe9a9570f8df0001c13f11","BkGNxM74MINbK8H03C8qA7Xo5JE3","","","","","","","","","","","","","","","","","chosen stimuli: images/choice_trial_15.png","","","",""
"html-keyboard-response","76","155456","0.0-33.0-2.0","","null","","null","delaylearn","learning","feedback_duration_window","5bbe9a9570f8df0001c13f11","BkGNxM74MINbK8H03C8qA7Xo5JE3","","","","","","","","","","","","","","","","","","7000","","",""
"html-keyboard-response","77","156960","0.0-33.0-3.0","","null","<div style='margin:auto;width: auto; font-size: 150%'><span style='font-weight: bold; font-size: 100px; color: red;'>0 points!</span><br><br></div>","null","delaylearn","learning","feedback_image_window","5bbe9a9570f8df0001c13f11","BkGNxM74MINbK8H03C8qA7Xo5JE3","","","","","","","","","","","","","","","","","","","","",""
"html-keyboard-response","78","159327","0.0-34.0","","null","<div style=""font-size:100px;"">+</div>","null","delaylearn","learning","ITI","5bbe9a9570f8df0001c13f11","BkGNxM74MINbK8H03C8qA7Xo5JE3","","","","","","","","","","","","","","","","","","","2361","",""
"html-keyboard-response","79","161730","0.0-35.0-0.0","","2401","<div style=""display: flex; flex-direction: column; align-items: center; margin-top: -40px;""><img src=""images/pattern_3.png"" style=""width: 234px; height: 230px; margin-top: -50px;""><div style=""display: flex; justify-content: space-between; margin-top: 33px;""><img src=""images/choice_trial_2.png"" style=""width: 408px; height: 417px; margin-right: 200px;""><img src=""images/choice_trial_16.png"" style=""width: 408px; height: 417px;""></div></div>","j","delaylearn","learning","trial","5bbe9a9570f8df0001c13f11","BkGNxM74MINbK8H03C8qA7Xo5JE3","5","images/choice_trial_2.png","images/choice_trial_16.png","images/pattern_3.png","f","j","7000","2","16","2","1","15","1","0","16","60","","","","",""
"html-keyboard-response","80","162738","0.0-35.0-1.0","","null","<div style=""display: flex; flex-direction: column; align-items: center; margin-top: -40px;""><img src=""images/pattern_3.png"" style=""width: 234px; height: 230px; margin-top: -50px;""><div style=""display: flex; justify-content: space-between; margin-top: 33px;""><img src=""images/choice_trial_16.png"" style=""width: 408px; height: 417px; margin-left:608px;""></div></div>","null","delaylearn","learning","display_response","5bbe9a9570f8df0001c13f11","BkGNxM74MINbK8H03C8qA7Xo5JE3","","","","","","","","","","","","","","","","","chosen stimuli: images/choice_trial_16.png","","","",""
"html-keyboard-response","81","169746","0.0-35.0-2.0","","null","","null","delaylearn","learning","feedback_duration_window","5bbe9a9570f8df0001c13f11","BkGNxM74MINbK8H03C8qA7Xo5JE3","","","","","","","","","","","","","","","","","","7000","","",""
"html-keyboard-response","82","171252","0.0-35.0-3.0","","null","<div style='margin:auto;width: auto; font-size: 150%'><span style='font-weight: bold; font-size: 100px; color: red;'>0 points!</span><br><br></div>","null","delaylearn","learning","feedback_image_window","5bbe9a9570f8df0001c13f11","BkGNxM74MINbK8H03C8qA7Xo5JE3","","","","","","","","","","","","","","","","","","","","",""
"html-keyboard-response","83","173703","0.0-36.0","","null","<div style=""font-size:100px;"">+</div>","null","delaylearn","learning","ITI","5bbe9a9570f8df0001c13f11","BkGNxM74MINbK8H03C8qA7Xo5JE3","","","","","","","","","","","","","","","","","","","2450","",""
"html-keyboard-response","84","175606","0.0-37.0-0.0","","1900","<div style=""display: flex; flex-direction: column; align-items: center; margin-top: -40px;""><img src=""images/pattern_5.png"" style=""width: 234px; height: 230px; margin-top: -50px;""><div style=""display: flex; justify-content: space-between; margin-top: 33px;""><img src=""images/choice_trial_7.png"" style=""width: 408px; height: 417px; margin-right: 200px;""><img src=""images/choice_trial_13.png"" style=""width: 408px; height: 417px;""></div></div>","f","delaylearn","learning","trial","5bbe9a9570f8df0001c13f11","BkGNxM74MINbK8H03C8qA7Xo5JE3","5","images/choice_trial_7.png","images/choice_trial_13.png","images/pattern_5.png","f","f","750","7","13","4","0","16","1","1","7","70","","","","",""
"html-keyboard-response","85","176614","0.0-37.0-1.0","","null","<div style=""display: flex; flex-direction: column; align-items: center; margin-top: -40px;""><img src=""images/pattern_5.png"" style=""width: 234px; height: 230px; margin-top: -50px;""><div style=""display: flex; justify-content: space-between; margin-top: 33px;""><img src=""images/choice_trial_7.png"" style=""width: 408px; height: 417px; margin-right: 608px;""></div></div>","null","delaylearn","learning","display_response","5bbe9a9570f8df0001c13f11","BkGNxM74MINbK8H03C8qA7Xo5JE3","","","","","","","","","","","","","","","","","chosen stimuli: images/choice_trial_7.png","","","",""
"html-keyboard-response","86","177375","0.0-37.0-2.0","","null","","null","delaylearn","learning","feedback_duration_window","5bbe9a9570f8df0001c13f11","BkGNxM74MINbK8H03C8qA7Xo5JE3","","","","","","","","","","","","","","","","","","750","","",""
"html-keyboard-response","87","178883","0.0-37.0-3.0","","null","<div style='margin:auto;width: auto; font-size: 150%'><span style='font-weight: bold; font-size: 100px; color: green;'>+10 points!</span><br><br></div>","null","delaylearn","learning","feedback_image_window","5bbe9a9570f8df0001c13f11","BkGNxM74MINbK8H03C8qA7Xo5JE3","","","","","","","","","","","","","","","","","","","","",""
"html-keyboard-response","88","179398","0.0-38.0-0.0","","null","","null","","","mood_trial_fixation","","","","","","","","","","","","","","","","","","","","","","",""
"lmdlab-html-vas-response","89","182860","0.0-38.0-1.0","","2454","How happy are you right now?","0.48148148148148145","delaylearn","learning","mood_trial","5bbe9a9570f8df0001c13f11","BkGNxM74MINbK8H03C8qA7Xo5JE3","","","","","","","","","","","","","","","","","","","","[""Very unhappy"",""Very happy""]",""
"html-keyboard-response","90","184418","0.0-39.0","","null","<div style=""font-size:100px;"">+</div>","null","delaylearn","learning","ITI","5bbe9a9570f8df0001c13f11","BkGNxM74MINbK8H03C8qA7Xo5JE3","","","","","","","","","","","","","","","","","","","1556","",""
"html-keyboard-response","91","186005","0.0-40.0-0.0","","1584","<div style=""display: flex; flex-direction: column; align-items: center; margin-top: -40px;""><img src=""images/pattern_6.png"" style=""width: 234px; height: 230px; margin-top: -50px;""><div style=""display: flex; justify-content: space-between; margin-top: 33px;""><img src=""images/choice_trial_14.png"" style=""width: 408px; height: 417px; margin-right: 200px;""><img src=""images/choice_trial_9.png"" style=""width: 408px; height: 417px;""></div></div>","j","delaylearn","learning","trial","5bbe9a9570f8df0001c13f11","BkGNxM74MINbK8H03C8qA7Xo5JE3","5","images/choice_trial_14.png","images/choice_trial_9.png","images/pattern_6.png","f","f","750","14","9","5","0","17","0","0","9","70","","","","",""
"html-keyboard-response","92","187009","0.0-40.0-1.0","","null","<div style=""display: flex; flex-direction: column; align-items: center; margin-top: -40px;""><img src=""images/pattern_6.png"" style=""width: 234px; height: 230px; margin-top: -50px;""><div style=""display: flex; justify-content: space-between; margin-top: 33px;""><img src=""images/choice_trial_9.png"" style=""width: 408px; height: 417px; margin-left:608px;""></div></div>","null","delaylearn","learning","display_response","5bbe9a9570f8df0001c13f11","BkGNxM74MINbK8H03C8qA7Xo5JE3","","","","","","","","","","","","","","","","","chosen stimuli: images/choice_trial_9.png","","","",""
"html-keyboard-response","93","187770","0.0-40.0-2.0","","null","","null","delaylearn","learning","feedback_duration_window","5bbe9a9570f8df0001c13f11","BkGNxM74MINbK8H03C8qA7Xo5JE3","","","","","","","","","","","","","","","","","","750","","",""
"html-keyboard-response","94","189279","0.0-40.0-3.0","","null","<div style='margin:auto;width: auto; font-size: 150%'><span style='font-weight: bold; font-size: 100px; color: red;'>0 points!</span><br><br></div>","null","delaylearn","learning","feedback_image_window","5bbe9a9570f8df0001c13f11","BkGNxM74MINbK8H03C8qA7Xo5JE3","","","","","","","","","","","","","","","","","","","","",""
"html-keyboard-response","95","190988","0.0-41.0","","null","<div style=""font-size:100px;"">+</div>","null","delaylearn","learning","ITI","5bbe9a9570f8df0001c13f11","BkGNxM74MINbK8H03C8qA7Xo5JE3","","","","","","","","","","","","","","","","","","","1707","",""
"html-keyboard-response","96","193076","0.0-42.0-0.0","","2087","<div style=""display: flex; flex-direction: column; align-items: center; margin-top: -40px;""><img src=""images/pattern_4.png"" style=""width: 234px; height: 230px; margin-top: -50px;""><div style=""display: flex; justify-content: space-between; margin-top: 33px;""><img src=""images/choice_trial_4.png"" style=""width: 408px; height: 417px; margin-right: 200px;""><img src=""images/choice_trial_11.png"" style=""width: 408px; height: 417px;""></div></div>","f","delaylearn","learning","trial","5bbe9a9570f8df0001c13f11","BkGNxM74MINbK8H03C8qA7Xo5JE3","5","images/choice_trial_4.png","images/choice_trial_11.png","images/pattern_4.png","j","j","7000","4","11","3","1","18","0","0","4","70","","","","",""
"html-keyboard-response","97","194088","0.0-42.0-1.0","","null","<div style=""display: flex; flex-direction: column; align-items: center; margin-top: -40px;""><img src=""images/pattern_4.png"" style=""width: 234px; height: 230px; margin-top: -50px;""><div style=""display: flex; justify-content: space-between; margin-top: 33px;""><img src=""images/choice_trial_4.png"" style=""width: 408px; height: 417px; margin-right: 608px;""></div></div>","null","delaylearn","learning","display_response","5bbe9a9570f8df0001c13f11","BkGNxM74MINbK8H03C8qA7Xo5JE3","","","","","","","","","","","","","","","","","chosen stimuli: images/choice_trial_4.png","","","",""
"html-keyboard-response","98","201101","0.0-42.0-2.0","","null","","null","delaylearn","learning","feedback_duration_window","5bbe9a9570f8df0001c13f11","BkGNxM74MINbK8H03C8qA7Xo5JE3","","","","","","","","","","","","","","","","","","7000","","",""
"html-keyboard-response","99","202607","0.0-42.0-3.0","","null","<div style='margin:auto;width: auto; font-size: 150%'><span style='font-weight: bold; font-size: 100px; color: red;'>0 points!</span><br><br></div>","null","delaylearn","learning","feedback_image_window","5bbe9a9570f8df0001c13f11","BkGNxM74MINbK8H03C8qA7Xo5JE3","","","","","","","","","","","","","","","","","","","","",""
"html-keyboard-response","100","205092","0.0-43.0","","null","<div style=""font-size:100px;"">+</div>","null","delaylearn","learning","ITI","5bbe9a9570f8df0001c13f11","BkGNxM74MINbK8H03C8qA7Xo5JE3","","","","","","","","","","","","","","","","","","","2480","",""
"html-keyboard-response","101","207332","0.0-44.0-0.0","","2236","<div style=""display: flex; flex-direction: column; align-items: center; margin-top: -40px;""><img src=""images/pattern_7.png"" style=""width: 234px; height: 230px; margin-top: -50px;""><div style=""display: flex; justify-content: space-between; margin-top: 33px;""><img src=""images/choice_trial_8.png"" style=""width: 408px; height: 417px; margin-right: 200px;""><img src=""images/choice_trial_10.png"" style=""width: 408px; height: 417px;""></div></div>","j","delaylearn","learning","trial","5bbe9a9570f8df0001c13f11","BkGNxM74MINbK8H03C8qA7Xo5JE3","5","images/choice_trial_8.png","images/choice_trial_10.png","images/pattern_7.png","j","f","750","8","10","6","0","19","0","1","10","80","","","","",""
"html-keyboard-response","102","208335","0.0-44.0-1.0","","null","<div style=""display: flex; flex-direction: column; align-items: center; margin-top: -40px;""><img src=""images/pattern_7.png"" style=""width: 234px; height: 230px; margin-top: -50px;""><div style=""display: flex; justify-content: space-between; margin-top: 33px;""><img src=""images/choice_trial_10.png"" style=""width: 408px; height: 417px; margin-left:608px;""></div></div>","null","delaylearn","learning","display_response","5bbe9a9570f8df0001c13f11","BkGNxM74MINbK8H03C8qA7Xo5JE3","","","","","","","","","","","","","","","","","chosen stimuli: images/choice_trial_10.png","","","",""
"html-keyboard-response","103","209092","0.0-44.0-2.0","","null","","null","delaylearn","learning","feedback_duration_window","5bbe9a9570f8df0001c13f11","BkGNxM74MINbK8H03C8qA7Xo5JE3","","","","","","","","","","","","","","","","","","750","","",""
"html-keyboard-response","104","210644","0.0-44.0-3.0","","null","<div style='margin:auto;width: auto; font-size: 150%'><span style='font-weight: bold; font-size: 100px; color: green;'>+10 points!</span><br><br></div>","null","delaylearn","learning","feedback_image_window","5bbe9a9570f8df0001c13f11","BkGNxM74MINbK8H03C8qA7Xo5JE3","","","","","","","","","","","","","","","","","","","","",""
"html-keyboard-response","105","212157","0.0-45.0","","null","<div style=""font-size:100px;"">+</div>","null","delaylearn","learning","ITI","5bbe9a9570f8df0001c13f11","BkGNxM74MINbK8H03C8qA7Xo5JE3","","","","","","","","","","","","","","","","","","","1512","",""
"html-keyboard-response","106","213866","0.0-46.0-0.0","","1706","<div style=""display: flex; flex-direction: column; align-items: center; margin-top: -40px;""><img src=""images/pattern_1.png"" style=""width: 234px; height: 230px; margin-top: -50px;""><div style=""display: flex; justify-content: space-between; margin-top: 33px;""><img src=""images/choice_trial_6.png"" style=""width: 408px; height: 417px; margin-right: 200px;""><img src=""images/choice_trial_15.png"" style=""width: 408px; height: 417px;""></div></div>","f","delaylearn","learning","trial","5bbe9a9570f8df0001c13f11","BkGNxM74MINbK8H03C8qA7Xo5JE3","5","images/choice_trial_6.png","images/choice_trial_15.png","images/pattern_1.png","f","f","7000","6","15","1","0","20","1","1","6","90","","","","",""
"html-keyboard-response","107","214874","0.0-46.0-1.0","","null","<div style=""display: flex; flex-direction: column; align-items: center; margin-top: -40px;""><img src=""images/pattern_1.png"" style=""width: 234px; height: 230px; margin-top: -50px;""><div style=""display: flex; justify-content: space-between; margin-top: 33px;""><img src=""images/choice_trial_6.png"" style=""width: 408px; height: 417px; margin-right: 608px;""></div></div>","null","delaylearn","learning","display_response","5bbe9a9570f8df0001c13f11","BkGNxM74MINbK8H03C8qA7Xo5JE3","","","","","","","","","","","","","","","","","chosen stimuli: images/choice_trial_6.png","","","",""
"html-keyboard-response","108","221878","0.0-46.0-2.0","","null","","null","delaylearn","learning","feedback_duration_window","5bbe9a9570f8df0001c13f11","BkGNxM74MINbK8H03C8qA7Xo5JE3","","","","","","","","","","","","","","","","","","7000","","",""
"html-keyboard-response","109","223381","0.0-46.0-3.0","","null","<div style='margin:auto;width: auto; font-size: 150%'><span style='font-weight: bold; font-size: 100px; color: green;'>+10 points!</span><br><br></div>","null","delaylearn","learning","feedback_image_window","5bbe9a9570f8df0001c13f11","BkGNxM74MINbK8H03C8qA7Xo5JE3","","","","","","","","","","","","","","","","","","","","",""
"html-keyboard-response","110","225684","0.0-47.0","","null","<div style=""font-size:100px;"">+</div>","null","delaylearn","learning","ITI","5bbe9a9570f8df0001c13f11","BkGNxM74MINbK8H03C8qA7Xo5JE3","","","","","","","","","","","","","","","","","","","2292","",""
"html-keyboard-response","111","227388","0.0-48.0-0.0","","1701","<div style=""display: flex; flex-direction: column; align-items: center; margin-top: -40px;""><img src=""images/pattern_6.png"" style=""width: 234px; height: 230px; margin-top: -50px;""><div style=""display: flex; justify-content: space-between; margin-top: 33px;""><img src=""images/choice_trial_9.png"" style=""width: 408px; height: 417px; margin-right: 200px;""><img src=""images/choice_trial_14.png"" style=""width: 408px; height: 417px;""></div></div>","j","delaylearn","learning","trial","5bbe9a9570f8df0001c13f11","BkGNxM74MINbK8H03C8qA7Xo5JE3","5","images/choice_trial_9.png","images/choice_trial_14.png","images/pattern_6.png","j","j","750","9","14","5","1","21","1","1","14","100","","","","",""
"html-keyboard-response","112","228401","0.0-48.0-1.0","","null","<div style=""display: flex; flex-direction: column; align-items: center; margin-top: -40px;""><img src=""images/pattern_6.png"" style=""width: 234px; height: 230px; margin-top: -50px;""><div style=""display: flex; justify-content: space-between; margin-top: 33px;""><img src=""images/choice_trial_14.png"" style=""width: 408px; height: 417px; margin-left:608px;""></div></div>","null","delaylearn","learning","display_response","5bbe9a9570f8df0001c13f11","BkGNxM74MINbK8H03C8qA7Xo5JE3","","","","","","","","","","","","","","","","","chosen stimuli: images/choice_trial_14.png","","","",""
"html-keyboard-response","113","229161","0.0-48.0-2.0","","null","","null","delaylearn","learning","feedback_duration_window","5bbe9a9570f8df0001c13f11","BkGNxM74MINbK8H03C8qA7Xo5JE3","","","","","","","","","","","","","","","","","","750","","",""
"html-keyboard-response","114","230664","0.0-48.0-3.0","","null","<div style='margin:auto;width: auto; font-size: 150%'><span style='font-weight: bold; font-size: 100px; color: green;'>+10 points!</span><br><br></div>","null","delaylearn","learning","feedback_image_window","5bbe9a9570f8df0001c13f11","BkGNxM74MINbK8H03C8qA7Xo5JE3","","","","","","","","","","","","","","","","","","","","",""
"html-keyboard-response","115","232594","0.0-49.0","","null","<div style=""font-size:100px;"">+</div>","null","delaylearn","learning","ITI","5bbe9a9570f8df0001c13f11","BkGNxM74MINbK8H03C8qA7Xo5JE3","","","","","","","","","","","","","","","","","","","1919","",""
"html-keyboard-response","116","235147","0.0-50.0-0.0","","2550","<div style=""display: flex; flex-direction: column; align-items: center; margin-top: -40px;""><img src=""images/pattern_4.png"" style=""width: 234px; height: 230px; margin-top: -50px;""><div style=""display: flex; justify-content: space-between; margin-top: 33px;""><img src=""images/choice_trial_11.png"" style=""width: 408px; height: 417px; margin-right: 200px;""><img src=""images/choice_trial_4.png"" style=""width: 408px; height: 417px;""></div></div>","f","delaylearn","learning","trial","5bbe9a9570f8df0001c13f11","BkGNxM74MINbK8H03C8qA7Xo5JE3","5","images/choice_trial_11.png","images/choice_trial_4.png","images/pattern_4.png","f","f","7000","11","4","3","0","22","1","1","11","110","","","","",""
"html-keyboard-response","117","236158","0.0-50.0-1.0","","null","<div style=""display: flex; flex-direction: column; align-items: center; margin-top: -40px;""><img src=""images/pattern_4.png"" style=""width: 234px; height: 230px; margin-top: -50px;""><div style=""display: flex; justify-content: space-between; margin-top: 33px;""><img src=""images/choice_trial_11.png"" style=""width: 408px; height: 417px; margin-right: 608px;""></div></div>","null","delaylearn","learning","display_response","5bbe9a9570f8df0001c13f11","BkGNxM74MINbK8H03C8qA7Xo5JE3","","","","","","","","","","","","","","","","","chosen stimuli: images/choice_trial_11.png","","","",""
"html-keyboard-response","118","243167","0.0-50.0-2.0","","null","","null","delaylearn","learning","feedback_duration_window","5bbe9a9570f8df0001c13f11","BkGNxM74MINbK8H03C8qA7Xo5JE3","","","","","","","","","","","","","","","","","","7000","","",""
"html-keyboard-response","119","244670","0.0-50.0-3.0","","null","<div style='margin:auto;width: auto; font-size: 150%'><span style='font-weight: bold; font-size: 100px; color: green;'>+10 points!</span><br><br></div>","null","delaylearn","learning","feedback_image_window","5bbe9a9570f8df0001c13f11","BkGNxM74MINbK8H03C8qA7Xo5JE3","","","","","","","","","","","","","","","","","","","","",""
"html-keyboard-response","120","245179","0.0-51.0-0.0","","null","","null","","","mood_trial_fixation","","","","","","","","","","","","","","","","","","","","","","",""
"lmdlab-html-vas-response","121","248936","0.0-51.0-1.0","","2744","How happy are you right now?","0.6018518518518519","delaylearn","learning","mood_trial","5bbe9a9570f8df0001c13f11","BkGNxM74MINbK8H03C8qA7Xo5JE3","","","","","","","","","","","","","","","","","","","","[""Very unhappy"",""Very happy""]",""
"html-keyboard-response","122","250540","0.0-52.0","","null","<div style=""font-size:100px;"">+</div>","null","delaylearn","learning","ITI","5bbe9a9570f8df0001c13f11","BkGNxM74MINbK8H03C8qA7Xo5JE3","","","","","","","","","","","","","","","","","","","1590","",""
"html-keyboard-response","123","252921","0.0-53.0-0.0","","2376","<div style=""display: flex; flex-direction: column; align-items: center; margin-top: -40px;""><img src=""images/pattern_7.png"" style=""width: 234px; height: 230px; margin-top: -50px;""><div style=""display: flex; justify-content: space-between; margin-top: 33px;""><img src=""images/choice_trial_10.png"" style=""width: 408px; height: 417px; margin-right: 200px;""><img src=""images/choice_trial_8.png"" style=""width: 408px; height: 417px;""></div></div>","f","delaylearn","learning","trial","5bbe9a9570f8df0001c13f11","BkGNxM74MINbK8H03C8qA7Xo5JE3","5","images/choice_trial_10.png","images/choice_trial_8.png","images/pattern_7.png","j","j","750","10","8","6","1","23","0","0","10","110","","","","",""
"html-keyboard-response","124","253940","0.0-53.0-1.0","","null","<div style=""display: flex; flex-direction: column; align-items: center; margin-top: -40px;""><img src=""images/pattern_7.png"" style=""width: 234px; height: 230px; margin-top: -50px;""><div style=""display: flex; justify-content: space-between; margin-top: 33px;""><img src=""images/choice_trial_10.png"" style=""width: 408px; height: 417px; margin-right: 608px;""></div></div>","null","delaylearn","learning","display_response","5bbe9a9570f8df0001c13f11","BkGNxM74MINbK8H03C8qA7Xo5JE3","","","","","","","","","","","","","","","","","chosen stimuli: images/choice_trial_10.png","","","",""
"html-keyboard-response","125","254706","0.0-53.0-2.0","","null","","null","delaylearn","learning","feedback_duration_window","5bbe9a9570f8df0001c13f11","BkGNxM74MINbK8H03C8qA7Xo5JE3","","","","","","","","","","","","","","","","","","750","","",""
"html-keyboard-response","126","256209","0.0-53.0-3.0","","null","<div style='margin:auto;width: auto; font-size: 150%'><span style='font-weight: bold; font-size: 100px; color: red;'>0 points!</span><br><br></div>","null","delaylearn","learning","feedback_image_window","5bbe9a9570f8df0001c13f11","BkGNxM74MINbK8H03C8qA7Xo5JE3","","","","","","","","","","","","","","","","","","","","",""
"html-keyboard-response","127","258034","0.0-54.0","","null","<div style=""font-size:100px;"">+</div>","null","delaylearn","learning","ITI","5bbe9a9570f8df0001c13f11","BkGNxM74MINbK8H03C8qA7Xo5JE3","","","","","","","","","","","","","","","","","","","1819","",""
"html-keyboard-response","128","259708","0.0-55.0-0.0","","1673","<div style=""display: flex; flex-direction: column; align-items: center; margin-top: -40px;""><img src=""images/pattern_1.png"" style=""width: 234px; height: 230px; margin-top: -50px;""><div style=""display: flex; justify-content: space-between; margin-top: 33px;""><img src=""images/choice_trial_15.png"" style=""width: 408px; height: 417px; margin-right: 200px;""><img src=""images/choice_trial_6.png"" style=""width: 408px; height: 417px;""></div></div>","j","delaylearn","learning","trial","5bbe9a9570f8df0001c13f11","BkGNxM74MINbK8H03C8qA7Xo5JE3","5","images/choice_trial_15.png","images/choice_trial_6.png","images/pattern_1.png","f","j","7000","15","6","1","1","24","1","0","6","110","","","","",""
"html-keyboard-response","129","260717","0.0-55.0-1.0","","null","<div style=""display: flex; flex-direction: column; align-items: center; margin-top: -40px;""><img src=""images/pattern_1.png"" style=""width: 234px; height: 230px; margin-top: -50px;""><div style=""display: flex; justify-content: space-between; margin-top: 33px;""><img src=""images/choice_trial_6.png"" style=""width: 408px; height: 417px; margin-left:608px;""></div></div>","null","delaylearn","learning","display_response","5bbe9a9570f8df0001c13f11","BkGNxM74MINbK8H03C8qA7Xo5JE3","","","","","","","","","","","","","","","","","chosen stimuli: images/choice_trial_6.png","","","",""
"html-keyboard-response","130","267719","0.0-55.0-2.0","","null","","null","delaylearn","learning","feedback_duration_window","5bbe9a9570f8df0001c13f11","BkGNxM74MINbK8H03C8qA7Xo5JE3","","","","","","","","","","","","","","","","","","7000","","",""
"html-keyboard-response","131","269234","0.0-55.0-3.0","","null","<div style='margin:auto;width: auto; font-size: 150%'><span style='font-weight: bold; font-size: 100px; color: red;'>0 points!</span><br><br></div>","null","delaylearn","learning","feedback_image_window","5bbe9a9570f8df0001c13f11","BkGNxM74MINbK8H03C8qA7Xo5JE3","","","","","","","","","","","","","","","","","","","","",""
"html-keyboard-response","132","270895","0.0-56.0","","null","<div style=""font-size:100px;"">+</div>","null","delaylearn","learning","ITI","5bbe9a9570f8df0001c13f11","BkGNxM74MINbK8H03C8qA7Xo5JE3","","","","","","","","","","","","","","","","","","","1648","",""
"html-keyboard-response","133","273855","0.0-57.0-0.0","","2949","<div style=""display: flex; flex-direction: column; align-items: center; margin-top: -40px;""><img src=""images/pattern_5.png"" style=""width: 234px; height: 230px; margin-top: -50px;""><div style=""display: flex; justify-content: space-between; margin-top: 33px;""><img src=""images/choice_trial_13.png"" style=""width: 408px; height: 417px; margin-right: 200px;""><img src=""images/choice_trial_7.png"" style=""width: 408px; height: 417px;""></div></div>","j","delaylearn","learning","trial","5bbe9a9570f8df0001c13f11","BkGNxM74MINbK8H03C8qA7Xo5JE3","5","images/choice_trial_13.png","images/choice_trial_7.png","images/pattern_5.png","j","j","750","13","7","4","1","25","1","1","7","120","","","","",""
"html-keyboard-response","134","274866","0.0-57.0-1.0","","null","<div style=""display: flex; flex-direction: column; align-items: center; margin-top: -40px;""><img src=""images/pattern_5.png"" style=""width: 234px; height: 230px; margin-top: -50px;""><div style=""display: flex; justify-content: space-between; margin-top: 33px;""><img src=""images/choice_trial_7.png"" style=""width: 408px; height: 417px; margin-left:608px;""></div></div>","null","delaylearn","learning","display_response","5bbe9a9570f8df0001c13f11","BkGNxM74MINbK8H03C8qA7Xo5JE3","","","","","","","","","","","","","","","","","chosen stimuli: images/choice_trial_7.png","","","",""
"html-keyboard-response","135","275629","0.0-57.0-2.0","","null","","null","delaylearn","learning","feedback_duration_window","5bbe9a9570f8df0001c13f11","BkGNxM74MINbK8H03C8qA7Xo5JE3","","","","","","","","","","","","","","","","","","750","","",""
"html-keyboard-response","136","277132","0.0-57.0-3.0","","null","<div style='margin:auto;width: auto; font-size: 150%'><span style='font-weight: bold; font-size: 100px; color: green;'>+10 points!</span><br><br></div>","null","delaylearn","learning","feedback_image_window","5bbe9a9570f8df0001c13f11","BkGNxM74MINbK8H03C8qA7Xo5JE3","","","","","","","","","","","","","","","","","","","","",""
"html-keyboard-response","137","279185","0.0-58.0","","null","<div style=""font-size:100px;"">+</div>","null","delaylearn","learning","ITI","5bbe9a9570f8df0001c13f11","BkGNxM74MINbK8H03C8qA7Xo5JE3","","","","","","","","","","","","","","","","","","","2045","",""
"html-keyboard-response","138","282090","0.0-59.0-0.0","","2901","<div style=""display: flex; flex-direction: column; align-items: center; margin-top: -40px;""><img src=""images/pattern_3.png"" style=""width: 234px; height: 230px; margin-top: -50px;""><div style=""display: flex; justify-content: space-between; margin-top: 33px;""><img src=""images/choice_trial_2.png"" style=""width: 408px; height: 417px; margin-right: 200px;""><img src=""images/choice_trial_16.png"" style=""width: 408px; height: 417px;""></div></div>","f","delaylearn","learning","trial","5bbe9a9570f8df0001c13f11","BkGNxM74MINbK8H03C8qA7Xo5JE3","5","images/choice_trial_2.png","images/choice_trial_16.png","images/pattern_3.png","j","j","7000","2","16","2","1","26","0","0","2","120","","","","",""
"html-keyboard-response","139","283100","0.0-59.0-1.0","","null","<div style=""display: flex; flex-direction: column; align-items: center; margin-top: -40px;""><img src=""images/pattern_3.png"" style=""width: 234px; height: 230px; margin-top: -50px;""><div style=""display: flex; justify-content: space-between; margin-top: 33px;""><img src=""images/choice_trial_2.png"" style=""width: 408px; height: 417px; margin-right: 608px;""></div></div>","null","delaylearn","learning","display_response","5bbe9a9570f8df0001c13f11","BkGNxM74MINbK8H03C8qA7Xo5JE3","","","","","","","","","","","","","","","","","chosen stimuli: images/choice_trial_2.png","","","",""
"html-keyboard-response","140","290113","0.0-59.0-2.0","","null","","null","delaylearn","learning","feedback_duration_window","5bbe9a9570f8df0001c13f11","BkGNxM74MINbK8H03C8qA7Xo5JE3","","","","","","","","","","","","","","","","","","7000","","",""
"html-keyboard-response","141","291623","0.0-59.0-3.0","","null","<div style='margin:auto;width: auto; font-size: 150%'><span style='font-weight: bold; font-size: 100px; color: red;'>0 points!</span><br><br></div>","null","delaylearn","learning","feedback_image_window","5bbe9a9570f8df0001c13f11","BkGNxM74MINbK8H03C8qA7Xo5JE3","","","","","","","","","","","","","","","","","","","","",""
"lmdlab-html-vas-response","142","297141","0.0-60.0-0.0","","4011","*How <b><u>confident</u></b> are you feeling about your answers at this moment?*","0.36419753086419754","rewlearn","rate_confidence","","5bbe9a9570f8df0001c13f11","BkGNxM74MINbK8H03C8qA7Xo5JE3","","","","","","","","","","","","","","","","","","","","[""No confidence"",""Complete confidence""]",""
"lmdlab-rest-trial-limit","143","303759","0.0-60.0-1.0","","5101","<div style=""font-size:40px;""><b>Please take a break!</b><br><br><br><br><p>Great work: you earned 120 points.<br><br><br><p>You have completed part(s) 1 of 5.<br><br><br><br>When you are ready to continue<br><br><br>please click the button.</p><br><br>","0","delaylearn","learning","break","5bbe9a9570f8df0001c13f11","BkGNxM74MINbK8H03C8qA7Xo5JE3","","","","","","","","","","","","","","","","","","","","","0"
"html-keyboard-response","144","306766","0.0-60.0-2.0","","null","<div style=""font-size:100px;"">+</div>","null","delaylearn","learning","pre_fixation","5bbe9a9570f8df0001c13f11","","","","","","","","","","","","","","","","","","","","","",""
"lmdlab-html-vas-response","145","311172","0.0-60.0-3.0-0.0","","3395","How happy are you right now?","0.5092592592592593","delaylearn","learning","mood_baseline","5bbe9a9570f8df0001c13f11","BkGNxM74MINbK8H03C8qA7Xo5JE3","","","","","","","","","","","","","","","","","","","","[""Very unhappy"",""Very happy""]",""
"html-keyboard-response","146","312675","0.0-60.0-3.0-1.0","","null","","null","","","mood_baseline_fixation","","","","","","","","","","","","","","","","","","","","","","",""
"html-keyboard-response","147","314750","0.0-61.0","","null","<div style=""font-size:100px;"">+</div>","null","delaylearn","learning","ITI","5bbe9a9570f8df0001c13f11","BkGNxM74MINbK8H03C8qA7Xo5JE3","","","","","","","","","","","","","","","","","","","2065","",""
"html-keyboard-response","148","316281","0.0-62.0-0.0","","1529","<div style=""display: flex; flex-direction: column; align-items: center; margin-top: -40px;""><img src=""images/pattern_7.png"" style=""width: 234px; height: 230px; margin-top: -50px;""><div style=""display: flex; justify-content: space-between; margin-top: 33px;""><img src=""images/choice_trial_10.png"" style=""width: 408px; height: 417px; margin-right: 200px;""><img src=""images/choice_trial_8.png"" style=""width: 408px; height: 417px;""></div></div>","j","delaylearn","learning","trial","5bbe9a9570f8df0001c13f11","BkGNxM74MINbK8H03C8qA7Xo5JE3","5","images/choice_trial_10.png","images/choice_trial_8.png","images/pattern_7.png","j","j","750","10","8","6","1","27","1","1","8","130","","","","",""
"html-keyboard-response","149","317284","0.0-62.0-1.0","","null","<div style=""display: flex; flex-direction: column; align-items: center; margin-top: -40px;""><img src=""images/pattern_7.png"" style=""width: 234px; height: 230px; margin-top: -50px;""><div style=""display: flex; justify-content: space-between; margin-top: 33px;""><img src=""images/choice_trial_8.png"" style=""width: 408px; height: 417px; margin-left:608px;""></div></div>","null","delaylearn","learning","display_response","5bbe9a9570f8df0001c13f11","BkGNxM74MINbK8H03C8qA7Xo5JE3","","","","","","","","","","","","","","","","","chosen stimuli: images/choice_trial_8.png","","","",""
"html-keyboard-response","150","318042","0.0-62.0-2.0","","null","","null","delaylearn","learning","feedback_duration_window","5bbe9a9570f8df0001c13f11","BkGNxM74MINbK8H03C8qA7Xo5JE3","","","","","","","","","","","","","","","","","","750","","",""
"html-keyboard-response","151","319547","0.0-62.0-3.0","","null","<div style='margin:auto;width: auto; font-size: 150%'><span style='font-weight: bold; font-size: 100px; color: green;'>+10 points!</span><br><br></div>","null","delaylearn","learning","feedback_image_window","5bbe9a9570f8df0001c13f11","BkGNxM74MINbK8H03C8qA7Xo5JE3","","","","","","","","","","","","","","","","","","","","",""
"html-keyboard-response","152","320062","0.0-63.0-0.0","","null","","null","","","mood_trial_fixation","","","","","","","","","","","","","","","","","","","","","","",""
"lmdlab-html-vas-response","153","324749","0.0-63.0-1.0","","3682","How happy are you right now?","0.5679012345679012","delaylearn","learning","mood_trial","5bbe9a9570f8df0001c13f11","BkGNxM74MINbK8H03C8qA7Xo5JE3","","","","","","","","","","","","","","","","","","","","[""Very unhappy"",""Very happy""]",""
"html-keyboard-response","154","326452","0.0-64.0","","null","<div style=""font-size:100px;"">+</div>","null","delaylearn","learning","ITI","5bbe9a9570f8df0001c13f11","BkGNxM74MINbK8H03C8qA7Xo5JE3","","","","","","","","","","","","","","","","","","","1696","",""
"html-keyboard-response","155","328776","0.0-65.0-0.0","","2320","<div style=""display: flex; flex-direction: column; align-items: center; margin-top: -40px;""><img src=""images/pattern_1.png"" style=""width: 234px; height: 230px; margin-top: -50px;""><div style=""display: flex; justify-content: space-between; margin-top: 33px;""><img src=""images/choice_trial_6.png"" style=""width: 408px; height: 417px; margin-right: 200px;""><img src=""images/choice_trial_15.png"" style=""width: 408px; height: 417px;""></div></div>","f","delaylearn","learning","trial","5bbe9a9570f8df0001c13f11","BkGNxM74MINbK8H03C8qA7Xo5JE3","5","images/choice_trial_6.png","images/choice_trial_15.png","images/pattern_1.png","f","f","7000","6","15","1","0","28","1","1","6","140","","","","",""
"html-keyboard-response","156","329787","0.0-65.0-1.0","","null","<div style=""display: flex; flex-direction: column; align-items: center; margin-top: -40px;""><img src=""images/pattern_1.png"" style=""width: 234px; height: 230px; margin-top: -50px;""><div style=""display: flex; justify-content: space-between; margin-top: 33px;""><img src=""images/choice_trial_6.png"" style=""width: 408px; height: 417px; margin-right: 608px;""></div></div>","null","delaylearn","learning","display_response","5bbe9a9570f8df0001c13f11","BkGNxM74MINbK8H03C8qA7Xo5JE3","","","","","","","","","","","","","","","","","chosen stimuli: images/choice_trial_6.png","","","",""
"html-keyboard-response","157","336800","0.0-65.0-2.0","","null","","null","delaylearn","learning","feedback_duration_window","5bbe9a9570f8df0001c13f11","BkGNxM74MINbK8H03C8qA7Xo5JE3","","","","","","","","","","","","","","","","","","7000","","",""
"html-keyboard-response","158","338303","0.0-65.0-3.0","","null","<div style='margin:auto;width: auto; font-size: 150%'><span style='font-weight: bold; font-size: 100px; color: green;'>+10 points!</span><br><br></div>","null","delaylearn","learning","feedback_image_window","5bbe9a9570f8df0001c13f11","BkGNxM74MINbK8H03C8qA7Xo5JE3","","","","","","","","","","","","","","","","","","","","",""
"html-keyboard-response","159","340041","0.0-66.0","","null","<div style=""font-size:100px;"">+</div>","null","delaylearn","learning","ITI","5bbe9a9570f8df0001c13f11","BkGNxM74MINbK8H03C8qA7Xo5JE3","","","","","","","","","","","","","","","","","","","1736","",""
"html-keyboard-response","160","343058","0.0-67.0-0.0","","null","<div style=""display: flex; flex-direction: column; align-items: center; margin-top: -40px;""><img src=""images/pattern_5.png"" style=""width: 234px; height: 230px; margin-top: -50px;""><div style=""display: flex; justify-content: space-between; margin-top: 33px;""><img src=""images/choice_trial_7.png"" style=""width: 408px; height: 417px; margin-right: 200px;""><img src=""images/choice_trial_13.png"" style=""width: 408px; height: 417px;""></div></div>","null","delaylearn","learning","trial","5bbe9a9570f8df0001c13f11","BkGNxM74MINbK8H03C8qA7Xo5JE3","5","images/choice_trial_7.png","images/choice_trial_13.png","images/pattern_5.png","f","f","750","7","13","4","0","29","0","0","0","140","","","","",""
"html-keyboard-response","161","344067","0.0-67.0-1.0","","null","<div style='font-weight: bold; font-size: 75px; color: red;'>Missed Trial <br><br><br><br> Please respond faster</div>","null","delaylearn","learning","display_response","5bbe9a9570f8df0001c13f11","BkGNxM74MINbK8H03C8qA7Xo5JE3","","","","","","","","","","","","","","","","","Missed trial","","","",""
"html-keyboard-response","162","344083","0.0-67.0-2.0","","null","","null","delaylearn","learning","feedback_duration_window","5bbe9a9570f8df0001c13f11","BkGNxM74MINbK8H03C8qA7Xo5JE3","","","","","","","","","","","","","","","","","","0","","",""
"html-keyboard-response","163","344098","0.0-67.0-3.0","","null","","null","delaylearn","learning","feedback_image_window","5bbe9a9570f8df0001c13f11","BkGNxM74MINbK8H03C8qA7Xo5JE3","","","","","","","","","","","","","","","","","","","","",""
"html-keyboard-response","164","345933","0.0-68.0","","null","<div style=""font-size:100px;"">+</div>","null","delaylearn","learning","ITI","5bbe9a9570f8df0001c13f11","BkGNxM74MINbK8H03C8qA7Xo5JE3","","","","","","","","","","","","","","","","","","","1821","",""
"html-keyboard-response","165","347591","0.0-69.0-0.0","","1655","<div style=""display: flex; flex-direction: column; align-items: center; margin-top: -40px;""><img src=""images/pattern_6.png"" style=""width: 234px; height: 230px; margin-top: -50px;""><div style=""display: flex; justify-content: space-between; margin-top: 33px;""><img src=""images/choice_trial_9.png"" style=""width: 408px; height: 417px; margin-right: 200px;""><img src=""images/choice_trial_14.png"" style=""width: 408px; height: 417px;""></div></div>","j","delaylearn","learning","trial","5bbe9a9570f8df0001c13f11","BkGNxM74MINbK8H03C8qA7Xo5JE3","5","images/choice_trial_9.png","images/choice_trial_14.png","images/pattern_6.png","j","j","750","9","14","5","1","30","1","1","14","150","","","","",""
"html-keyboard-response","166","348597","0.0-69.0-1.0","","null","<div style=""display: flex; flex-direction: column; align-items: center; margin-top: -40px;""><img src=""images/pattern_6.png"" style=""width: 234px; height: 230px; margin-top: -50px;""><div style=""display: flex; justify-content: space-between; margin-top: 33px;""><img src=""images/choice_trial_14.png"" style=""width: 408px; height: 417px; margin-left:608px;""></div></div>","null","delaylearn","learning","display_response","5bbe9a9570f8df0001c13f11","BkGNxM74MINbK8H03C8qA7Xo5JE3","","","","","","","","","","","","","","","","","chosen stimuli: images/choice_trial_14.png","","","",""
"html-keyboard-response","167","349361","0.0-69.0-2.0","","null","","null","delaylearn","learning","feedback_duration_window","5bbe9a9570f8df0001c13f11","BkGNxM74MINbK8H03C8qA7Xo5JE3","","","","","","","","","","","","","","","","","","750","","",""
"html-keyboard-response","168","350863","0.0-69.0-3.0","","null","<div style='margin:auto;width: auto; font-size: 150%'><span style='font-weight: bold; font-size: 100px; color: green;'>+10 points!</span><br><br></div>","null","delaylearn","learning","feedback_image_window","5bbe9a9570f8df0001c13f11","BkGNxM74MINbK8H03C8qA7Xo5JE3","","","","","","","","","","","","","","","","","","","","",""
"html-keyboard-response","169","351375","0.0-70.0-0.0","","null","","null","","","mood_trial_fixation","","","","","","","","","","","","","","","","","","","","","","",""
"lmdlab-html-vas-response","170","354804","0.0-70.0-1.0","","2421","How happy are you right now?","0.6388888888888888","delaylearn","learning","mood_trial","5bbe9a9570f8df0001c13f11","BkGNxM74MINbK8H03C8qA7Xo5JE3","","","","","","","","","","","","","","","","","","","","[""Very unhappy"",""Very happy""]",""
"html-keyboard-response","171","356884","0.0-71.0","","null","<div style=""font-size:100px;"">+</div>","null","delaylearn","learning","ITI","5bbe9a9570f8df0001c13f11","BkGNxM74MINbK8H03C8qA7Xo5JE3","","","","","","","","","","","","","","","","","","","2073","",""
"html-keyboard-response","172","358578","0.0-72.0-0.0","","1690","<div style=""display: flex; flex-direction: column; align-items: center; margin-top: -40px;""><img src=""images/pattern_4.png"" style=""width: 234px; height: 230px; margin-top: -50px;""><div style=""display: flex; justify-content: space-between; margin-top: 33px;""><img src=""images/choice_trial_4.png"" style=""width: 408px; height: 417px; margin-right: 200px;""><img src=""images/choice_trial_11.png"" style=""width: 408px; height: 417px;""></div></div>","j","delaylearn","learning","trial","5bbe9a9570f8df0001c13f11","BkGNxM74MINbK8H03C8qA7Xo5JE3","5","images/choice_trial_4.png","images/choice_trial_11.png","images/pattern_4.png","j","j","7000","4","11","3","1","31","1","1","11","160","","","","",""
"html-keyboard-response","173","359590","0.0-72.0-1.0","","null","<div style=""display: flex; flex-direction: column; align-items: center; margin-top: -40px;""><img src=""images/pattern_4.png"" style=""width: 234px; height: 230px; margin-top: -50px;""><div style=""display: flex; justify-content: space-between; margin-top: 33px;""><img src=""images/choice_trial_11.png"" style=""width: 408px; height: 417px; margin-left:608px;""></div></div>","null","delaylearn","learning","display_response","5bbe9a9570f8df0001c13f11","BkGNxM74MINbK8H03C8qA7Xo5JE3","","","","","","","","","","","","","","","","","chosen stimuli: images/choice_trial_11.png","","","",""
"html-keyboard-response","174","366600","0.0-72.0-2.0","","null","","null","delaylearn","learning","feedback_duration_window","5bbe9a9570f8df0001c13f11","BkGNxM74MINbK8H03C8qA7Xo5JE3","","","","","","","","","","","","","","","","","","7000","","",""
"html-keyboard-response","175","368109","0.0-72.0-3.0","","null","<div style='margin:auto;width: auto; font-size: 150%'><span style='font-weight: bold; font-size: 100px; color: green;'>+10 points!</span><br><br></div>","null","delaylearn","learning","feedback_image_window","5bbe9a9570f8df0001c13f11","BkGNxM74MINbK8H03C8qA7Xo5JE3","","","","","","","","","","","","","","","","","","","","",""
"html-keyboard-response","176","370543","0.0-73.0","","null","<div style=""font-size:100px;"">+</div>","null","delaylearn","learning","ITI","5bbe9a9570f8df0001c13f11","BkGNxM74MINbK8H03C8qA7Xo5JE3","","","","","","","","","","","","","","","","","","","2427","",""
"html-keyboard-response","177","372917","0.0-74.0-0.0","","2371","<div style=""display: flex; flex-direction: column; align-items: center; margin-top: -40px;""><img src=""images/pattern_3.png"" style=""width: 234px; height: 230px; margin-top: -50px;""><div style=""display: flex; justify-content: space-between; margin-top: 33px;""><img src=""images/choice_trial_2.png"" style=""width: 408px; height: 417px; margin-right: 200px;""><img src=""images/choice_trial_16.png"" style=""width: 408px; height: 417px;""></div></div>","j","delaylearn","learning","trial","5bbe9a9570f8df0001c13f11","BkGNxM74MINbK8H03C8qA7Xo5JE3","5","images/choice_trial_2.png","images/choice_trial_16.png","images/pattern_3.png","j","j","7000","2","16","2","1","32","1","1","16","170","","","","",""
"html-keyboard-response","178","373919","0.0-74.0-1.0","","null","<div style=""display: flex; flex-direction: column; align-items: center; margin-top: -40px;""><img src=""images/pattern_3.png"" style=""width: 234px; height: 230px; margin-top: -50px;""><div style=""display: flex; justify-content: space-between; margin-top: 33px;""><img src=""images/choice_trial_16.png"" style=""width: 408px; height: 417px; margin-left:608px;""></div></div>","null","delaylearn","learning","display_response","5bbe9a9570f8df0001c13f11","BkGNxM74MINbK8H03C8qA7Xo5JE3","","","","","","","","","","","","","","","","","chosen stimuli: images/choice_trial_16.png","","","",""
"html-keyboard-response","179","380922","0.0-74.0-2.0","","null","","null","delaylearn","learning","feedback_duration_window","5bbe9a9570f8df0001c13f11","BkGNxM74MINbK8H03C8qA7Xo5JE3","","","","","","","","","","","","","","","","","","7000","","",""
"html-keyboard-response","180","382429","0.0-74.0-3.0","","null","<div style='margin:auto;width: auto; font-size: 150%'><span style='font-weight: bold; font-size: 100px; color: green;'>+10 points!</span><br><br></div>","null","delaylearn","learning","feedback_image_window","5bbe9a9570f8df0001c13f11","BkGNxM74MINbK8H03C8qA7Xo5JE3","","","","","","","","","","","","","","","","","","","","",""
"html-keyboard-response","181","384319","0.0-75.0","","null","<div style=""font-size:100px;"">+</div>","null","delaylearn","learning","ITI","5bbe9a9570f8df0001c13f11","BkGNxM74MINbK8H03C8qA7Xo5JE3","","","","","","","","","","","","","","","","","","","1887","",""
"html-keyboard-response","182","386728","0.0-76.0-0.0","","2405","<div style=""display: flex; flex-direction: column; align-items: center; margin-top: -40px;""><img src=""images/pattern_5.png"" style=""width: 234px; height: 230px; margin-top: -50px;""><div style=""display: flex; justify-content: space-between; margin-top: 33px;""><img src=""images/choice_trial_7.png"" style=""width: 408px; height: 417px; margin-right: 200px;""><img src=""images/choice_trial_13.png"" style=""width: 408px; height: 417px;""></div></div>","f","delaylearn","learning","trial","5bbe9a9570f8df0001c13f11","BkGNxM74MINbK8H03C8qA7Xo5JE3","5","images/choice_trial_7.png","images/choice_trial_13.png","images/pattern_5.png","j","f","750","7","13","4","0","33","1","0","7","170","","","","",""
"html-keyboard-response","183","387735","0.0-76.0-1.0","","null","<div style=""display: flex; flex-direction: column; align-items: center; margin-top: -40px;""><img src=""images/pattern_5.png"" style=""width: 234px; height: 230px; margin-top: -50px;""><div style=""display: flex; justify-content: space-between; margin-top: 33px;""><img src=""images/choice_trial_7.png"" style=""width: 408px; height: 417px; margin-right: 608px;""></div></div>","null","delaylearn","learning","display_response","5bbe9a9570f8df0001c13f11","BkGNxM74MINbK8H03C8qA7Xo5JE3","","","","","","","","","","","","","","","","","chosen stimuli: images/choice_trial_7.png","","","",""
"html-keyboard-response","184","388499","0.0-76.0-2.0","","null","","null","delaylearn","learning","feedback_duration_window","5bbe9a9570f8df0001c13f11","BkGNxM74MINbK8H03C8qA7Xo5JE3","","","","","","","","","","","","","","","","","","750","","",""
"html-keyboard-response","185","390001","0.0-76.0-3.0","","null","<div style='margin:auto;width: auto; font-size: 150%'><span style='font-weight: bold; font-size: 100px; color: red;'>0 points!</span><br><br></div>","null","delaylearn","learning","feedback_image_window","5bbe9a9570f8df0001c13f11","BkGNxM74MINbK8H03C8qA7Xo5JE3","","","","","","","","","","","","","","","","","","","","",""
"html-keyboard-response","186","392388","0.0-77.0","","null","<div style=""font-size:100px;"">+</div>","null","delaylearn","learning","ITI","5bbe9a9570f8df0001c13f11","BkGNxM74MINbK8H03C8qA7Xo5JE3","","","","","","","","","","","","","","","","","","","2374","",""
"html-keyboard-response","187","394375","0.0-78.0-0.0","","1983","<div style=""display: flex; flex-direction: column; align-items: center; margin-top: -40px;""><img src=""images/pattern_1.png"" style=""width: 234px; height: 230px; margin-top: -50px;""><div style=""display: flex; justify-content: space-between; margin-top: 33px;""><img src=""images/choice_trial_6.png"" style=""width: 408px; height: 417px; margin-right: 200px;""><img src=""images/choice_trial_15.png"" style=""width: 408px; height: 417px;""></div></div>","f","delaylearn","learning","trial","5bbe9a9570f8df0001c13f11","BkGNxM74MINbK8H03C8qA7Xo5JE3","5","images/choice_trial_6.png","images/choice_trial_15.png","images/pattern_1.png","f","f","7000","6","15","1","0","34","1","1","6","180","","","","",""
"html-keyboard-response","188","395390","0.0-78.0-1.0","","null","<div style=""display: flex; flex-direction: column; align-items: center; margin-top: -40px;""><img src=""images/pattern_1.png"" style=""width: 234px; height: 230px; margin-top: -50px;""><div style=""display: flex; justify-content: space-between; margin-top: 33px;""><img src=""images/choice_trial_6.png"" style=""width: 408px; height: 417px; margin-right: 608px;""></div></div>","null","delaylearn","learning","display_response","5bbe9a9570f8df0001c13f11","BkGNxM74MINbK8H03C8qA7Xo5JE3","","","","","","","","","","","","","","","","","chosen stimuli: images/choice_trial_6.png","","","",""
"html-keyboard-response","189","402405","0.0-78.0-2.0","","null","","null","delaylearn","learning","feedback_duration_window","5bbe9a9570f8df0001c13f11","BkGNxM74MINbK8H03C8qA7Xo5JE3","","","","","","","","","","","","","","","","","","7000","","",""
"html-keyboard-response","190","403914","0.0-78.0-3.0","","null","<div style='margin:auto;width: auto; font-size: 150%'><span style='font-weight: bold; font-size: 100px; color: green;'>+10 points!</span><br><br></div>","null","delaylearn","learning","feedback_image_window","5bbe9a9570f8df0001c13f11","BkGNxM74MINbK8H03C8qA7Xo5JE3","","","","","","","","","","","","","","","","","","","","",""
"html-keyboard-response","191","404425","0.0-79.0-0.0","","null","","null","","","mood_trial_fixation","","","","","","","","","","","","","","","","","","","","","","",""
"lmdlab-html-vas-response","192","408132","0.0-79.0-1.0","","2703","How happy are you right now?","0.6188271604938271","delaylearn","learning","mood_trial","5bbe9a9570f8df0001c13f11","BkGNxM74MINbK8H03C8qA7Xo5JE3","","","","","","","","","","","","","","","","","","","","[""Very unhappy"",""Very happy""]",""
"html-keyboard-response","193","409908","0.0-80.0","","null","<div style=""font-size:100px;"">+</div>","null","delaylearn","learning","ITI","5bbe9a9570f8df0001c13f11","BkGNxM74MINbK8H03C8qA7Xo5JE3","","","","","","","","","","","","","","","","","","","1771","",""
"html-keyboard-response","194","411375","0.0-81.0-0.0","","1464","<div style=""display: flex; flex-direction: column; align-items: center; margin-top: -40px;""><img src=""images/pattern_6.png"" style=""width: 234px; height: 230px; margin-top: -50px;""><div style=""display: flex; justify-content: space-between; margin-top: 33px;""><img src=""images/choice_trial_14.png"" style=""width: 408px; height: 417px; margin-right: 200px;""><img src=""images/choice_trial_9.png"" style=""width: 408px; height: 417px;""></div></div>","f","delaylearn","learning","trial","5bbe9a9570f8df0001c13f11","BkGNxM74MINbK8H03C8qA7Xo5JE3","5","images/choice_trial_14.png","images/choice_trial_9.png","images/pattern_6.png","j","f","750","14","9","5","0","35","1","0","14","180","","","","",""
"html-keyboard-response","195","412388","0.0-81.0-1.0","","null","<div style=""display: flex; flex-direction: column; align-items: center; margin-top: -40px;""><img src=""images/pattern_6.png"" style=""width: 234px; height: 230px; margin-top: -50px;""><div style=""display: flex; justify-content: space-between; margin-top: 33px;""><img src=""images/choice_trial_14.png"" style=""width: 408px; height: 417px; margin-right: 608px;""></div></div>","null","delaylearn","learning","display_response","5bbe9a9570f8df0001c13f11","BkGNxM74MINbK8H03C8qA7Xo5JE3","","","","","","","","","","","","","","","","","chosen stimuli: images/choice_trial_14.png","","","",""
"html-keyboard-response","196","413146","0.0-81.0-2.0","","null","","null","delaylearn","learning","feedback_duration_window","5bbe9a9570f8df0001c13f11","BkGNxM74MINbK8H03C8qA7Xo5JE3","","","","","","","","","","","","","","","","","","750","","",""
"html-keyboard-response","197","414659","0.0-81.0-3.0","","null","<div style='margin:auto;width: auto; font-size: 150%'><span style='font-weight: bold; font-size: 100px; color: red;'>0 points!</span><br><br></div>","null","delaylearn","learning","feedback_image_window","5bbe9a9570f8df0001c13f11","BkGNxM74MINbK8H03C8qA7Xo5JE3","","","","","","","","","","","","","","","","","","","","",""
"html-keyboard-response","198","416351","0.0-82.0","","null","<div style=""font-size:100px;"">+</div>","null","delaylearn","learning","ITI","5bbe9a9570f8df0001c13f11","BkGNxM74MINbK8H03C8qA7Xo5JE3","","","","","","","","","","","","","","","","","","","1688","",""
"html-keyboard-response","199","418350","0.0-83.0-0.0","","1999","<div style=""display: flex; flex-direction: column; align-items: center; margin-top: -40px;""><img src=""images/pattern_3.png"" style=""width: 234px; height: 230px; margin-top: -50px;""><div style=""display: flex; justify-content: space-between; margin-top: 33px;""><img src=""images/choice_trial_2.png"" style=""width: 408px; height: 417px; margin-right: 200px;""><img src=""images/choice_trial_16.png"" style=""width: 408px; height: 417px;""></div></div>","j","delaylearn","learning","trial","5bbe9a9570f8df0001c13f11","BkGNxM74MINbK8H03C8qA7Xo5JE3","5","images/choice_trial_2.png","images/choice_trial_16.png","images/pattern_3.png","j","j","7000","2","16","2","1","36","1","1","16","190","","","","",""
"html-keyboard-response","200","419362","0.0-83.0-1.0","","null","<div style=""display: flex; flex-direction: column; align-items: center; margin-top: -40px;""><img src=""images/pattern_3.png"" style=""width: 234px; height: 230px; margin-top: -50px;""><div style=""display: flex; justify-content: space-between; margin-top: 33px;""><img src=""images/choice_trial_16.png"" style=""width: 408px; height: 417px; margin-left:608px;""></div></div>","null","delaylearn","learning","display_response","5bbe9a9570f8df0001c13f11","BkGNxM74MINbK8H03C8qA7Xo5JE3","","","","","","","","","","","","","","","","","chosen stimuli: images/choice_trial_16.png","","","",""
"html-keyboard-response","201","426377","0.0-83.0-2.0","","null","","null","delaylearn","learning","feedback_duration_window","5bbe9a9570f8df0001c13f11","BkGNxM74MINbK8H03C8qA7Xo5JE3","","","","","","","","","","","","","","","","","","7000","","",""
"html-keyboard-response","202","427882","0.0-83.0-3.0","","null","<div style='margin:auto;width: auto; font-size: 150%'><span style='font-weight: bold; font-size: 100px; color: green;'>+10 points!</span><br><br></div>","null","delaylearn","learning","feedback_image_window","5bbe9a9570f8df0001c13f11","BkGNxM74MINbK8H03C8qA7Xo5JE3","","","","","","","","","","","","","","","","","","","","",""
"html-keyboard-response","203","429711","0.0-84.0","","null","<div style=""font-size:100px;"">+</div>","null","delaylearn","learning","ITI","5bbe9a9570f8df0001c13f11","BkGNxM74MINbK8H03C8qA7Xo5JE3","","","","","","","","","","","","","","","","","","","1814","",""
"html-keyboard-response","204","431281","0.0-85.0-0.0","","1567","<div style=""display: flex; flex-direction: column; align-items: center; margin-top: -40px;""><img src=""images/pattern_4.png"" style=""width: 234px; height: 230px; margin-top: -50px;""><div style=""display: flex; justify-content: space-between; margin-top: 33px;""><img src=""images/choice_trial_4.png"" style=""width: 408px; height: 417px; margin-right: 200px;""><img src=""images/choice_trial_11.png"" style=""width: 408px; height: 417px;""></div></div>","j","delaylearn","learning","trial","5bbe9a9570f8df0001c13f11","BkGNxM74MINbK8H03C8qA7Xo5JE3","5","images/choice_trial_4.png","images/choice_trial_11.png","images/pattern_4.png","f","j","7000","4","11","3","1","37","1","0","11","190","","","","",""
"html-keyboard-response","205","432290","0.0-85.0-1.0","","null","<div style=""display: flex; flex-direction: column; align-items: center; margin-top: -40px;""><img src=""images/pattern_4.png"" style=""width: 234px; height: 230px; margin-top: -50px;""><div style=""display: flex; justify-content: space-between; margin-top: 33px;""><img src=""images/choice_trial_11.png"" style=""width: 408px; height: 417px; margin-left:608px;""></div></div>","null","delaylearn","learning","display_response","5bbe9a9570f8df0001c13f11","BkGNxM74MINbK8H03C8qA7Xo5JE3","","","","","","","","","","","","","","","","","chosen stimuli: images/choice_trial_11.png","","","",""
"html-keyboard-response","206","439299","0.0-85.0-2.0","","null","","null","delaylearn","learning","feedback_duration_window","5bbe9a9570f8df0001c13f11","BkGNxM74MINbK8H03C8qA7Xo5JE3","","","","","","","","","","","","","","","","","","7000","","",""
"html-keyboard-response","207","440802","0.0-85.0-3.0","","null","<div style='margin:auto;width: auto; font-size: 150%'><span style='font-weight: bold; font-size: 100px; color: red;'>0 points!</span><br><br></div>","null","delaylearn","learning","feedback_image_window","5bbe9a9570f8df0001c13f11","BkGNxM74MINbK8H03C8qA7Xo5JE3","","","","","","","","","","","","","","","","","","","","",""
"html-keyboard-response","208","442432","0.0-86.0","","null","<div style=""font-size:100px;"">+</div>","null","delaylearn","learning","ITI","5bbe9a9570f8df0001c13f11","BkGNxM74MINbK8H03C8qA7Xo5JE3","","","","","","","","","","","","","","","","","","","1618","",""
"html-keyboard-response","209","443997","0.0-87.0-0.0","","1561","<div style=""display: flex; flex-direction: column; align-items: center; margin-top: -40px;""><img src=""images/pattern_7.png"" style=""width: 234px; height: 230px; margin-top: -50px;""><div style=""display: flex; justify-content: space-between; margin-top: 33px;""><img src=""images/choice_trial_8.png"" style=""width: 408px; height: 417px; margin-right: 200px;""><img src=""images/choice_trial_10.png"" style=""width: 408px; height: 417px;""></div></div>","f","delaylearn","learning","trial","5bbe9a9570f8df0001c13f11","BkGNxM74MINbK8H03C8qA7Xo5JE3","5","images/choice_trial_8.png","images/choice_trial_10.png","images/pattern_7.png","f","f","750","8","10","6","0","38","1","1","8","200","","","","",""
"html-keyboard-response","210","445004","0.0-87.0-1.0","","null","<div style=""display: flex; flex-direction: column; align-items: center; margin-top: -40px;""><img src=""images/pattern_7.png"" style=""width: 234px; height: 230px; margin-top: -50px;""><div style=""display: flex; justify-content: space-between; margin-top: 33px;""><img src=""images/choice_trial_8.png"" style=""width: 408px; height: 417px; margin-right: 608px;""></div></div>","null","delaylearn","learning","display_response","5bbe9a9570f8df0001c13f11","BkGNxM74MINbK8H03C8qA7Xo5JE3","","","","","","","","","","","","","","","","","chosen stimuli: images/choice_trial_8.png","","","",""
"html-keyboard-response","211","445764","0.0-87.0-2.0","","null","","null","delaylearn","learning","feedback_duration_window","5bbe9a9570f8df0001c13f11","BkGNxM74MINbK8H03C8qA7Xo5JE3","","","","","","","","","","","","","","","","","","750","","",""
"html-keyboard-response","212","447280","0.0-87.0-3.0","","null","<div style='margin:auto;width: auto; font-size: 150%'><span style='font-weight: bold; font-size: 100px; color: green;'>+10 points!</span><br><br></div>","null","delaylearn","learning","feedback_image_window","5bbe9a9570f8df0001c13f11","BkGNxM74MINbK8H03C8qA7Xo5JE3","","","","","","","","","","","","","","","","","","","","",""
"html-keyboard-response","213","449003","0.0-88.0","","null","<div style=""font-size:100px;"">+</div>","null","delaylearn","learning","ITI","5bbe9a9570f8df0001c13f11","BkGNxM74MINbK8H03C8qA7Xo5JE3","","","","","","","","","","","","","","","","","","","1666","",""
"html-keyboard-response","214","450196","0.0-89.0-0.0","","1191","<div style=""display: flex; flex-direction: column; align-items: center; margin-top: -40px;""><img src=""images/pattern_1.png"" style=""width: 234px; height: 230px; margin-top: -50px;""><div style=""display: flex; justify-content: space-between; margin-top: 33px;""><img src=""images/choice_trial_6.png"" style=""width: 408px; height: 417px; margin-right: 200px;""><img src=""images/choice_trial_15.png"" style=""width: 408px; height: 417px;""></div></div>","j","delaylearn","learning","trial","5bbe9a9570f8df0001c13f11","BkGNxM74MINbK8H03C8qA7Xo5JE3","5","images/choice_trial_6.png","images/choice_trial_15.png","images/pattern_1.png","f","f","7000","6","15","1","0","39","0","0","15","200","","","","",""
"html-keyboard-response","215","451200","0.0-89.0-1.0","","null","<div style=""display: flex; flex-direction: column; align-items: center; margin-top: -40px;""><img src=""images/pattern_1.png"" style=""width: 234px; height: 230px; margin-top: -50px;""><div style=""display: flex; justify-content: space-between; margin-top: 33px;""><img src=""images/choice_trial_15.png"" style=""width: 408px; height: 417px; margin-left:608px;""></div></div>","null","delaylearn","learning","display_response","5bbe9a9570f8df0001c13f11","BkGNxM74MINbK8H03C8qA7Xo5JE3","","","","","","","","","","","","","","","","","chosen stimuli: images/choice_trial_15.png","","","",""
"html-keyboard-response","216","458205","0.0-89.0-2.0","","null","","null","delaylearn","learning","feedback_duration_window","5bbe9a9570f8df0001c13f11","BkGNxM74MINbK8H03C8qA7Xo5JE3","","","","","","","","","","","","","","","","","","7000","","",""
"html-keyboard-response","217","459708","0.0-89.0-3.0","","null","<div style='margin:auto;width: auto; font-size: 150%'><span style='font-weight: bold; font-size: 100px; color: red;'>0 points!</span><br><br></div>","null","delaylearn","learning","feedback_image_window","5bbe9a9570f8df0001c13f11","BkGNxM74MINbK8H03C8qA7Xo5JE3","","","","","","","","","","","","","","","","","","","","",""
"html-keyboard-response","218","460220","0.0-90.0-0.0","","null","","null","","","mood_trial_fixation","","","","","","","","","","","","","","","","","","","","","","",""
"lmdlab-html-vas-response","219","463572","0.0-90.0-1.0","","2338","How happy are you right now?","0.4845679012345679","delaylearn","learning","mood_trial","5bbe9a9570f8df0001c13f11","BkGNxM74MINbK8H03C8qA7Xo5JE3","","","","","","","","","","","","","","","","","","","","[""Very unhappy"",""Very happy""]",""
"html-keyboard-response","220","465776","0.0-91.0","","null","<div style=""font-size:100px;"">+</div>","null","delaylearn","learning","ITI","5bbe9a9570f8df0001c13f11","BkGNxM74MINbK8H03C8qA7Xo5JE3","","","","","","","","","","","","","","","","","","","2203","",""
"html-keyboard-response","221","467127","0.0-92.0-0.0","","1347","<div style=""display: flex; flex-direction: column; align-items: center; margin-top: -40px;""><img src=""images/pattern_3.png"" style=""width: 234px; height: 230px; margin-top: -50px;""><div style=""display: flex; justify-content: space-between; margin-top: 33px;""><img src=""images/choice_trial_16.png"" style=""width: 408px; height: 417px; margin-right: 200px;""><img src=""images/choice_trial_2.png"" style=""width: 408px; height: 417px;""></div></div>","j","delaylearn","learning","trial","5bbe9a9570f8df0001c13f11","BkGNxM74MINbK8H03C8qA7Xo5JE3","5","images/choice_trial_16.png","images/choice_trial_2.png","images/pattern_3.png","j","f","7000","16","2","2","0","40","0","1","2","210","","","","",""
