"trial_type","trial_index","time_elapsed","internal_node_id","participant","rt","stimulus","response","exp_name","exp_stage","test_part","subjectID","databaseID","counterbal","choice_stimuli_1","choice_stimuli_2","pattern_stimuli","rewarded_answer","correct_answer","feedback_duration_times","stim_left","stim_right","pair","leftright_counter","trial","response_correct","response_rewarded","chosen_stim","counter","displayed_choice","feedback_durations","ITI_duration","labels","rest_warning"
"pavlovia","0","479","0.0-0.0","","","","","","","","","","","","","","","","","","","","","","","","","","","","","",""
"html-keyboard-response","1","3495","0.0-1.0","","null","<div style=""font-size:100px;"">+</div>","null","delaylearn","learning","pre_fixation","5ed8162f9883863100f36190","","","","","","","","","","","","","","","","","","","","","",""
"html-keyboard-response","2","4793","0.0-2.0-0.0","","1297.0999999940395","<div style=""display: flex; flex-direction: column; align-items: center; margin-top: -40px;""><img src=""images/demo_images/pattern_1.png"" style=""width: 234px; height: 230px; margin-top: -50px;""><div style=""display: flex; justify-content: space-between; margin-top: 33px;""><img src=""images/demo_images/choice_trial_2.png"" style=""width: 408px; height: 417px; margin-right: 200px;""><img src=""images/demo_images/choice_trial_1.png"" style=""width: 408px; height: 417px;""></div></div>","j","delaylearn","learning","trial","5ed8162f9883863100f36190","q4XuhzhMCAYi2P6nzNVGoXi6crA2","4","images/demo_images/choice_trial_2.png","images/demo_images/choice_trial_1.png","images/demo_images/pattern_1.png","j","j","3000","2","1","20","1","1","1","1","1","10","","","","",""
"html-keyboard-response","3","5799","0.0-2.0-1.0","","null","<div style=""display: flex; flex-direction: column; align-items: center; margin-top: -40px;""><img src=""images/demo_images/pattern_1.png"" style=""width: 234px; height: 230px; margin-top: -50px;""><div style=""display: flex; justify-content: space-between; margin-top: 33px;""><img src=""images/demo_images/choice_trial_1.png"" style=""width: 408px; height: 417px; margin-left:608px;""></div></div>","null","delaylearn","learning","display_response","5ed8162f9883863100f36190","q4XuhzhMCAYi2P6nzNVGoXi6crA2","","","","","","","","","","","","","","","","","chosen stimuli: images/demo_images/choice_trial_1.png","","","",""
"html-keyboard-response","4","8803","0.0-2.0-2.0","","null","","null","delaylearn","learning","feedback_duration_window","5ed8162f9883863100f36190","q4XuhzhMCAYi2P6nzNVGoXi6crA2","","","","","","","","","","","","","","","","","","3000","","",""
"html-keyboard-response","5","10312","0.0-2.0-3.0","","null","<div style='margin:auto;width: auto; font-size: 150%'><span style='font-weight: bold; font-size: 100px; color: green;'>+10 points!</span><br><br></div>","null","delaylearn","learning","feedback_image_window","5ed8162f9883863100f36190","q4XuhzhMCAYi2P6nzNVGoXi6crA2","","","","","","","","","","","","","","","","","","","","",""
"html-keyboard-response","6","12247","0.0-3.0","","null","<div style=""font-size:100px;"">+</div>","null","delaylearn","learning","ITI","5ed8162f9883863100f36190","q4XuhzhMCAYi2P6nzNVGoXi6crA2","","","","","","","","","","","","","","","","","","","1934","",""
"html-keyboard-response","7","13022","0.0-4.0-0.0","","773.5","<div style=""display: flex; flex-direction: column; align-items: center; margin-top: -40px;""><img src=""images/demo_images/pattern_1.png"" style=""width: 234px; height: 230px; margin-top: -50px;""><div style=""display: flex; justify-content: space-between; margin-top: 33px;""><img src=""images/demo_images/choice_trial_2.png"" style=""width: 408px; height: 417px; margin-right: 200px;""><img src=""images/demo_images/choice_trial_1.png"" style=""width: 408px; height: 417px;""></div></div>","j","delaylearn","learning","trial","5ed8162f9883863100f36190","q4XuhzhMCAYi2P6nzNVGoXi6crA2","4","images/demo_images/choice_trial_2.png","images/demo_images/choice_trial_1.png","images/demo_images/pattern_1.png","j","j","3000","2","1","20","1","2","1","1","1","20","","","","",""
"html-keyboard-response","8","14034","0.0-4.0-1.0","","null","<div style=""display: flex; flex-direction: column; align-items: center; margin-top: -40px;""><img src=""images/demo_images/pattern_1.png"" style=""width: 234px; height: 230px; margin-top: -50px;""><div style=""display: flex; justify-content: space-between; margin-top: 33px;""><img src=""images/demo_images/choice_trial_1.png"" style=""width: 408px; height: 417px; margin-left:608px;""></div></div>","null","delaylearn","learning","display_response","5ed8162f9883863100f36190","q4XuhzhMCAYi2P6nzNVGoXi6crA2","","","","","","","","","","","","","","","","","chosen stimuli: images/demo_images/choice_trial_1.png","","","",""
"html-keyboard-response","9","17048","0.0-4.0-2.0","","null","","null","delaylearn","learning","feedback_duration_window","5ed8162f9883863100f36190","q4XuhzhMCAYi2P6nzNVGoXi6crA2","","","","","","","","","","","","","","","","","","3000","","",""
"html-keyboard-response","10","18561","0.0-4.0-3.0","","null","<div style='margin:auto;width: auto; font-size: 150%'><span style='font-weight: bold; font-size: 100px; color: green;'>+10 points!</span><br><br></div>","null","delaylearn","learning","feedback_image_window","5ed8162f9883863100f36190","q4XuhzhMCAYi2P6nzNVGoXi6crA2","","","","","","","","","","","","","","","","","","","","",""
"html-keyboard-response","11","20915","0.0-5.0","","null","<div style=""font-size:100px;"">+</div>","null","delaylearn","learning","ITI","5ed8162f9883863100f36190","q4XuhzhMCAYi2P6nzNVGoXi6crA2","","","","","","","","","","","","","","","","","","","2349","",""
"html-keyboard-response","12","21603","0.0-6.0-0.0","","686.0999999940395","<div style=""display: flex; flex-direction: column; align-items: center; margin-top: -40px;""><img src=""images/demo_images/pattern_1.png"" style=""width: 234px; height: 230px; margin-top: -50px;""><div style=""display: flex; justify-content: space-between; margin-top: 33px;""><img src=""images/demo_images/choice_trial_1.png"" style=""width: 408px; height: 417px; margin-right: 200px;""><img src=""images/demo_images/choice_trial_2.png"" style=""width: 408px; height: 417px;""></div></div>","f","delaylearn","learning","trial","5ed8162f9883863100f36190","q4XuhzhMCAYi2P6nzNVGoXi6crA2","4","images/demo_images/choice_trial_1.png","images/demo_images/choice_trial_2.png","images/demo_images/pattern_1.png","j","f","3000","1","2","20","0","3","1","0","1","20","","","","",""
"html-keyboard-response","13","22617","0.0-6.0-1.0","","null","<div style=""display: flex; flex-direction: column; align-items: center; margin-top: -40px;""><img src=""images/demo_images/pattern_1.png"" style=""width: 234px; height: 230px; margin-top: -50px;""><div style=""display: flex; justify-content: space-between; margin-top: 33px;""><img src=""images/demo_images/choice_trial_1.png"" style=""width: 408px; height: 417px; margin-right: 608px;""></div></div>","null","delaylearn","learning","display_response","5ed8162f9883863100f36190","q4XuhzhMCAYi2P6nzNVGoXi6crA2","","","","","","","","","","","","","","","","","chosen stimuli: images/demo_images/choice_trial_1.png","","","",""
"html-keyboard-response","14","25631","0.0-6.0-2.0","","null","","null","delaylearn","learning","feedback_duration_window","5ed8162f9883863100f36190","q4XuhzhMCAYi2P6nzNVGoXi6crA2","","","","","","","","","","","","","","","","","","3000","","",""
"html-keyboard-response","15","27144","0.0-6.0-3.0","","null","<div style='margin:auto;width: auto; font-size: 150%'><span style='font-weight: bold; font-size: 100px; color: red;'>0 points!</span><br><br></div>","null","delaylearn","learning","feedback_image_window","5ed8162f9883863100f36190","q4XuhzhMCAYi2P6nzNVGoXi6crA2","","","","","","","","","","","","","","","","","","","","",""
"html-keyboard-response","16","29127","0.0-7.0","","null","<div style=""font-size:100px;"">+</div>","null","delaylearn","learning","ITI","5ed8162f9883863100f36190","q4XuhzhMCAYi2P6nzNVGoXi6crA2","","","","","","","","","","","","","","","","","","","1976","",""
"html-keyboard-response","17","29942","0.0-8.0-0.0","","813.6999999880791","<div style=""display: flex; flex-direction: column; align-items: center; margin-top: -40px;""><img src=""images/demo_images/pattern_1.png"" style=""width: 234px; height: 230px; margin-top: -50px;""><div style=""display: flex; justify-content: space-between; margin-top: 33px;""><img src=""images/demo_images/choice_trial_1.png"" style=""width: 408px; height: 417px; margin-right: 200px;""><img src=""images/demo_images/choice_trial_2.png"" style=""width: 408px; height: 417px;""></div></div>","f","delaylearn","learning","trial","5ed8162f9883863100f36190","q4XuhzhMCAYi2P6nzNVGoXi6crA2","4","images/demo_images/choice_trial_1.png","images/demo_images/choice_trial_2.png","images/demo_images/pattern_1.png","f","f","3000","1","2","20","0","4","1","1","1","30","","","","",""
"html-keyboard-response","18","30950","0.0-8.0-1.0","","null","<div style=""display: flex; flex-direction: column; align-items: center; margin-top: -40px;""><img src=""images/demo_images/pattern_1.png"" style=""width: 234px; height: 230px; margin-top: -50px;""><div style=""display: flex; justify-content: space-between; margin-top: 33px;""><img src=""images/demo_images/choice_trial_1.png"" style=""width: 408px; height: 417px; margin-right: 608px;""></div></div>","null","delaylearn","learning","display_response","5ed8162f9883863100f36190","q4XuhzhMCAYi2P6nzNVGoXi6crA2","","","","","","","","","","","","","","","","","chosen stimuli: images/demo_images/choice_trial_1.png","","","",""
"html-keyboard-response","19","33962","0.0-8.0-2.0","","null","","null","delaylearn","learning","feedback_duration_window","5ed8162f9883863100f36190","q4XuhzhMCAYi2P6nzNVGoXi6crA2","","","","","","","","","","","","","","","","","","3000","","",""
"html-keyboard-response","20","35472","0.0-8.0-3.0","","null","<div style='margin:auto;width: auto; font-size: 150%'><span style='font-weight: bold; font-size: 100px; color: green;'>+10 points!</span><br><br></div>","null","delaylearn","learning","feedback_image_window","5ed8162f9883863100f36190","q4XuhzhMCAYi2P6nzNVGoXi6crA2","","","","","","","","","","","","","","","","","","","","",""
"html-keyboard-response","21","35984","0.0-9.0-0.0","","null","","null","","","mood_trial_fixation","","","","","","","","","","","","","","","","","","","","","","",""
"lmdlab-html-vas-response","22","41280","0.0-9.0-1.0","","4283","How happy are you right now?","0.6064814814814815","delaylearn","learning","mood_trial","5ed8162f9883863100f36190","q4XuhzhMCAYi2P6nzNVGoXi6crA2","","","","","","","","","","","","","","","","","","","","[""Very unhappy"",""Very happy""]",""
"html-keyboard-response","23","43689","0.0-10.0","","null","<div style=""font-size:100px;"">+</div>","null","delaylearn","learning","ITI","5ed8162f9883863100f36190","q4XuhzhMCAYi2P6nzNVGoXi6crA2","","","","","","","","","","","","","","","","","","","2396","",""
"html-keyboard-response","24","44782","0.0-11.0-0.0","","1091.5999999940395","<div style=""display: flex; flex-direction: column; align-items: center; margin-top: -40px;""><img src=""images/demo_images/pattern_1.png"" style=""width: 234px; height: 230px; margin-top: -50px;""><div style=""display: flex; justify-content: space-between; margin-top: 33px;""><img src=""images/demo_images/choice_trial_2.png"" style=""width: 408px; height: 417px; margin-right: 200px;""><img src=""images/demo_images/choice_trial_1.png"" style=""width: 408px; height: 417px;""></div></div>","j","delaylearn","learning","trial","5ed8162f9883863100f36190","q4XuhzhMCAYi2P6nzNVGoXi6crA2","4","images/demo_images/choice_trial_2.png","images/demo_images/choice_trial_1.png","images/demo_images/pattern_1.png","j","j","3000","2","1","20","1","5","1","1","1","40","","","","",""
"html-keyboard-response","25","45789","0.0-11.0-1.0","","null","<div style=""display: flex; flex-direction: column; align-items: center; margin-top: -40px;""><img src=""images/demo_images/pattern_1.png"" style=""width: 234px; height: 230px; margin-top: -50px;""><div style=""display: flex; justify-content: space-between; margin-top: 33px;""><img src=""images/demo_images/choice_trial_1.png"" style=""width: 408px; height: 417px; margin-left:608px;""></div></div>","null","delaylearn","learning","display_response","5ed8162f9883863100f36190","q4XuhzhMCAYi2P6nzNVGoXi6crA2","","","","","","","","","","","","","","","","","chosen stimuli: images/demo_images/choice_trial_1.png","","","",""
"html-keyboard-response","26","48799","0.0-11.0-2.0","","null","","null","delaylearn","learning","feedback_duration_window","5ed8162f9883863100f36190","q4XuhzhMCAYi2P6nzNVGoXi6crA2","","","","","","","","","","","","","","","","","","3000","","",""
"html-keyboard-response","27","50310","0.0-11.0-3.0","","null","<div style='margin:auto;width: auto; font-size: 150%'><span style='font-weight: bold; font-size: 100px; color: green;'>+10 points!</span><br><br></div>","null","delaylearn","learning","feedback_image_window","5ed8162f9883863100f36190","q4XuhzhMCAYi2P6nzNVGoXi6crA2","","","","","","","","","","","","","","","","","","","","",""
"html-keyboard-response","28","52136","0.0-12.0","","null","<div style=""font-size:100px;"">+</div>","null","delaylearn","learning","ITI","5ed8162f9883863100f36190","q4XuhzhMCAYi2P6nzNVGoXi6crA2","","","","","","","","","","","","","","","","","","","1817","",""
"html-keyboard-response","29","52722","0.0-13.0-0.0","","584.3999999761581","<div style=""display: flex; flex-direction: column; align-items: center; margin-top: -40px;""><img src=""images/demo_images/pattern_1.png"" style=""width: 234px; height: 230px; margin-top: -50px;""><div style=""display: flex; justify-content: space-between; margin-top: 33px;""><img src=""images/demo_images/choice_trial_1.png"" style=""width: 408px; height: 417px; margin-right: 200px;""><img src=""images/demo_images/choice_trial_2.png"" style=""width: 408px; height: 417px;""></div></div>","f","delaylearn","learning","trial","5ed8162f9883863100f36190","q4XuhzhMCAYi2P6nzNVGoXi6crA2","4","images/demo_images/choice_trial_1.png","images/demo_images/choice_trial_2.png","images/demo_images/pattern_1.png","f","f","3000","1","2","20","0","6","1","1","1","50","","","","",""
"html-keyboard-response","30","53733","0.0-13.0-1.0","","null","<div style=""display: flex; flex-direction: column; align-items: center; margin-top: -40px;""><img src=""images/demo_images/pattern_1.png"" style=""width: 234px; height: 230px; margin-top: -50px;""><div style=""display: flex; justify-content: space-between; margin-top: 33px;""><img src=""images/demo_images/choice_trial_1.png"" style=""width: 408px; height: 417px; margin-right: 608px;""></div></div>","null","delaylearn","learning","display_response","5ed8162f9883863100f36190","q4XuhzhMCAYi2P6nzNVGoXi6crA2","","","","","","","","","","","","","","","","","chosen stimuli: images/demo_images/choice_trial_1.png","","","",""
"html-keyboard-response","31","56749","0.0-13.0-2.0","","null","","null","delaylearn","learning","feedback_duration_window","5ed8162f9883863100f36190","q4XuhzhMCAYi2P6nzNVGoXi6crA2","","","","","","","","","","","","","","","","","","3000","","",""
"html-keyboard-response","32","58256","0.0-13.0-3.0","","null","<div style='margin:auto;width: auto; font-size: 150%'><span style='font-weight: bold; font-size: 100px; color: green;'>+10 points!</span><br><br></div>","null","delaylearn","learning","feedback_image_window","5ed8162f9883863100f36190","q4XuhzhMCAYi2P6nzNVGoXi6crA2","","","","","","","","","","","","","","","","","","","","",""
"html-keyboard-response","33","60143","0.0-14.0","","null","<div style=""font-size:100px;"">+</div>","null","delaylearn","learning","ITI","5ed8162f9883863100f36190","q4XuhzhMCAYi2P6nzNVGoXi6crA2","","","","","","","","","","","","","","","","","","","1881","",""
"html-keyboard-response","34","61221","0.0-15.0-0.0","","1076.5","<div style=""display: flex; flex-direction: column; align-items: center; margin-top: -40px;""><img src=""images/demo_images/pattern_1.png"" style=""width: 234px; height: 230px; margin-top: -50px;""><div style=""display: flex; justify-content: space-between; margin-top: 33px;""><img src=""images/demo_images/choice_trial_2.png"" style=""width: 408px; height: 417px; margin-right: 200px;""><img src=""images/demo_images/choice_trial_1.png"" style=""width: 408px; height: 417px;""></div></div>","j","delaylearn","learning","trial","5ed8162f9883863100f36190","q4XuhzhMCAYi2P6nzNVGoXi6crA2","4","images/demo_images/choice_trial_2.png","images/demo_images/choice_trial_1.png","images/demo_images/pattern_1.png","j","j","3000","2","1","20","1","7","1","1","1","60","","","","",""
"html-keyboard-response","35","62233","0.0-15.0-1.0","","null","<div style=""display: flex; flex-direction: column; align-items: center; margin-top: -40px;""><img src=""images/demo_images/pattern_1.png"" style=""width: 234px; height: 230px; margin-top: -50px;""><div style=""display: flex; justify-content: space-between; margin-top: 33px;""><img src=""images/demo_images/choice_trial_1.png"" style=""width: 408px; height: 417px; margin-left:608px;""></div></div>","null","delaylearn","learning","display_response","5ed8162f9883863100f36190","q4XuhzhMCAYi2P6nzNVGoXi6crA2","","","","","","","","","","","","","","","","","chosen stimuli: images/demo_images/choice_trial_1.png","","","",""
"html-keyboard-response","36","65235","0.0-15.0-2.0","","null","","null","delaylearn","learning","feedback_duration_window","5ed8162f9883863100f36190","q4XuhzhMCAYi2P6nzNVGoXi6crA2","","","","","","","","","","","","","","","","","","3000","","",""
"html-keyboard-response","37","66747","0.0-15.0-3.0","","null","<div style='margin:auto;width: auto; font-size: 150%'><span style='font-weight: bold; font-size: 100px; color: green;'>+10 points!</span><br><br></div>","null","delaylearn","learning","feedback_image_window","5ed8162f9883863100f36190","q4XuhzhMCAYi2P6nzNVGoXi6crA2","","","","","","","","","","","","","","","","","","","","",""
"html-keyboard-response","38","69039","0.0-16.0","","null","<div style=""font-size:100px;"">+</div>","null","delaylearn","learning","ITI","5ed8162f9883863100f36190","q4XuhzhMCAYi2P6nzNVGoXi6crA2","","","","","","","","","","","","","","","","","","","2287","",""
"html-keyboard-response","39","69751","0.0-17.0-0.0","","710.6000000238419","<div style=""display: flex; flex-direction: column; align-items: center; margin-top: -40px;""><img src=""images/demo_images/pattern_1.png"" style=""width: 234px; height: 230px; margin-top: -50px;""><div style=""display: flex; justify-content: space-between; margin-top: 33px;""><img src=""images/demo_images/choice_trial_1.png"" style=""width: 408px; height: 417px; margin-right: 200px;""><img src=""images/demo_images/choice_trial_2.png"" style=""width: 408px; height: 417px;""></div></div>","f","delaylearn","learning","trial","5ed8162f9883863100f36190","q4XuhzhMCAYi2P6nzNVGoXi6crA2","4","images/demo_images/choice_trial_1.png","images/demo_images/choice_trial_2.png","images/demo_images/pattern_1.png","f","f","3000","1","2","20","0","8","1","1","1","70","","","","",""
"html-keyboard-response","40","70761","0.0-17.0-1.0","","null","<div style=""display: flex; flex-direction: column; align-items: center; margin-top: -40px;""><img src=""images/demo_images/pattern_1.png"" style=""width: 234px; height: 230px; margin-top: -50px;""><div style=""display: flex; justify-content: space-between; margin-top: 33px;""><img src=""images/demo_images/choice_trial_1.png"" style=""width: 408px; height: 417px; margin-right: 608px;""></div></div>","null","delaylearn","learning","display_response","5ed8162f9883863100f36190","q4XuhzhMCAYi2P6nzNVGoXi6crA2","","","","","","","","","","","","","","","","","chosen stimuli: images/demo_images/choice_trial_1.png","","","",""
"html-keyboard-response","41","73763","0.0-17.0-2.0","","null","","null","delaylearn","learning","feedback_duration_window","5ed8162f9883863100f36190","q4XuhzhMCAYi2P6nzNVGoXi6crA2","","","","","","","","","","","","","","","","","","3000","","",""
"html-keyboard-response","42","75275","0.0-17.0-3.0","","null","<div style='margin:auto;width: auto; font-size: 150%'><span style='font-weight: bold; font-size: 100px; color: green;'>+10 points!</span><br><br></div>","null","delaylearn","learning","feedback_image_window","5ed8162f9883863100f36190","q4XuhzhMCAYi2P6nzNVGoXi6crA2","","","","","","","","","","","","","","","","","","","","",""
"html-button-response","43","78895","0.0-18.0","","3619.5999999940395","
  <div style=""display: flex; align-items: center; justify-content: center; height: 80vh;"">
  <div>
          <img src=""images/inst_demo_finish.png"" style=""width: 80vw; height:auto;"">
          <br><br>
      </div>
      <br><br>
  </div>","0","","","","","","","","","","","","","","","","","","","","","","","","","",""
"html-keyboard-response","44","81600","0.0-19.0","","2704.2999999821186","
  <div style=""display: flex; align-items: center; justify-content: center; height: 80vh;"">
  <div>
          <img src=""images/inst_6.png"" style=""width: 80vw; height:auto;"">
          <br><br>
      </div>
      <br><br>
  </div>","f","","","","","","","","","","","","","","","","","","","","","","","","","",""
"html-keyboard-response","45","84608","0.0-20.0","","null","<div style=""font-size:100px;"">+</div>","null","delaylearn","learning","pre_fixation","5ed8162f9883863100f36190","","","","","","","","","","","","","","","","","","","","","",""
"html-keyboard-response","46","86997","0.0-21.0","","null","<div style=""font-size:100px;"">+</div>","null","delaylearn","learning","ITI","5ed8162f9883863100f36190","q4XuhzhMCAYi2P6nzNVGoXi6crA2","","","","","","","","","","","","","","","","","","","2383","",""
"html-keyboard-response","47","88070","0.0-22.0-0.0","","1071.5","<div style=""display: flex; flex-direction: column; align-items: center; margin-top: -40px;""><img src=""images/pattern_3.png"" style=""width: 234px; height: 230px; margin-top: -50px;""><div style=""display: flex; justify-content: space-between; margin-top: 33px;""><img src=""images/choice_trial_16.png"" style=""width: 408px; height: 417px; margin-right: 200px;""><img src=""images/choice_trial_6.png"" style=""width: 408px; height: 417px;""></div></div>","j","delaylearn","learning","trial","5ed8162f9883863100f36190","q4XuhzhMCAYi2P6nzNVGoXi6crA2","4","images/choice_trial_16.png","images/choice_trial_6.png","images/pattern_3.png","f","f","7000","16","6","2","0","9","0","0","6","70","","","","",""
"html-keyboard-response","48","89080","0.0-22.0-1.0","","null","<div style=""display: flex; flex-direction: column; align-items: center; margin-top: -40px;""><img src=""images/pattern_3.png"" style=""width: 234px; height: 230px; margin-top: -50px;""><div style=""display: flex; justify-content: space-between; margin-top: 33px;""><img src=""images/choice_trial_6.png"" style=""width: 408px; height: 417px; margin-left:608px;""></div></div>","null","delaylearn","learning","display_response","5ed8162f9883863100f36190","q4XuhzhMCAYi2P6nzNVGoXi6crA2","","","","","","","","","","","","","","","","","chosen stimuli: images/choice_trial_6.png","","","",""
"html-keyboard-response","49","96085","0.0-22.0-2.0","","null","","null","delaylearn","learning","feedback_duration_window","5ed8162f9883863100f36190","q4XuhzhMCAYi2P6nzNVGoXi6crA2","","","","","","","","","","","","","","","","","","7000","","",""
"html-keyboard-response","50","97594","0.0-22.0-3.0","","null","<div style='margin:auto;width: auto; font-size: 150%'><span style='font-weight: bold; font-size: 100px; color: red;'>0 points!</span><br><br></div>","null","delaylearn","learning","feedback_image_window","5ed8162f9883863100f36190","q4XuhzhMCAYi2P6nzNVGoXi6crA2","","","","","","","","","","","","","","","","","","","","",""
"html-keyboard-response","51","100088","0.0-23.0","","null","<div style=""font-size:100px;"">+</div>","null","delaylearn","learning","ITI","5ed8162f9883863100f36190","q4XuhzhMCAYi2P6nzNVGoXi6crA2","","","","","","","","","","","","","","","","","","","2491","",""
"html-keyboard-response","52","101750","0.0-24.0-0.0","","1661.5","<div style=""display: flex; flex-direction: column; align-items: center; margin-top: -40px;""><img src=""images/pattern_7.png"" style=""width: 234px; height: 230px; margin-top: -50px;""><div style=""display: flex; justify-content: space-between; margin-top: 33px;""><img src=""images/choice_trial_4.png"" style=""width: 408px; height: 417px; margin-right: 200px;""><img src=""images/choice_trial_13.png"" style=""width: 408px; height: 417px;""></div></div>","f","delaylearn","learning","trial","5ed8162f9883863100f36190","q4XuhzhMCAYi2P6nzNVGoXi6crA2","4","images/choice_trial_4.png","images/choice_trial_13.png","images/pattern_7.png","j","j","750","4","13","6","1","10","0","0","4","70","","","","",""
"html-keyboard-response","53","102760","0.0-24.0-1.0","","null","<div style=""display: flex; flex-direction: column; align-items: center; margin-top: -40px;""><img src=""images/pattern_7.png"" style=""width: 234px; height: 230px; margin-top: -50px;""><div style=""display: flex; justify-content: space-between; margin-top: 33px;""><img src=""images/choice_trial_4.png"" style=""width: 408px; height: 417px; margin-right: 608px;""></div></div>","null","delaylearn","learning","display_response","5ed8162f9883863100f36190","q4XuhzhMCAYi2P6nzNVGoXi6crA2","","","","","","","","","","","","","","","","","chosen stimuli: images/choice_trial_4.png","","","",""
"html-keyboard-response","54","103524","0.0-24.0-2.0","","null","","null","delaylearn","learning","feedback_duration_window","5ed8162f9883863100f36190","q4XuhzhMCAYi2P6nzNVGoXi6crA2","","","","","","","","","","","","","","","","","","750","","",""
"html-keyboard-response","55","105037","0.0-24.0-3.0","","null","<div style='margin:auto;width: auto; font-size: 150%'><span style='font-weight: bold; font-size: 100px; color: red;'>0 points!</span><br><br></div>","null","delaylearn","learning","feedback_image_window","5ed8162f9883863100f36190","q4XuhzhMCAYi2P6nzNVGoXi6crA2","","","","","","","","","","","","","","","","","","","","",""
"html-keyboard-response","56","107258","0.0-25.0","","null","<div style=""font-size:100px;"">+</div>","null","delaylearn","learning","ITI","5ed8162f9883863100f36190","q4XuhzhMCAYi2P6nzNVGoXi6crA2","","","","","","","","","","","","","","","","","","","2210","",""
"html-keyboard-response","57","109129","0.0-26.0-0.0","","1870","<div style=""display: flex; flex-direction: column; align-items: center; margin-top: -40px;""><img src=""images/pattern_4.png"" style=""width: 234px; height: 230px; margin-top: -50px;""><div style=""display: flex; justify-content: space-between; margin-top: 33px;""><img src=""images/choice_trial_8.png"" style=""width: 408px; height: 417px; margin-right: 200px;""><img src=""images/choice_trial_7.png"" style=""width: 408px; height: 417px;""></div></div>","f","delaylearn","learning","trial","5ed8162f9883863100f36190","q4XuhzhMCAYi2P6nzNVGoXi6crA2","4","images/choice_trial_8.png","images/choice_trial_7.png","images/pattern_4.png","f","f","7000","8","7","3","0","11","1","1","8","80","","","","",""
"html-keyboard-response","58","110142","0.0-26.0-1.0","","null","<div style=""display: flex; flex-direction: column; align-items: center; margin-top: -40px;""><img src=""images/pattern_4.png"" style=""width: 234px; height: 230px; margin-top: -50px;""><div style=""display: flex; justify-content: space-between; margin-top: 33px;""><img src=""images/choice_trial_8.png"" style=""width: 408px; height: 417px; margin-right: 608px;""></div></div>","null","delaylearn","learning","display_response","5ed8162f9883863100f36190","q4XuhzhMCAYi2P6nzNVGoXi6crA2","","","","","","","","","","","","","","","","","chosen stimuli: images/choice_trial_8.png","","","",""
"html-keyboard-response","59","117154","0.0-26.0-2.0","","null","","null","delaylearn","learning","feedback_duration_window","5ed8162f9883863100f36190","q4XuhzhMCAYi2P6nzNVGoXi6crA2","","","","","","","","","","","","","","","","","","7000","","",""
"html-keyboard-response","60","118663","0.0-26.0-3.0","","null","<div style='margin:auto;width: auto; font-size: 150%'><span style='font-weight: bold; font-size: 100px; color: green;'>+10 points!</span><br><br></div>","null","delaylearn","learning","feedback_image_window","5ed8162f9883863100f36190","q4XuhzhMCAYi2P6nzNVGoXi6crA2","","","","","","","","","","","","","","","","","","","","",""
"html-keyboard-response","61","120723","0.0-27.0","","null","<div style=""font-size:100px;"">+</div>","null","delaylearn","learning","ITI","5ed8162f9883863100f36190","q4XuhzhMCAYi2P6nzNVGoXi6crA2","","","","","","","","","","","","","","","","","","","2048","",""
"html-keyboard-response","62","123189","0.0-28.0-0.0","","2464.5999999940395","<div style=""display: flex; flex-direction: column; align-items: center; margin-top: -40px;""><img src=""images/pattern_5.png"" style=""width: 234px; height: 230px; margin-top: -50px;""><div style=""display: flex; justify-content: space-between; margin-top: 33px;""><img src=""images/choice_trial_15.png"" style=""width: 408px; height: 417px; margin-right: 200px;""><img src=""images/choice_trial_5.png"" style=""width: 408px; height: 417px;""></div></div>","f","delaylearn","learning","trial","5ed8162f9883863100f36190","q4XuhzhMCAYi2P6nzNVGoXi6crA2","4","images/choice_trial_15.png","images/choice_trial_5.png","images/pattern_5.png","j","j","750","15","5","4","1","12","0","0","15","80","","","","",""
"html-keyboard-response","63","124197","0.0-28.0-1.0","","null","<div style=""display: flex; flex-direction: column; align-items: center; margin-top: -40px;""><img src=""images/pattern_5.png"" style=""width: 234px; height: 230px; margin-top: -50px;""><div style=""display: flex; justify-content: space-between; margin-top: 33px;""><img src=""images/choice_trial_15.png"" style=""width: 408px; height: 417px; margin-right: 608px;""></div></div>","null","delaylearn","learning","display_response","5ed8162f9883863100f36190","q4XuhzhMCAYi2P6nzNVGoXi6crA2","","","","","","","","","","","","","","","","","chosen stimuli: images/choice_trial_15.png","","","",""
"html-keyboard-response","64","124957","0.0-28.0-2.0","","null","","null","delaylearn","learning","feedback_duration_window","5ed8162f9883863100f36190","q4XuhzhMCAYi2P6nzNVGoXi6crA2","","","","","","","","","","","","","","","","","","750","","",""
"html-keyboard-response","65","126468","0.0-28.0-3.0","","null","<div style='margin:auto;width: auto; font-size: 150%'><span style='font-weight: bold; font-size: 100px; color: red;'>0 points!</span><br><br></div>","null","delaylearn","learning","feedback_image_window","5ed8162f9883863100f36190","q4XuhzhMCAYi2P6nzNVGoXi6crA2","","","","","","","","","","","","","","","","","","","","",""
"html-keyboard-response","66","128808","0.0-29.0","","null","<div style=""font-size:100px;"">+</div>","null","delaylearn","learning","ITI","5ed8162f9883863100f36190","q4XuhzhMCAYi2P6nzNVGoXi6crA2","","","","","","","","","","","","","","","","","","","2326","",""
"html-keyboard-response","67","130449","0.0-30.0-0.0","","1639.6000000238419","<div style=""display: flex; flex-direction: column; align-items: center; margin-top: -40px;""><img src=""images/pattern_6.png"" style=""width: 234px; height: 230px; margin-top: -50px;""><div style=""display: flex; justify-content: space-between; margin-top: 33px;""><img src=""images/choice_trial_10.png"" style=""width: 408px; height: 417px; margin-right: 200px;""><img src=""images/choice_trial_3.png"" style=""width: 408px; height: 417px;""></div></div>","j","delaylearn","learning","trial","5ed8162f9883863100f36190","q4XuhzhMCAYi2P6nzNVGoXi6crA2","4","images/choice_trial_10.png","images/choice_trial_3.png","images/pattern_6.png","j","f","750","10","3","5","0","13","0","1","3","90","","","","",""
"html-keyboard-response","68","131460","0.0-30.0-1.0","","null","<div style=""display: flex; flex-direction: column; align-items: center; margin-top: -40px;""><img src=""images/pattern_6.png"" style=""width: 234px; height: 230px; margin-top: -50px;""><div style=""display: flex; justify-content: space-between; margin-top: 33px;""><img src=""images/choice_trial_3.png"" style=""width: 408px; height: 417px; margin-left:608px;""></div></div>","null","delaylearn","learning","display_response","5ed8162f9883863100f36190","q4XuhzhMCAYi2P6nzNVGoXi6crA2","","","","","","","","","","","","","","","","","chosen stimuli: images/choice_trial_3.png","","","",""
"html-keyboard-response","69","132217","0.0-30.0-2.0","","null","","null","delaylearn","learning","feedback_duration_window","5ed8162f9883863100f36190","q4XuhzhMCAYi2P6nzNVGoXi6crA2","","","","","","","","","","","","","","","","","","750","","",""
"html-keyboard-response","70","133731","0.0-30.0-3.0","","null","<div style='margin:auto;width: auto; font-size: 150%'><span style='font-weight: bold; font-size: 100px; color: green;'>+10 points!</span><br><br></div>","null","delaylearn","learning","feedback_image_window","5ed8162f9883863100f36190","q4XuhzhMCAYi2P6nzNVGoXi6crA2","","","","","","","","","","","","","","","","","","","","",""
"html-keyboard-response","71","134240","0.0-31.0-0.0","","null","","null","","","mood_trial_fixation","","","","","","","","","","","","","","","","","","","","","","",""
"lmdlab-html-vas-response","72","138148","0.0-31.0-1.0","","2902","How happy are you right now?","0.49382716049382713","delaylearn","learning","mood_trial","5ed8162f9883863100f36190","q4XuhzhMCAYi2P6nzNVGoXi6crA2","","","","","","","","","","","","","","","","","","","","[""Very unhappy"",""Very happy""]",""
"html-keyboard-response","73","140483","0.0-32.0","","null","<div style=""font-size:100px;"">+</div>","null","delaylearn","learning","ITI","5ed8162f9883863100f36190","q4XuhzhMCAYi2P6nzNVGoXi6crA2","","","","","","","","","","","","","","","","","","","2320","",""
"html-keyboard-response","74","142178","0.0-33.0-0.0","","1693.2000000178814","<div style=""display: flex; flex-direction: column; align-items: center; margin-top: -40px;""><img src=""images/pattern_1.png"" style=""width: 234px; height: 230px; margin-top: -50px;""><div style=""display: flex; justify-content: space-between; margin-top: 33px;""><img src=""images/choice_trial_9.png"" style=""width: 408px; height: 417px; margin-right: 200px;""><img src=""images/choice_trial_1.png"" style=""width: 408px; height: 417px;""></div></div>","f","delaylearn","learning","trial","5ed8162f9883863100f36190","q4XuhzhMCAYi2P6nzNVGoXi6crA2","4","images/choice_trial_9.png","images/choice_trial_1.png","images/pattern_1.png","j","j","7000","9","1","1","1","14","0","0","9","90","","","","",""
"html-keyboard-response","75","143189","0.0-33.0-1.0","","null","<div style=""display: flex; flex-direction: column; align-items: center; margin-top: -40px;""><img src=""images/pattern_1.png"" style=""width: 234px; height: 230px; margin-top: -50px;""><div style=""display: flex; justify-content: space-between; margin-top: 33px;""><img src=""images/choice_trial_9.png"" style=""width: 408px; height: 417px; margin-right: 608px;""></div></div>","null","delaylearn","learning","display_response","5ed8162f9883863100f36190","q4XuhzhMCAYi2P6nzNVGoXi6crA2","","","","","","","","","","","","","","","","","chosen stimuli: images/choice_trial_9.png","","","",""
"html-keyboard-response","76","150197","0.0-33.0-2.0","","null","","null","delaylearn","learning","feedback_duration_window","5ed8162f9883863100f36190","q4XuhzhMCAYi2P6nzNVGoXi6crA2","","","","","","","","","","","","","","","","","","7000","","",""
"html-keyboard-response","77","151706","0.0-33.0-3.0","","null","<div style='margin:auto;width: auto; font-size: 150%'><span style='font-weight: bold; font-size: 100px; color: red;'>0 points!</span><br><br></div>","null","delaylearn","learning","feedback_image_window","5ed8162f9883863100f36190","q4XuhzhMCAYi2P6nzNVGoXi6crA2","","","","","","","","","","","","","","","","","","","","",""
"html-keyboard-response","78","153859","0.0-34.0","","null","<div style=""font-size:100px;"">+</div>","null","delaylearn","learning","ITI","5ed8162f9883863100f36190","q4XuhzhMCAYi2P6nzNVGoXi6crA2","","","","","","","","","","","","","","","","","","","2151","",""
"html-keyboard-response","79","154918","0.0-35.0-0.0","","1057.4000000059605","<div style=""display: flex; flex-direction: column; align-items: center; margin-top: -40px;""><img src=""images/pattern_3.png"" style=""width: 234px; height: 230px; margin-top: -50px;""><div style=""display: flex; justify-content: space-between; margin-top: 33px;""><img src=""images/choice_trial_6.png"" style=""width: 408px; height: 417px; margin-right: 200px;""><img src=""images/choice_trial_16.png"" style=""width: 408px; height: 417px;""></div></div>","f","delaylearn","learning","trial","5ed8162f9883863100f36190","q4XuhzhMCAYi2P6nzNVGoXi6crA2","4","images/choice_trial_6.png","images/choice_trial_16.png","images/pattern_3.png","f","j","7000","6","16","2","1","15","0","1","6","100","","","","",""
"html-keyboard-response","80","155932","0.0-35.0-1.0","","null","<div style=""display: flex; flex-direction: column; align-items: center; margin-top: -40px;""><img src=""images/pattern_3.png"" style=""width: 234px; height: 230px; margin-top: -50px;""><div style=""display: flex; justify-content: space-between; margin-top: 33px;""><img src=""images/choice_trial_6.png"" style=""width: 408px; height: 417px; margin-right: 608px;""></div></div>","null","delaylearn","learning","display_response","5ed8162f9883863100f36190","q4XuhzhMCAYi2P6nzNVGoXi6crA2","","","","","","","","","","","","","","","","","chosen stimuli: images/choice_trial_6.png","","","",""
"html-keyboard-response","81","162947","0.0-35.0-2.0","","null","","null","delaylearn","learning","feedback_duration_window","5ed8162f9883863100f36190","q4XuhzhMCAYi2P6nzNVGoXi6crA2","","","","","","","","","","","","","","","","","","7000","","",""
"html-keyboard-response","82","164459","0.0-35.0-3.0","","null","<div style='margin:auto;width: auto; font-size: 150%'><span style='font-weight: bold; font-size: 100px; color: green;'>+10 points!</span><br><br></div>","null","delaylearn","learning","feedback_image_window","5ed8162f9883863100f36190","q4XuhzhMCAYi2P6nzNVGoXi6crA2","","","","","","","","","","","","","","","","","","","","",""
"html-keyboard-response","83","166607","0.0-36.0","","null","<div style=""font-size:100px;"">+</div>","null","delaylearn","learning","ITI","5ed8162f9883863100f36190","q4XuhzhMCAYi2P6nzNVGoXi6crA2","","","","","","","","","","","","","","","","","","","2144","",""
"html-keyboard-response","84","168058","0.0-37.0-0.0","","1449.9000000059605","<div style=""display: flex; flex-direction: column; align-items: center; margin-top: -40px;""><img src=""images/pattern_5.png"" style=""width: 234px; height: 230px; margin-top: -50px;""><div style=""display: flex; justify-content: space-between; margin-top: 33px;""><img src=""images/choice_trial_5.png"" style=""width: 408px; height: 417px; margin-right: 200px;""><img src=""images/choice_trial_15.png"" style=""width: 408px; height: 417px;""></div></div>","j","delaylearn","learning","trial","5ed8162f9883863100f36190","q4XuhzhMCAYi2P6nzNVGoXi6crA2","4","images/choice_trial_5.png","images/choice_trial_15.png","images/pattern_5.png","f","f","750","5","15","4","0","16","0","0","15","100","","","","",""
"html-keyboard-response","85","169072","0.0-37.0-1.0","","null","<div style=""display: flex; flex-direction: column; align-items: center; margin-top: -40px;""><img src=""images/pattern_5.png"" style=""width: 234px; height: 230px; margin-top: -50px;""><div style=""display: flex; justify-content: space-between; margin-top: 33px;""><img src=""images/choice_trial_15.png"" style=""width: 408px; height: 417px; margin-left:608px;""></div></div>","null","delaylearn","learning","display_response","5ed8162f9883863100f36190","q4XuhzhMCAYi2P6nzNVGoXi6crA2","","","","","","","","","","","","","","","","","chosen stimuli: images/choice_trial_15.png","","","",""
"html-keyboard-response","86","169834","0.0-37.0-2.0","","null","","null","delaylearn","learning","feedback_duration_window","5ed8162f9883863100f36190","q4XuhzhMCAYi2P6nzNVGoXi6crA2","","","","","","","","","","","","","","","","","","750","","",""
"html-keyboard-response","87","171348","0.0-37.0-3.0","","null","<div style='margin:auto;width: auto; font-size: 150%'><span style='font-weight: bold; font-size: 100px; color: red;'>0 points!</span><br><br></div>","null","delaylearn","learning","feedback_image_window","5ed8162f9883863100f36190","q4XuhzhMCAYi2P6nzNVGoXi6crA2","","","","","","","","","","","","","","","","","","","","",""
"html-keyboard-response","88","171855","0.0-38.0-0.0","","null","","null","","","mood_trial_fixation","","","","","","","","","","","","","","","","","","","","","","",""
"lmdlab-html-vas-response","89","175754","0.0-38.0-1.0","","2891","How happy are you right now?","0.4675925925925926","delaylearn","learning","mood_trial","5ed8162f9883863100f36190","q4XuhzhMCAYi2P6nzNVGoXi6crA2","","","","","","","","","","","","","","","","","","","","[""Very unhappy"",""Very happy""]",""
"html-keyboard-response","90","177365","0.0-39.0","","null","<div style=""font-size:100px;"">+</div>","null","delaylearn","learning","ITI","5ed8162f9883863100f36190","q4XuhzhMCAYi2P6nzNVGoXi6crA2","","","","","","","","","","","","","","","","","","","1600","",""
"html-keyboard-response","91","179188","0.0-40.0-0.0","","1821.5","<div style=""display: flex; flex-direction: column; align-items: center; margin-top: -40px;""><img src=""images/pattern_6.png"" style=""width: 234px; height: 230px; margin-top: -50px;""><div style=""display: flex; justify-content: space-between; margin-top: 33px;""><img src=""images/choice_trial_10.png"" style=""width: 408px; height: 417px; margin-right: 200px;""><img src=""images/choice_trial_3.png"" style=""width: 408px; height: 417px;""></div></div>","f","delaylearn","learning","trial","5ed8162f9883863100f36190","q4XuhzhMCAYi2P6nzNVGoXi6crA2","4","images/choice_trial_10.png","images/choice_trial_3.png","images/pattern_6.png","f","f","750","10","3","5","0","17","1","1","10","110","","","","",""
"html-keyboard-response","92","180195","0.0-40.0-1.0","","null","<div style=""display: flex; flex-direction: column; align-items: center; margin-top: -40px;""><img src=""images/pattern_6.png"" style=""width: 234px; height: 230px; margin-top: -50px;""><div style=""display: flex; justify-content: space-between; margin-top: 33px;""><img src=""images/choice_trial_10.png"" style=""width: 408px; height: 417px; margin-right: 608px;""></div></div>","null","delaylearn","learning","display_response","5ed8162f9883863100f36190","q4XuhzhMCAYi2P6nzNVGoXi6crA2","","","","","","","","","","","","","","","","","chosen stimuli: images/choice_trial_10.png","","","",""
"html-keyboard-response","93","180959","0.0-40.0-2.0","","null","","null","delaylearn","learning","feedback_duration_window","5ed8162f9883863100f36190","q4XuhzhMCAYi2P6nzNVGoXi6crA2","","","","","","","","","","","","","","","","","","750","","",""
"html-keyboard-response","94","182467","0.0-40.0-3.0","","null","<div style='margin:auto;width: auto; font-size: 150%'><span style='font-weight: bold; font-size: 100px; color: green;'>+10 points!</span><br><br></div>","null","delaylearn","learning","feedback_image_window","5ed8162f9883863100f36190","q4XuhzhMCAYi2P6nzNVGoXi6crA2","","","","","","","","","","","","","","","","","","","","",""
"html-keyboard-response","95","184339","0.0-41.0","","null","<div style=""font-size:100px;"">+</div>","null","delaylearn","learning","ITI","5ed8162f9883863100f36190","q4XuhzhMCAYi2P6nzNVGoXi6crA2","","","","","","","","","","","","","","","","","","","1867","",""
"html-keyboard-response","96","186407","0.0-42.0-0.0","","2066.5999999940395","<div style=""display: flex; flex-direction: column; align-items: center; margin-top: -40px;""><img src=""images/pattern_4.png"" style=""width: 234px; height: 230px; margin-top: -50px;""><div style=""display: flex; justify-content: space-between; margin-top: 33px;""><img src=""images/choice_trial_7.png"" style=""width: 408px; height: 417px; margin-right: 200px;""><img src=""images/choice_trial_8.png"" style=""width: 408px; height: 417px;""></div></div>","j","delaylearn","learning","trial","5ed8162f9883863100f36190","q4XuhzhMCAYi2P6nzNVGoXi6crA2","4","images/choice_trial_7.png","images/choice_trial_8.png","images/pattern_4.png","j","j","7000","7","8","3","1","18","1","1","8","120","","","","",""
"html-keyboard-response","97","187417","0.0-42.0-1.0","","null","<div style=""display: flex; flex-direction: column; align-items: center; margin-top: -40px;""><img src=""images/pattern_4.png"" style=""width: 234px; height: 230px; margin-top: -50px;""><div style=""display: flex; justify-content: space-between; margin-top: 33px;""><img src=""images/choice_trial_8.png"" style=""width: 408px; height: 417px; margin-left:608px;""></div></div>","null","delaylearn","learning","display_response","5ed8162f9883863100f36190","q4XuhzhMCAYi2P6nzNVGoXi6crA2","","","","","","","","","","","","","","","","","chosen stimuli: images/choice_trial_8.png","","","",""
"html-keyboard-response","98","194425","0.0-42.0-2.0","","null","","null","delaylearn","learning","feedback_duration_window","5ed8162f9883863100f36190","q4XuhzhMCAYi2P6nzNVGoXi6crA2","","","","","","","","","","","","","","","","","","7000","","",""
"html-keyboard-response","99","195932","0.0-42.0-3.0","","null","<div style='margin:auto;width: auto; font-size: 150%'><span style='font-weight: bold; font-size: 100px; color: green;'>+10 points!</span><br><br></div>","null","delaylearn","learning","feedback_image_window","5ed8162f9883863100f36190","q4XuhzhMCAYi2P6nzNVGoXi6crA2","","","","","","","","","","","","","","","","","","","","",""
"html-keyboard-response","100","198039","0.0-43.0","","null","<div style=""font-size:100px;"">+</div>","null","delaylearn","learning","ITI","5ed8162f9883863100f36190","q4XuhzhMCAYi2P6nzNVGoXi6crA2","","","","","","","","","","","","","","","","","","","2097","",""
"html-keyboard-response","101","200136","0.0-44.0-0.0","","2096.2000000178814","<div style=""display: flex; flex-direction: column; align-items: center; margin-top: -40px;""><img src=""images/pattern_7.png"" style=""width: 234px; height: 230px; margin-top: -50px;""><div style=""display: flex; justify-content: space-between; margin-top: 33px;""><img src=""images/choice_trial_13.png"" style=""width: 408px; height: 417px; margin-right: 200px;""><img src=""images/choice_trial_4.png"" style=""width: 408px; height: 417px;""></div></div>","f","delaylearn","learning","trial","5ed8162f9883863100f36190","q4XuhzhMCAYi2P6nzNVGoXi6crA2","4","images/choice_trial_13.png","images/choice_trial_4.png","images/pattern_7.png","j","f","750","13","4","6","0","19","1","0","13","120","","","","",""
"html-keyboard-response","102","201146","0.0-44.0-1.0","","null","<div style=""display: flex; flex-direction: column; align-items: center; margin-top: -40px;""><img src=""images/pattern_7.png"" style=""width: 234px; height: 230px; margin-top: -50px;""><div style=""display: flex; justify-content: space-between; margin-top: 33px;""><img src=""images/choice_trial_13.png"" style=""width: 408px; height: 417px; margin-right: 608px;""></div></div>","null","delaylearn","learning","display_response","5ed8162f9883863100f36190","q4XuhzhMCAYi2P6nzNVGoXi6crA2","","","","","","","","","","","","","","","","","chosen stimuli: images/choice_trial_13.png","","","",""
"html-keyboard-response","103","201903","0.0-44.0-2.0","","null","","null","delaylearn","learning","feedback_duration_window","5ed8162f9883863100f36190","q4XuhzhMCAYi2P6nzNVGoXi6crA2","","","","","","","","","","","","","","","","","","750","","",""
"html-keyboard-response","104","203417","0.0-44.0-3.0","","null","<div style='margin:auto;width: auto; font-size: 150%'><span style='font-weight: bold; font-size: 100px; color: red;'>0 points!</span><br><br></div>","null","delaylearn","learning","feedback_image_window","5ed8162f9883863100f36190","q4XuhzhMCAYi2P6nzNVGoXi6crA2","","","","","","","","","","","","","","","","","","","","",""
"html-keyboard-response","105","205399","0.0-45.0","","null","<div style=""font-size:100px;"">+</div>","null","delaylearn","learning","ITI","5ed8162f9883863100f36190","q4XuhzhMCAYi2P6nzNVGoXi6crA2","","","","","","","","","","","","","","","","","","","1973","",""
"html-keyboard-response","106","207646","0.0-46.0-0.0","","2245.300000011921","<div style=""display: flex; flex-direction: column; align-items: center; margin-top: -40px;""><img src=""images/pattern_1.png"" style=""width: 234px; height: 230px; margin-top: -50px;""><div style=""display: flex; justify-content: space-between; margin-top: 33px;""><img src=""images/choice_trial_1.png"" style=""width: 408px; height: 417px; margin-right: 200px;""><img src=""images/choice_trial_9.png"" style=""width: 408px; height: 417px;""></div></div>","f","delaylearn","learning","trial","5ed8162f9883863100f36190","q4XuhzhMCAYi2P6nzNVGoXi6crA2","4","images/choice_trial_1.png","images/choice_trial_9.png","images/pattern_1.png","f","f","7000","1","9","1","0","20","1","1","1","130","","","","",""
"html-keyboard-response","107","208660","0.0-46.0-1.0","","null","<div style=""display: flex; flex-direction: column; align-items: center; margin-top: -40px;""><img src=""images/pattern_1.png"" style=""width: 234px; height: 230px; margin-top: -50px;""><div style=""display: flex; justify-content: space-between; margin-top: 33px;""><img src=""images/choice_trial_1.png"" style=""width: 408px; height: 417px; margin-right: 608px;""></div></div>","null","delaylearn","learning","display_response","5ed8162f9883863100f36190","q4XuhzhMCAYi2P6nzNVGoXi6crA2","","","","","","","","","","","","","","","","","chosen stimuli: images/choice_trial_1.png","","","",""
"html-keyboard-response","108","215672","0.0-46.0-2.0","","null","","null","delaylearn","learning","feedback_duration_window","5ed8162f9883863100f36190","q4XuhzhMCAYi2P6nzNVGoXi6crA2","","","","","","","","","","","","","","","","","","7000","","",""
"html-keyboard-response","109","217186","0.0-46.0-3.0","","null","<div style='margin:auto;width: auto; font-size: 150%'><span style='font-weight: bold; font-size: 100px; color: green;'>+10 points!</span><br><br></div>","null","delaylearn","learning","feedback_image_window","5ed8162f9883863100f36190","q4XuhzhMCAYi2P6nzNVGoXi6crA2","","","","","","","","","","","","","","","","","","","","",""
"html-keyboard-response","110","219601","0.0-47.0","","null","<div style=""font-size:100px;"">+</div>","null","delaylearn","learning","ITI","5ed8162f9883863100f36190","q4XuhzhMCAYi2P6nzNVGoXi6crA2","","","","","","","","","","","","","","","","","","","2398","",""
"html-keyboard-response","111","221296","0.0-48.0-0.0","","1693.5","<div style=""display: flex; flex-direction: column; align-items: center; margin-top: -40px;""><img src=""images/pattern_6.png"" style=""width: 234px; height: 230px; margin-top: -50px;""><div style=""display: flex; justify-content: space-between; margin-top: 33px;""><img src=""images/choice_trial_3.png"" style=""width: 408px; height: 417px; margin-right: 200px;""><img src=""images/choice_trial_10.png"" style=""width: 408px; height: 417px;""></div></div>","j","delaylearn","learning","trial","5ed8162f9883863100f36190","q4XuhzhMCAYi2P6nzNVGoXi6crA2","4","images/choice_trial_3.png","images/choice_trial_10.png","images/pattern_6.png","j","j","750","3","10","5","1","21","1","1","10","140","","","","",""
"html-keyboard-response","112","222305","0.0-48.0-1.0","","null","<div style=""display: flex; flex-direction: column; align-items: center; margin-top: -40px;""><img src=""images/pattern_6.png"" style=""width: 234px; height: 230px; margin-top: -50px;""><div style=""display: flex; justify-content: space-between; margin-top: 33px;""><img src=""images/choice_trial_10.png"" style=""width: 408px; height: 417px; margin-left:608px;""></div></div>","null","delaylearn","learning","display_response","5ed8162f9883863100f36190","q4XuhzhMCAYi2P6nzNVGoXi6crA2","","","","","","","","","","","","","","","","","chosen stimuli: images/choice_trial_10.png","","","",""
"html-keyboard-response","113","223069","0.0-48.0-2.0","","null","","null","delaylearn","learning","feedback_duration_window","5ed8162f9883863100f36190","q4XuhzhMCAYi2P6nzNVGoXi6crA2","","","","","","","","","","","","","","","","","","750","","",""
"html-keyboard-response","114","224583","0.0-48.0-3.0","","null","<div style='margin:auto;width: auto; font-size: 150%'><span style='font-weight: bold; font-size: 100px; color: green;'>+10 points!</span><br><br></div>","null","delaylearn","learning","feedback_image_window","5ed8162f9883863100f36190","q4XuhzhMCAYi2P6nzNVGoXi6crA2","","","","","","","","","","","","","","","","","","","","",""
"html-keyboard-response","115","226990","0.0-49.0","","null","<div style=""font-size:100px;"">+</div>","null","delaylearn","learning","ITI","5ed8162f9883863100f36190","q4XuhzhMCAYi2P6nzNVGoXi6crA2","","","","","","","","","","","","","","","","","","","2400","",""
"html-keyboard-response","116","228685","0.0-50.0-0.0","","1693.800000011921","<div style=""display: flex; flex-direction: column; align-items: center; margin-top: -40px;""><img src=""images/pattern_4.png"" style=""width: 234px; height: 230px; margin-top: -50px;""><div style=""display: flex; justify-content: space-between; margin-top: 33px;""><img src=""images/choice_trial_8.png"" style=""width: 408px; height: 417px; margin-right: 200px;""><img src=""images/choice_trial_7.png"" style=""width: 408px; height: 417px;""></div></div>","f","delaylearn","learning","trial","5ed8162f9883863100f36190","q4XuhzhMCAYi2P6nzNVGoXi6crA2","4","images/choice_trial_8.png","images/choice_trial_7.png","images/pattern_4.png","f","f","7000","8","7","3","0","22","1","1","8","150","","","","",""
"html-keyboard-response","117","229693","0.0-50.0-1.0","","null","<div style=""display: flex; flex-direction: column; align-items: center; margin-top: -40px;""><img src=""images/pattern_4.png"" style=""width: 234px; height: 230px; margin-top: -50px;""><div style=""display: flex; justify-content: space-between; margin-top: 33px;""><img src=""images/choice_trial_8.png"" style=""width: 408px; height: 417px; margin-right: 608px;""></div></div>","null","delaylearn","learning","display_response","5ed8162f9883863100f36190","q4XuhzhMCAYi2P6nzNVGoXi6crA2","","","","","","","","","","","","","","","","","chosen stimuli: images/choice_trial_8.png","","","",""
"html-keyboard-response","118","236702","0.0-50.0-2.0","","null","","null","delaylearn","learning","feedback_duration_window","5ed8162f9883863100f36190","q4XuhzhMCAYi2P6nzNVGoXi6crA2","","","","","","","","","","","","","","","","","","7000","","",""
"html-keyboard-response","119","238214","0.0-50.0-3.0","","null","<div style='margin:auto;width: auto; font-size: 150%'><span style='font-weight: bold; font-size: 100px; color: green;'>+10 points!</span><br><br></div>","null","delaylearn","learning","feedback_image_window","5ed8162f9883863100f36190","q4XuhzhMCAYi2P6nzNVGoXi6crA2","","","","","","","","","","","","","","","","","","","","",""
"html-keyboard-response","120","238723","0.0-51.0-0.0","","null","","null","","","mood_trial_fixation","","","","","","","","","","","","","","","","","","","","","","",""
"lmdlab-html-vas-response","121","245400","0.0-51.0-1.0","","5671","How happy are you right now?","0.5308641975308642","delaylearn","learning","mood_trial","5ed8162f9883863100f36190","q4XuhzhMCAYi2P6nzNVGoXi6crA2","","","","","","","","","","","","","","","","","","","","[""Very unhappy"",""Very happy""]",""
"html-keyboard-response","122","247856","0.0-52.0","","null","<div style=""font-size:100px;"">+</div>","null","delaylearn","learning","ITI","5ed8162f9883863100f36190","q4XuhzhMCAYi2P6nzNVGoXi6crA2","","","","","","","","","","","","","","","","","","","2441","",""
"html-keyboard-response","123","250867","0.0-53.0-0.0","","null","<div style=""display: flex; flex-direction: column; align-items: center; margin-top: -40px;""><img src=""images/pattern_7.png"" style=""width: 234px; height: 230px; margin-top: -50px;""><div style=""display: flex; justify-content: space-between; margin-top: 33px;""><img src=""images/choice_trial_4.png"" style=""width: 408px; height: 417px; margin-right: 200px;""><img src=""images/choice_trial_13.png"" style=""width: 408px; height: 417px;""></div></div>","null","delaylearn","learning","trial","5ed8162f9883863100f36190","q4XuhzhMCAYi2P6nzNVGoXi6crA2","4","images/choice_trial_4.png","images/choice_trial_13.png","images/pattern_7.png","j","j","750","4","13","6","1","23","0","0","0","150","","","","",""
"html-keyboard-response","124","251873","0.0-53.0-1.0","","null","<div style='font-weight: bold; font-size: 75px; color: red;'>Missed Trial <br><br><br><br> Please respond faster</div>","null","delaylearn","learning","display_response","5ed8162f9883863100f36190","q4XuhzhMCAYi2P6nzNVGoXi6crA2","","","","","","","","","","","","","","","","","Missed trial","","","",""
"html-keyboard-response","125","251878","0.0-53.0-2.0","","null","","null","delaylearn","learning","feedback_duration_window","5ed8162f9883863100f36190","q4XuhzhMCAYi2P6nzNVGoXi6crA2","","","","","","","","","","","","","","","","","","0","","",""
"html-keyboard-response","126","251883","0.0-53.0-3.0","","null","","null","delaylearn","learning","feedback_image_window","5ed8162f9883863100f36190","q4XuhzhMCAYi2P6nzNVGoXi6crA2","","","","","","","","","","","","","","","","","","","","",""
"html-keyboard-response","127","254113","0.0-54.0","","null","<div style=""font-size:100px;"">+</div>","null","delaylearn","learning","ITI","5ed8162f9883863100f36190","q4XuhzhMCAYi2P6nzNVGoXi6crA2","","","","","","","","","","","","","","","","","","","2222","",""
"html-keyboard-response","128","256225","0.0-55.0-0.0","","2110.100000023842","<div style=""display: flex; flex-direction: column; align-items: center; margin-top: -40px;""><img src=""images/pattern_1.png"" style=""width: 234px; height: 230px; margin-top: -50px;""><div style=""display: flex; justify-content: space-between; margin-top: 33px;""><img src=""images/choice_trial_9.png"" style=""width: 408px; height: 417px; margin-right: 200px;""><img src=""images/choice_trial_1.png"" style=""width: 408px; height: 417px;""></div></div>","j","delaylearn","learning","trial","5ed8162f9883863100f36190","q4XuhzhMCAYi2P6nzNVGoXi6crA2","4","images/choice_trial_9.png","images/choice_trial_1.png","images/pattern_1.png","f","j","7000","9","1","1","1","24","1","0","1","150","","","","",""
"html-keyboard-response","129","257234","0.0-55.0-1.0","","null","<div style=""display: flex; flex-direction: column; align-items: center; margin-top: -40px;""><img src=""images/pattern_1.png"" style=""width: 234px; height: 230px; margin-top: -50px;""><div style=""display: flex; justify-content: space-between; margin-top: 33px;""><img src=""images/choice_trial_1.png"" style=""width: 408px; height: 417px; margin-left:608px;""></div></div>","null","delaylearn","learning","display_response","5ed8162f9883863100f36190","q4XuhzhMCAYi2P6nzNVGoXi6crA2","","","","","","","","","","","","","","","","","chosen stimuli: images/choice_trial_1.png","","","",""
"html-keyboard-response","130","264242","0.0-55.0-2.0","","null","","null","delaylearn","learning","feedback_duration_window","5ed8162f9883863100f36190","q4XuhzhMCAYi2P6nzNVGoXi6crA2","","","","","","","","","","","","","","","","","","7000","","",""
"html-keyboard-response","131","265755","0.0-55.0-3.0","","null","<div style='margin:auto;width: auto; font-size: 150%'><span style='font-weight: bold; font-size: 100px; color: red;'>0 points!</span><br><br></div>","null","delaylearn","learning","feedback_image_window","5ed8162f9883863100f36190","q4XuhzhMCAYi2P6nzNVGoXi6crA2","","","","","","","","","","","","","","","","","","","","",""
"html-keyboard-response","132","268200","0.0-56.0","","null","<div style=""font-size:100px;"">+</div>","null","delaylearn","learning","ITI","5ed8162f9883863100f36190","q4XuhzhMCAYi2P6nzNVGoXi6crA2","","","","","","","","","","","","","","","","","","","2434","",""
"html-keyboard-response","133","269554","0.0-57.0-0.0","","1352.5999999940395","<div style=""display: flex; flex-direction: column; align-items: center; margin-top: -40px;""><img src=""images/pattern_5.png"" style=""width: 234px; height: 230px; margin-top: -50px;""><div style=""display: flex; justify-content: space-between; margin-top: 33px;""><img src=""images/choice_trial_15.png"" style=""width: 408px; height: 417px; margin-right: 200px;""><img src=""images/choice_trial_5.png"" style=""width: 408px; height: 417px;""></div></div>","f","delaylearn","learning","trial","5ed8162f9883863100f36190","q4XuhzhMCAYi2P6nzNVGoXi6crA2","4","images/choice_trial_15.png","images/choice_trial_5.png","images/pattern_5.png","j","j","750","15","5","4","1","25","0","0","15","150","","","","",""
"html-keyboard-response","134","270567","0.0-57.0-1.0","","null","<div style=""display: flex; flex-direction: column; align-items: center; margin-top: -40px;""><img src=""images/pattern_5.png"" style=""width: 234px; height: 230px; margin-top: -50px;""><div style=""display: flex; justify-content: space-between; margin-top: 33px;""><img src=""images/choice_trial_15.png"" style=""width: 408px; height: 417px; margin-right: 608px;""></div></div>","null","delaylearn","learning","display_response","5ed8162f9883863100f36190","q4XuhzhMCAYi2P6nzNVGoXi6crA2","","","","","","","","","","","","","","","","","chosen stimuli: images/choice_trial_15.png","","","",""
"html-keyboard-response","135","271331","0.0-57.0-2.0","","null","","null","delaylearn","learning","feedback_duration_window","5ed8162f9883863100f36190","q4XuhzhMCAYi2P6nzNVGoXi6crA2","","","","","","","","","","","","","","","","","","750","","",""
"html-keyboard-response","136","272845","0.0-57.0-3.0","","null","<div style='margin:auto;width: auto; font-size: 150%'><span style='font-weight: bold; font-size: 100px; color: red;'>0 points!</span><br><br></div>","null","delaylearn","learning","feedback_image_window","5ed8162f9883863100f36190","q4XuhzhMCAYi2P6nzNVGoXi6crA2","","","","","","","","","","","","","","","","","","","","",""
"html-keyboard-response","137","274899","0.0-58.0","","null","<div style=""font-size:100px;"">+</div>","null","delaylearn","learning","ITI","5ed8162f9883863100f36190","q4XuhzhMCAYi2P6nzNVGoXi6crA2","","","","","","","","","","","","","","","","","","","2040","",""
"html-keyboard-response","138","276844","0.0-59.0-0.0","","1943.5","<div style=""display: flex; flex-direction: column; align-items: center; margin-top: -40px;""><img src=""images/pattern_3.png"" style=""width: 234px; height: 230px; margin-top: -50px;""><div style=""display: flex; justify-content: space-between; margin-top: 33px;""><img src=""images/choice_trial_6.png"" style=""width: 408px; height: 417px; margin-right: 200px;""><img src=""images/choice_trial_16.png"" style=""width: 408px; height: 417px;""></div></div>","j","delaylearn","learning","trial","5ed8162f9883863100f36190","q4XuhzhMCAYi2P6nzNVGoXi6crA2","4","images/choice_trial_6.png","images/choice_trial_16.png","images/pattern_3.png","j","j","7000","6","16","2","1","26","1","1","16","160","","","","",""
"html-keyboard-response","139","277852","0.0-59.0-1.0","","null","<div style=""display: flex; flex-direction: column; align-items: center; margin-top: -40px;""><img src=""images/pattern_3.png"" style=""width: 234px; height: 230px; margin-top: -50px;""><div style=""display: flex; justify-content: space-between; margin-top: 33px;""><img src=""images/choice_trial_16.png"" style=""width: 408px; height: 417px; margin-left:608px;""></div></div>","null","delaylearn","learning","display_response","5ed8162f9883863100f36190","q4XuhzhMCAYi2P6nzNVGoXi6crA2","","","","","","","","","","","","","","","","","chosen stimuli: images/choice_trial_16.png","","","",""
"html-keyboard-response","140","284860","0.0-59.0-2.0","","null","","null","delaylearn","learning","feedback_duration_window","5ed8162f9883863100f36190","q4XuhzhMCAYi2P6nzNVGoXi6crA2","","","","","","","","","","","","","","","","","","7000","","",""
"html-keyboard-response","141","286372","0.0-59.0-3.0","","null","<div style='margin:auto;width: auto; font-size: 150%'><span style='font-weight: bold; font-size: 100px; color: green;'>+10 points!</span><br><br></div>","null","delaylearn","learning","feedback_image_window","5ed8162f9883863100f36190","q4XuhzhMCAYi2P6nzNVGoXi6crA2","","","","","","","","","","","","","","","","","","","","",""
"lmdlab-html-vas-response","142","291059","0.0-60.0-0.0","","3173","*How <b><u>confident</u></b> are you feeling about your answers at this moment?*","0.3950617283950617","rewlearn","rate_confidence","","5ed8162f9883863100f36190","q4XuhzhMCAYi2P6nzNVGoXi6crA2","","","","","","","","","","","","","","","","","","","","[""No confidence"",""Complete confidence""]",""
"lmdlab-rest-trial-limit","143","300865","0.0-60.0-1.0","","8303.799999982119","<div style=""font-size:40px;""><b>Please take a break!</b><br><br><br><br><p>Great work: you earned 160 points.<br><br><br><p>You have completed part(s) 1 of 5.<br><br><br><br>When you are ready to continue<br><br><br>please click the button.</p><br><br>","0","delaylearn","learning","break","5ed8162f9883863100f36190","q4XuhzhMCAYi2P6nzNVGoXi6crA2","","","","","","","","","","","","","","","","","","","","","0"
"html-keyboard-response","144","303879","0.0-60.0-2.0","","null","<div style=""font-size:100px;"">+</div>","null","delaylearn","learning","pre_fixation","5ed8162f9883863100f36190","","","","","","","","","","","","","","","","","","","","","",""
"lmdlab-html-vas-response","145","309063","0.0-60.0-3.0-0.0","","4179","How happy are you right now?","0.5493827160493827","delaylearn","learning","mood_baseline","5ed8162f9883863100f36190","q4XuhzhMCAYi2P6nzNVGoXi6crA2","","","","","","","","","","","","","","","","","","","","[""Very unhappy"",""Very happy""]",""
"html-keyboard-response","146","310574","0.0-60.0-3.0-1.0","","null","","null","","","mood_baseline_fixation","","","","","","","","","","","","","","","","","","","","","","",""
"html-keyboard-response","147","312699","0.0-61.0","","null","<div style=""font-size:100px;"">+</div>","null","delaylearn","learning","ITI","5ed8162f9883863100f36190","q4XuhzhMCAYi2P6nzNVGoXi6crA2","","","","","","","","","","","","","","","","","","","2121","",""
"html-keyboard-response","148","314463","0.0-62.0-0.0","","1763","<div style=""display: flex; flex-direction: column; align-items: center; margin-top: -40px;""><img src=""images/pattern_7.png"" style=""width: 234px; height: 230px; margin-top: -50px;""><div style=""display: flex; justify-content: space-between; margin-top: 33px;""><img src=""images/choice_trial_4.png"" style=""width: 408px; height: 417px; margin-right: 200px;""><img src=""images/choice_trial_13.png"" style=""width: 408px; height: 417px;""></div></div>","j","delaylearn","learning","trial","5ed8162f9883863100f36190","q4XuhzhMCAYi2P6nzNVGoXi6crA2","4","images/choice_trial_4.png","images/choice_trial_13.png","images/pattern_7.png","j","j","750","4","13","6","1","27","1","1","13","170","","","","",""
"html-keyboard-response","149","315476","0.0-62.0-1.0","","null","<div style=""display: flex; flex-direction: column; align-items: center; margin-top: -40px;""><img src=""images/pattern_7.png"" style=""width: 234px; height: 230px; margin-top: -50px;""><div style=""display: flex; justify-content: space-between; margin-top: 33px;""><img src=""images/choice_trial_13.png"" style=""width: 408px; height: 417px; margin-left:608px;""></div></div>","null","delaylearn","learning","display_response","5ed8162f9883863100f36190","q4XuhzhMCAYi2P6nzNVGoXi6crA2","","","","","","","","","","","","","","","","","chosen stimuli: images/choice_trial_13.png","","","",""
"html-keyboard-response","150","316240","0.0-62.0-2.0","","null","","null","delaylearn","learning","feedback_duration_window","5ed8162f9883863100f36190","q4XuhzhMCAYi2P6nzNVGoXi6crA2","","","","","","","","","","","","","","","","","","750","","",""
"html-keyboard-response","151","317754","0.0-62.0-3.0","","null","<div style='margin:auto;width: auto; font-size: 150%'><span style='font-weight: bold; font-size: 100px; color: green;'>+10 points!</span><br><br></div>","null","delaylearn","learning","feedback_image_window","5ed8162f9883863100f36190","q4XuhzhMCAYi2P6nzNVGoXi6crA2","","","","","","","","","","","","","","","","","","","","",""
"html-keyboard-response","152","318267","0.0-63.0-0.0","","null","","null","","","mood_trial_fixation","","","","","","","","","","","","","","","","","","","","","","",""
"lmdlab-html-vas-response","153","322962","0.0-63.0-1.0","","3678","How happy are you right now?","0.5740740740740741","delaylearn","learning","mood_trial","5ed8162f9883863100f36190","q4XuhzhMCAYi2P6nzNVGoXi6crA2","","","","","","","","","","","","","","","","","","","","[""Very unhappy"",""Very happy""]",""
"html-keyboard-response","154","325295","0.0-64.0","","null","<div style=""font-size:100px;"">+</div>","null","delaylearn","learning","ITI","5ed8162f9883863100f36190","q4XuhzhMCAYi2P6nzNVGoXi6crA2","","","","","","","","","","","","","","","","","","","2329","",""
"html-keyboard-response","155","327153","0.0-65.0-0.0","","1856.699999988079","<div style=""display: flex; flex-direction: column; align-items: center; margin-top: -40px;""><img src=""images/pattern_1.png"" style=""width: 234px; height: 230px; margin-top: -50px;""><div style=""display: flex; justify-content: space-between; margin-top: 33px;""><img src=""images/choice_trial_1.png"" style=""width: 408px; height: 417px; margin-right: 200px;""><img src=""images/choice_trial_9.png"" style=""width: 408px; height: 417px;""></div></div>","f","delaylearn","learning","trial","5ed8162f9883863100f36190","q4XuhzhMCAYi2P6nzNVGoXi6crA2","4","images/choice_trial_1.png","images/choice_trial_9.png","images/pattern_1.png","f","f","7000","1","9","1","0","28","1","1","1","180","","","","",""
"html-keyboard-response","156","328164","0.0-65.0-1.0","","null","<div style=""display: flex; flex-direction: column; align-items: center; margin-top: -40px;""><img src=""images/pattern_1.png"" style=""width: 234px; height: 230px; margin-top: -50px;""><div style=""display: flex; justify-content: space-between; margin-top: 33px;""><img src=""images/choice_trial_1.png"" style=""width: 408px; height: 417px; margin-right: 608px;""></div></div>","null","delaylearn","learning","display_response","5ed8162f9883863100f36190","q4XuhzhMCAYi2P6nzNVGoXi6crA2","","","","","","","","","","","","","","","","","chosen stimuli: images/choice_trial_1.png","","","",""
"html-keyboard-response","157","335178","0.0-65.0-2.0","","null","","null","delaylearn","learning","feedback_duration_window","5ed8162f9883863100f36190","q4XuhzhMCAYi2P6nzNVGoXi6crA2","","","","","","","","","","","","","","","","","","7000","","",""
"html-keyboard-response","158","336685","0.0-65.0-3.0","","null","<div style='margin:auto;width: auto; font-size: 150%'><span style='font-weight: bold; font-size: 100px; color: green;'>+10 points!</span><br><br></div>","null","delaylearn","learning","feedback_image_window","5ed8162f9883863100f36190","q4XuhzhMCAYi2P6nzNVGoXi6crA2","","","","","","","","","","","","","","","","","","","","",""
"html-keyboard-response","159","338732","0.0-66.0","","null","<div style=""font-size:100px;"">+</div>","null","delaylearn","learning","ITI","5ed8162f9883863100f36190","q4XuhzhMCAYi2P6nzNVGoXi6crA2","","","","","","","","","","","","","","","","","","","2037","",""
"html-keyboard-response","160","340652","0.0-67.0-0.0","","1918.5","<div style=""display: flex; flex-direction: column; align-items: center; margin-top: -40px;""><img src=""images/pattern_5.png"" style=""width: 234px; height: 230px; margin-top: -50px;""><div style=""display: flex; justify-content: space-between; margin-top: 33px;""><img src=""images/choice_trial_5.png"" style=""width: 408px; height: 417px; margin-right: 200px;""><img src=""images/choice_trial_15.png"" style=""width: 408px; height: 417px;""></div></div>","j","delaylearn","learning","trial","5ed8162f9883863100f36190","q4XuhzhMCAYi2P6nzNVGoXi6crA2","4","images/choice_trial_5.png","images/choice_trial_15.png","images/pattern_5.png","f","f","750","5","15","4","0","29","0","0","15","180","","","","",""
"html-keyboard-response","161","341662","0.0-67.0-1.0","","null","<div style=""display: flex; flex-direction: column; align-items: center; margin-top: -40px;""><img src=""images/pattern_5.png"" style=""width: 234px; height: 230px; margin-top: -50px;""><div style=""display: flex; justify-content: space-between; margin-top: 33px;""><img src=""images/choice_trial_15.png"" style=""width: 408px; height: 417px; margin-left:608px;""></div></div>","null","delaylearn","learning","display_response","5ed8162f9883863100f36190","q4XuhzhMCAYi2P6nzNVGoXi6crA2","","","","","","","","","","","","","","","","","chosen stimuli: images/choice_trial_15.png","","","",""
"html-keyboard-response","162","342420","0.0-67.0-2.0","","null","","null","delaylearn","learning","feedback_duration_window","5ed8162f9883863100f36190","q4XuhzhMCAYi2P6nzNVGoXi6crA2","","","","","","","","","","","","","","","","","","750","","",""
"html-keyboard-response","163","343933","0.0-67.0-3.0","","null","<div style='margin:auto;width: auto; font-size: 150%'><span style='font-weight: bold; font-size: 100px; color: red;'>0 points!</span><br><br></div>","null","delaylearn","learning","feedback_image_window","5ed8162f9883863100f36190","q4XuhzhMCAYi2P6nzNVGoXi6crA2","","","","","","","","","","","","","","","","","","","","",""
"html-keyboard-response","164","346138","0.0-68.0","","null","<div style=""font-size:100px;"">+</div>","null","delaylearn","learning","ITI","5ed8162f9883863100f36190","q4XuhzhMCAYi2P6nzNVGoXi6crA2","","","","","","","","","","","","","","","","","","","2191","",""
"html-keyboard-response","165","347771","0.0-69.0-0.0","","1632","<div style=""display: flex; flex-direction: column; align-items: center; margin-top: -40px;""><img src=""images/pattern_6.png"" style=""width: 234px; height: 230px; margin-top: -50px;""><div style=""display: flex; justify-content: space-between; margin-top: 33px;""><img src=""images/choice_trial_3.png"" style=""width: 408px; height: 417px; margin-right: 200px;""><img src=""images/choice_trial_10.png"" style=""width: 408px; height: 417px;""></div></div>","j","delaylearn","learning","trial","5ed8162f9883863100f36190","q4XuhzhMCAYi2P6nzNVGoXi6crA2","4","images/choice_trial_3.png","images/choice_trial_10.png","images/pattern_6.png","j","j","750","3","10","5","1","30","1","1","10","190","","","","",""
"html-keyboard-response","166","348787","0.0-69.0-1.0","","null","<div style=""display: flex; flex-direction: column; align-items: center; margin-top: -40px;""><img src=""images/pattern_6.png"" style=""width: 234px; height: 230px; margin-top: -50px;""><div style=""display: flex; justify-content: space-between; margin-top: 33px;""><img src=""images/choice_trial_10.png"" style=""width: 408px; height: 417px; margin-left:608px;""></div></div>","null","delaylearn","learning","display_response","5ed8162f9883863100f36190","q4XuhzhMCAYi2P6nzNVGoXi6crA2","","","","","","","","","","","","","","","","","chosen stimuli: images/choice_trial_10.png","","","",""
"html-keyboard-response","167","349551","0.0-69.0-2.0","","null","","null","delaylearn","learning","feedback_duration_window","5ed8162f9883863100f36190","q4XuhzhMCAYi2P6nzNVGoXi6crA2","","","","","","","","","","","","","","","","","","750","","",""
"html-keyboard-response","168","351065","0.0-69.0-3.0","","null","<div style='margin:auto;width: auto; font-size: 150%'><span style='font-weight: bold; font-size: 100px; color: green;'>+10 points!</span><br><br></div>","null","delaylearn","learning","feedback_image_window","5ed8162f9883863100f36190","q4XuhzhMCAYi2P6nzNVGoXi6crA2","","","","","","","","","","","","","","","","","","","","",""
"html-keyboard-response","169","351579","0.0-70.0-0.0","","null","","null","","","mood_trial_fixation","","","","","","","","","","","","","","","","","","","","","","",""
"lmdlab-html-vas-response","170","356118","0.0-70.0-1.0","","3524","How happy are you right now?","0.5802469135802469","delaylearn","learning","mood_trial","5ed8162f9883863100f36190","q4XuhzhMCAYi2P6nzNVGoXi6crA2","","","","","","","","","","","","","","","","","","","","[""Very unhappy"",""Very happy""]",""
"html-keyboard-response","171","357843","0.0-71.0","","null","<div style=""font-size:100px;"">+</div>","null","delaylearn","learning","ITI","5ed8162f9883863100f36190","q4XuhzhMCAYi2P6nzNVGoXi6crA2","","","","","","","","","","","","","","","","","","","1723","",""
"html-keyboard-response","172","359781","0.0-72.0-0.0","","1936.5999999940395","<div style=""display: flex; flex-direction: column; align-items: center; margin-top: -40px;""><img src=""images/pattern_4.png"" style=""width: 234px; height: 230px; margin-top: -50px;""><div style=""display: flex; justify-content: space-between; margin-top: 33px;""><img src=""images/choice_trial_7.png"" style=""width: 408px; height: 417px; margin-right: 200px;""><img src=""images/choice_trial_8.png"" style=""width: 408px; height: 417px;""></div></div>","j","delaylearn","learning","trial","5ed8162f9883863100f36190","q4XuhzhMCAYi2P6nzNVGoXi6crA2","4","images/choice_trial_7.png","images/choice_trial_8.png","images/pattern_4.png","j","j","7000","7","8","3","1","31","1","1","8","200","","","","",""
"html-keyboard-response","173","360794","0.0-72.0-1.0","","null","<div style=""display: flex; flex-direction: column; align-items: center; margin-top: -40px;""><img src=""images/pattern_4.png"" style=""width: 234px; height: 230px; margin-top: -50px;""><div style=""display: flex; justify-content: space-between; margin-top: 33px;""><img src=""images/choice_trial_8.png"" style=""width: 408px; height: 417px; margin-left:608px;""></div></div>","null","delaylearn","learning","display_response","5ed8162f9883863100f36190","q4XuhzhMCAYi2P6nzNVGoXi6crA2","","","","","","","","","","","","","","","","","chosen stimuli: images/choice_trial_8.png","","","",""
"html-keyboard-response","174","367808","0.0-72.0-2.0","","null","","null","delaylearn","learning","feedback_duration_window","5ed8162f9883863100f36190","q4XuhzhMCAYi2P6nzNVGoXi6crA2","","","","","","","","","","","","","","","","","","7000","","",""
"html-keyboard-response","175","369318","0.0-72.0-3.0","","null","<div style='margin:auto;width: auto; font-size: 150%'><span style='font-weight: bold; font-size: 100px; color: green;'>+10 points!</span><br><br></div>","null","delaylearn","learning","feedback_image_window","5ed8162f9883863100f36190","q4XuhzhMCAYi2P6nzNVGoXi6crA2","","","","","","","","","","","","","","","","","","","","",""
"html-keyboard-response","176","371719","0.0-73.0","","null","<div style=""font-size:100px;"">+</div>","null","delaylearn","learning","ITI","5ed8162f9883863100f36190","q4XuhzhMCAYi2P6nzNVGoXi6crA2","","","","","","","","","","","","","","","","","","","2395","",""
"html-keyboard-response","177","373512","0.0-74.0-0.0","","1791.9000000059605","<div style=""display: flex; flex-direction: column; align-items: center; margin-top: -40px;""><img src=""images/pattern_3.png"" style=""width: 234px; height: 230px; margin-top: -50px;""><div style=""display: flex; justify-content: space-between; margin-top: 33px;""><img src=""images/choice_trial_6.png"" style=""width: 408px; height: 417px; margin-right: 200px;""><img src=""images/choice_trial_16.png"" style=""width: 408px; height: 417px;""></div></div>","j","delaylearn","learning","trial","5ed8162f9883863100f36190","q4XuhzhMCAYi2P6nzNVGoXi6crA2","4","images/choice_trial_6.png","images/choice_trial_16.png","images/pattern_3.png","j","j","7000","6","16","2","1","32","1","1","16","210","","","","",""
"html-keyboard-response","178","374523","0.0-74.0-1.0","","null","<div style=""display: flex; flex-direction: column; align-items: center; margin-top: -40px;""><img src=""images/pattern_3.png"" style=""width: 234px; height: 230px; margin-top: -50px;""><div style=""display: flex; justify-content: space-between; margin-top: 33px;""><img src=""images/choice_trial_16.png"" style=""width: 408px; height: 417px; margin-left:608px;""></div></div>","null","delaylearn","learning","display_response","5ed8162f9883863100f36190","q4XuhzhMCAYi2P6nzNVGoXi6crA2","","","","","","","","","","","","","","","","","chosen stimuli: images/choice_trial_16.png","","","",""
"html-keyboard-response","179","381528","0.0-74.0-2.0","","null","","null","delaylearn","learning","feedback_duration_window","5ed8162f9883863100f36190","q4XuhzhMCAYi2P6nzNVGoXi6crA2","","","","","","","","","","","","","","","","","","7000","","",""
"html-keyboard-response","180","383036","0.0-74.0-3.0","","null","<div style='margin:auto;width: auto; font-size: 150%'><span style='font-weight: bold; font-size: 100px; color: green;'>+10 points!</span><br><br></div>","null","delaylearn","learning","feedback_image_window","5ed8162f9883863100f36190","q4XuhzhMCAYi2P6nzNVGoXi6crA2","","","","","","","","","","","","","","","","","","","","",""
"html-keyboard-response","181","385496","0.0-75.0","","null","<div style=""font-size:100px;"">+</div>","null","delaylearn","learning","ITI","5ed8162f9883863100f36190","q4XuhzhMCAYi2P6nzNVGoXi6crA2","","","","","","","","","","","","","","","","","","","2455","",""
"html-keyboard-response","182","387451","0.0-76.0-0.0","","1953.2999999821186","<div style=""display: flex; flex-direction: column; align-items: center; margin-top: -40px;""><img src=""images/pattern_5.png"" style=""width: 234px; height: 230px; margin-top: -50px;""><div style=""display: flex; justify-content: space-between; margin-top: 33px;""><img src=""images/choice_trial_5.png"" style=""width: 408px; height: 417px; margin-right: 200px;""><img src=""images/choice_trial_15.png"" style=""width: 408px; height: 417px;""></div></div>","f","delaylearn","learning","trial","5ed8162f9883863100f36190","q4XuhzhMCAYi2P6nzNVGoXi6crA2","4","images/choice_trial_5.png","images/choice_trial_15.png","images/pattern_5.png","j","f","750","5","15","4","0","33","1","0","5","210","","","","",""
"html-keyboard-response","183","388460","0.0-76.0-1.0","","null","<div style=""display: flex; flex-direction: column; align-items: center; margin-top: -40px;""><img src=""images/pattern_5.png"" style=""width: 234px; height: 230px; margin-top: -50px;""><div style=""display: flex; justify-content: space-between; margin-top: 33px;""><img src=""images/choice_trial_5.png"" style=""width: 408px; height: 417px; margin-right: 608px;""></div></div>","null","delaylearn","learning","display_response","5ed8162f9883863100f36190","q4XuhzhMCAYi2P6nzNVGoXi6crA2","","","","","","","","","","","","","","","","","chosen stimuli: images/choice_trial_5.png","","","",""
"html-keyboard-response","184","389223","0.0-76.0-2.0","","null","","null","delaylearn","learning","feedback_duration_window","5ed8162f9883863100f36190","q4XuhzhMCAYi2P6nzNVGoXi6crA2","","","","","","","","","","","","","","","","","","750","","",""
"html-keyboard-response","185","390737","0.0-76.0-3.0","","null","<div style='margin:auto;width: auto; font-size: 150%'><span style='font-weight: bold; font-size: 100px; color: red;'>0 points!</span><br><br></div>","null","delaylearn","learning","feedback_image_window","5ed8162f9883863100f36190","q4XuhzhMCAYi2P6nzNVGoXi6crA2","","","","","","","","","","","","","","","","","","","","",""
"html-keyboard-response","186","392845","0.0-77.0","","null","<div style=""font-size:100px;"">+</div>","null","delaylearn","learning","ITI","5ed8162f9883863100f36190","q4XuhzhMCAYi2P6nzNVGoXi6crA2","","","","","","","","","","","","","","","","","","","2099","",""
"html-keyboard-response","187","395450","0.0-78.0-0.0","","2603.7000000178814","<div style=""display: flex; flex-direction: column; align-items: center; margin-top: -40px;""><img src=""images/pattern_1.png"" style=""width: 234px; height: 230px; margin-top: -50px;""><div style=""display: flex; justify-content: space-between; margin-top: 33px;""><img src=""images/choice_trial_1.png"" style=""width: 408px; height: 417px; margin-right: 200px;""><img src=""images/choice_trial_9.png"" style=""width: 408px; height: 417px;""></div></div>","f","delaylearn","learning","trial","5ed8162f9883863100f36190","q4XuhzhMCAYi2P6nzNVGoXi6crA2","4","images/choice_trial_1.png","images/choice_trial_9.png","images/pattern_1.png","f","f","7000","1","9","1","0","34","1","1","1","220","","","","",""
"html-keyboard-response","188","396459","0.0-78.0-1.0","","null","<div style=""display: flex; flex-direction: column; align-items: center; margin-top: -40px;""><img src=""images/pattern_1.png"" style=""width: 234px; height: 230px; margin-top: -50px;""><div style=""display: flex; justify-content: space-between; margin-top: 33px;""><img src=""images/choice_trial_1.png"" style=""width: 408px; height: 417px; margin-right: 608px;""></div></div>","null","delaylearn","learning","display_response","5ed8162f9883863100f36190","q4XuhzhMCAYi2P6nzNVGoXi6crA2","","","","","","","","","","","","","","","","","chosen stimuli: images/choice_trial_1.png","","","",""
"html-keyboard-response","189","403465","0.0-78.0-2.0","","null","","null","delaylearn","learning","feedback_duration_window","5ed8162f9883863100f36190","q4XuhzhMCAYi2P6nzNVGoXi6crA2","","","","","","","","","","","","","","","","","","7000","","",""
"html-keyboard-response","190","404980","0.0-78.0-3.0","","null","<div style='margin:auto;width: auto; font-size: 150%'><span style='font-weight: bold; font-size: 100px; color: green;'>+10 points!</span><br><br></div>","null","delaylearn","learning","feedback_image_window","5ed8162f9883863100f36190","q4XuhzhMCAYi2P6nzNVGoXi6crA2","","","","","","","","","","","","","","","","","","","","",""
"html-keyboard-response","191","405494","0.0-79.0-0.0","","null","","null","","","mood_trial_fixation","","","","","","","","","","","","","","","","","","","","","","",""
"lmdlab-html-vas-response","192","410304","0.0-79.0-1.0","","3802","How happy are you right now?","0.5787037037037037","delaylearn","learning","mood_trial","5ed8162f9883863100f36190","q4XuhzhMCAYi2P6nzNVGoXi6crA2","","","","","","","","","","","","","","","","","","","","[""Very unhappy"",""Very happy""]",""
"html-keyboard-response","193","412087","0.0-80.0","","null","<div style=""font-size:100px;"">+</div>","null","delaylearn","learning","ITI","5ed8162f9883863100f36190","q4XuhzhMCAYi2P6nzNVGoXi6crA2","","","","","","","","","","","","","","","","","","","1781","",""
"html-keyboard-response","194","413230","0.0-81.0-0.0","","1141.7000000178814","<div style=""display: flex; flex-direction: column; align-items: center; margin-top: -40px;""><img src=""images/pattern_6.png"" style=""width: 234px; height: 230px; margin-top: -50px;""><div style=""display: flex; justify-content: space-between; margin-top: 33px;""><img src=""images/choice_trial_10.png"" style=""width: 408px; height: 417px; margin-right: 200px;""><img src=""images/choice_trial_3.png"" style=""width: 408px; height: 417px;""></div></div>","f","delaylearn","learning","trial","5ed8162f9883863100f36190","q4XuhzhMCAYi2P6nzNVGoXi6crA2","4","images/choice_trial_10.png","images/choice_trial_3.png","images/pattern_6.png","j","f","750","10","3","5","0","35","1","0","10","220","","","","",""
"html-keyboard-response","195","414243","0.0-81.0-1.0","","null","<div style=""display: flex; flex-direction: column; align-items: center; margin-top: -40px;""><img src=""images/pattern_6.png"" style=""width: 234px; height: 230px; margin-top: -50px;""><div style=""display: flex; justify-content: space-between; margin-top: 33px;""><img src=""images/choice_trial_10.png"" style=""width: 408px; height: 417px; margin-right: 608px;""></div></div>","null","delaylearn","learning","display_response","5ed8162f9883863100f36190","q4XuhzhMCAYi2P6nzNVGoXi6crA2","","","","","","","","","","","","","","","","","chosen stimuli: images/choice_trial_10.png","","","",""
"html-keyboard-response","196","415001","0.0-81.0-2.0","","null","","null","delaylearn","learning","feedback_duration_window","5ed8162f9883863100f36190","q4XuhzhMCAYi2P6nzNVGoXi6crA2","","","","","","","","","","","","","","","","","","750","","",""
"html-keyboard-response","197","416514","0.0-81.0-3.0","","null","<div style='margin:auto;width: auto; font-size: 150%'><span style='font-weight: bold; font-size: 100px; color: red;'>0 points!</span><br><br></div>","null","delaylearn","learning","feedback_image_window","5ed8162f9883863100f36190","q4XuhzhMCAYi2P6nzNVGoXi6crA2","","","","","","","","","","","","","","","","","","","","",""
"html-keyboard-response","198","418996","0.0-82.0","","null","<div style=""font-size:100px;"">+</div>","null","delaylearn","learning","ITI","5ed8162f9883863100f36190","q4XuhzhMCAYi2P6nzNVGoXi6crA2","","","","","","","","","","","","","","","","","","","2481","",""
"html-keyboard-response","199","420660","0.0-83.0-0.0","","1662.4000000059605","<div style=""display: flex; flex-direction: column; align-items: center; margin-top: -40px;""><img src=""images/pattern_3.png"" style=""width: 234px; height: 230px; margin-top: -50px;""><div style=""display: flex; justify-content: space-between; margin-top: 33px;""><img src=""images/choice_trial_6.png"" style=""width: 408px; height: 417px; margin-right: 200px;""><img src=""images/choice_trial_16.png"" style=""width: 408px; height: 417px;""></div></div>","j","delaylearn","learning","trial","5ed8162f9883863100f36190","q4XuhzhMCAYi2P6nzNVGoXi6crA2","4","images/choice_trial_6.png","images/choice_trial_16.png","images/pattern_3.png","j","j","7000","6","16","2","1","36","1","1","16","230","","","","",""
"html-keyboard-response","200","421674","0.0-83.0-1.0","","null","<div style=""display: flex; flex-direction: column; align-items: center; margin-top: -40px;""><img src=""images/pattern_3.png"" style=""width: 234px; height: 230px; margin-top: -50px;""><div style=""display: flex; justify-content: space-between; margin-top: 33px;""><img src=""images/choice_trial_16.png"" style=""width: 408px; height: 417px; margin-left:608px;""></div></div>","null","delaylearn","learning","display_response","5ed8162f9883863100f36190","q4XuhzhMCAYi2P6nzNVGoXi6crA2","","","","","","","","","","","","","","","","","chosen stimuli: images/choice_trial_16.png","","","",""
"html-keyboard-response","201","428690","0.0-83.0-2.0","","null","","null","delaylearn","learning","feedback_duration_window","5ed8162f9883863100f36190","q4XuhzhMCAYi2P6nzNVGoXi6crA2","","","","","","","","","","","","","","","","","","7000","","",""
"html-keyboard-response","202","430201","0.0-83.0-3.0","","null","<div style='margin:auto;width: auto; font-size: 150%'><span style='font-weight: bold; font-size: 100px; color: green;'>+10 points!</span><br><br></div>","null","delaylearn","learning","feedback_image_window","5ed8162f9883863100f36190","q4XuhzhMCAYi2P6nzNVGoXi6crA2","","","","","","","","","","","","","","","","","","","","",""
"html-keyboard-response","203","432153","0.0-84.0","","null","<div style=""font-size:100px;"">+</div>","null","delaylearn","learning","ITI","5ed8162f9883863100f36190","q4XuhzhMCAYi2P6nzNVGoXi6crA2","","","","","","","","","","","","","","","","","","","1948","",""
"html-keyboard-response","204","433539","0.0-85.0-0.0","","1385","<div style=""display: flex; flex-direction: column; align-items: center; margin-top: -40px;""><img src=""images/pattern_4.png"" style=""width: 234px; height: 230px; margin-top: -50px;""><div style=""display: flex; justify-content: space-between; margin-top: 33px;""><img src=""images/choice_trial_7.png"" style=""width: 408px; height: 417px; margin-right: 200px;""><img src=""images/choice_trial_8.png"" style=""width: 408px; height: 417px;""></div></div>","j","delaylearn","learning","trial","5ed8162f9883863100f36190","q4XuhzhMCAYi2P6nzNVGoXi6crA2","4","images/choice_trial_7.png","images/choice_trial_8.png","images/pattern_4.png","f","j","7000","7","8","3","1","37","1","0","8","230","","","","",""
"html-keyboard-response","205","434548","0.0-85.0-1.0","","null","<div style=""display: flex; flex-direction: column; align-items: center; margin-top: -40px;""><img src=""images/pattern_4.png"" style=""width: 234px; height: 230px; margin-top: -50px;""><div style=""display: flex; justify-content: space-between; margin-top: 33px;""><img src=""images/choice_trial_8.png"" style=""width: 408px; height: 417px; margin-left:608px;""></div></div>","null","delaylearn","learning","display_response","5ed8162f9883863100f36190","q4XuhzhMCAYi2P6nzNVGoXi6crA2","","","","","","","","","","","","","","","","","chosen stimuli: images/choice_trial_8.png","","","",""
"html-keyboard-response","206","441557","0.0-85.0-2.0","","null","","null","delaylearn","learning","feedback_duration_window","5ed8162f9883863100f36190","q4XuhzhMCAYi2P6nzNVGoXi6crA2","","","","","","","","","","","","","","","","","","7000","","",""
"html-keyboard-response","207","443069","0.0-85.0-3.0","","null","<div style='margin:auto;width: auto; font-size: 150%'><span style='font-weight: bold; font-size: 100px; color: red;'>0 points!</span><br><br></div>","null","delaylearn","learning","feedback_image_window","5ed8162f9883863100f36190","q4XuhzhMCAYi2P6nzNVGoXi6crA2","","","","","","","","","","","","","","","","","","","","",""
"html-keyboard-response","208","445232","0.0-86.0","","null","<div style=""font-size:100px;"">+</div>","null","delaylearn","learning","ITI","5ed8162f9883863100f36190","q4XuhzhMCAYi2P6nzNVGoXi6crA2","","","","","","","","","","","","","","","","","","","2148","",""
"html-keyboard-response","209","446498","0.0-87.0-0.0","","1264.4000000059605","<div style=""display: flex; flex-direction: column; align-items: center; margin-top: -40px;""><img src=""images/pattern_7.png"" style=""width: 234px; height: 230px; margin-top: -50px;""><div style=""display: flex; justify-content: space-between; margin-top: 33px;""><img src=""images/choice_trial_13.png"" style=""width: 408px; height: 417px; margin-right: 200px;""><img src=""images/choice_trial_4.png"" style=""width: 408px; height: 417px;""></div></div>","f","delaylearn","learning","trial","5ed8162f9883863100f36190","q4XuhzhMCAYi2P6nzNVGoXi6crA2","4","images/choice_trial_13.png","images/choice_trial_4.png","images/pattern_7.png","f","f","750","13","4","6","0","38","1","1","13","240","","","","",""
"html-keyboard-response","210","447506","0.0-87.0-1.0","","null","<div style=""display: flex; flex-direction: column; align-items: center; margin-top: -40px;""><img src=""images/pattern_7.png"" style=""width: 234px; height: 230px; margin-top: -50px;""><div style=""display: flex; justify-content: space-between; margin-top: 33px;""><img src=""images/choice_trial_13.png"" style=""width: 408px; height: 417px; margin-right: 608px;""></div></div>","null","delaylearn","learning","display_response","5ed8162f9883863100f36190","q4XuhzhMCAYi2P6nzNVGoXi6crA2","","","","","","","","","","","","","","","","","chosen stimuli: images/choice_trial_13.png","","","",""
"html-keyboard-response","211","448270","0.0-87.0-2.0","","null","","null","delaylearn","learning","feedback_duration_window","5ed8162f9883863100f36190","q4XuhzhMCAYi2P6nzNVGoXi6crA2","","","","","","","","","","","","","","","","","","750","","",""
"html-keyboard-response","212","449784","0.0-87.0-3.0","","null","<div style='margin:auto;width: auto; font-size: 150%'><span style='font-weight: bold; font-size: 100px; color: green;'>+10 points!</span><br><br></div>","null","delaylearn","learning","feedback_image_window","5ed8162f9883863100f36190","q4XuhzhMCAYi2P6nzNVGoXi6crA2","","","","","","","","","","","","","","","","","","","","",""
"html-keyboard-response","213","451573","0.0-88.0","","null","<div style=""font-size:100px;"">+</div>","null","delaylearn","learning","ITI","5ed8162f9883863100f36190","q4XuhzhMCAYi2P6nzNVGoXi6crA2","","","","","","","","","","","","","","","","","","","1782","",""
"html-keyboard-response","214","454583","0.0-89.0-0.0","","null","<div style=""display: flex; flex-direction: column; align-items: center; margin-top: -40px;""><img src=""images/pattern_1.png"" style=""width: 234px; height: 230px; margin-top: -50px;""><div style=""display: flex; justify-content: space-between; margin-top: 33px;""><img src=""images/choice_trial_1.png"" style=""width: 408px; height: 417px; margin-right: 200px;""><img src=""images/choice_trial_9.png"" style=""width: 408px; height: 417px;""></div></div>","null","delaylearn","learning","trial","5ed8162f9883863100f36190","q4XuhzhMCAYi2P6nzNVGoXi6crA2","4","images/choice_trial_1.png","images/choice_trial_9.png","images/pattern_1.png","f","f","7000","1","9","1","0","39","0","0","0","240","","","","",""
"html-keyboard-response","215","455596","0.0-89.0-1.0","","null","<div style='font-weight: bold; font-size: 75px; color: red;'>Missed Trial <br><br><br><br> Please respond faster</div>","null","delaylearn","learning","display_response","5ed8162f9883863100f36190","q4XuhzhMCAYi2P6nzNVGoXi6crA2","","","","","","","","","","","","","","","","","Missed trial","","","",""
"html-keyboard-response","216","455601","0.0-89.0-2.0","","null","","null","delaylearn","learning","feedback_duration_window","5ed8162f9883863100f36190","q4XuhzhMCAYi2P6nzNVGoXi6crA2","","","","","","","","","","","","","","","","","","0","","",""
"html-keyboard-response","217","455606","0.0-89.0-3.0","","null","","null","delaylearn","learning","feedback_image_window","5ed8162f9883863100f36190","q4XuhzhMCAYi2P6nzNVGoXi6crA2","","","","","","","","","","","","","","","","","","","","",""
"html-keyboard-response","218","456117","0.0-90.0-0.0","","null","","null","","","mood_trial_fixation","","","","","","","","","","","","","","","","","","","","","","",""
"lmdlab-html-vas-response","219","460115","0.0-90.0-1.0","","2990","How happy are you right now?","0.3626543209876543","delaylearn","learning","mood_trial","5ed8162f9883863100f36190","q4XuhzhMCAYi2P6nzNVGoXi6crA2","","","","","","","","","","","","","","","","","","","","[""Very unhappy"",""Very happy""]",""
"html-keyboard-response","220","462291","0.0-91.0","","null","<div style=""font-size:100px;"">+</div>","null","delaylearn","learning","ITI","5ed8162f9883863100f36190","q4XuhzhMCAYi2P6nzNVGoXi6crA2","","","","","","","","","","","","","","","","","","","2168","",""
"html-keyboard-response","221","463488","0.0-92.0-0.0","","1195.5999999940395","<div style=""display: flex; flex-direction: column; align-items: center; margin-top: -40px;""><img src=""images/pattern_3.png"" style=""width: 234px; height: 230px; margin-top: -50px;""><div style=""display: flex; justify-content: space-between; margin-top: 33px;""><img src=""images/choice_trial_16.png"" style=""width: 408px; height: 417px; margin-right: 200px;""><img src=""images/choice_trial_6.png"" style=""width: 408px; height: 417px;""></div></div>","f","delaylearn","learning","trial","5ed8162f9883863100f36190","q4XuhzhMCAYi2P6nzNVGoXi6crA2","4","images/choice_trial_16.png","images/choice_trial_6.png","images/pattern_3.png","j","f","7000","16","6","2","0","40","1","0","16","240","","","","",""
