"trial_type","trial_index","time_elapsed","internal_node_id","participant","rt","stimulus","response","exp_name","exp_stage","test_part","subjectID","databaseID","counterbal","choice_stimuli_1","choice_stimuli_2","pattern_stimuli","rewarded_answer","correct_answer","feedback_duration_times","stim_left","stim_right","pair","leftright_counter","trial","response_correct","response_rewarded","chosen_stim","counter","displayed_choice","feedback_durations","ITI_duration","labels","rest_warning"
"pavlovia","0","526","0.0-0.0","","","","","","","","","","","","","","","","","","","","","","","","","","","","","",""
"html-keyboard-response","1","3529","0.0-1.0","","null","<div style=""font-size:100px;"">+</div>","null","delaylearn","learning","pre_fixation","5996f25a05a0e30001f1fd72","","","","","","","","","","","","","","","","","","","","","",""
"html-keyboard-response","2","5378","0.0-2.0-0.0","","1844.2999999523163","<div style=""display: flex; flex-direction: column; align-items: center; margin-top: -40px;""><img src=""images/demo_images/pattern_1.png"" style=""width: 234px; height: 230px; margin-top: -50px;""><div style=""display: flex; justify-content: space-between; margin-top: 33px;""><img src=""images/demo_images/choice_trial_2.png"" style=""width: 408px; height: 417px; margin-right: 200px;""><img src=""images/demo_images/choice_trial_1.png"" style=""width: 408px; height: 417px;""></div></div>","j","delaylearn","learning","trial","5996f25a05a0e30001f1fd72","lZZYeKPnioRMyyjah6rS58sedp13","1","images/demo_images/choice_trial_2.png","images/demo_images/choice_trial_1.png","images/demo_images/pattern_1.png","j","j","3000","2","1","20","1","1","1","1","1","10","","","","",""
"html-keyboard-response","3","6391","0.0-2.0-1.0","","null","<div style=""display: flex; flex-direction: column; align-items: center; margin-top: -40px;""><img src=""images/demo_images/pattern_1.png"" style=""width: 234px; height: 230px; margin-top: -50px;""><div style=""display: flex; justify-content: space-between; margin-top: 33px;""><img src=""images/demo_images/choice_trial_1.png"" style=""width: 408px; height: 417px; margin-left:608px;""></div></div>","null","delaylearn","learning","display_response","5996f25a05a0e30001f1fd72","lZZYeKPnioRMyyjah6rS58sedp13","","","","","","","","","","","","","","","","","chosen stimuli: images/demo_images/choice_trial_1.png","","","",""
"html-keyboard-response","4","9395","0.0-2.0-2.0","","null","","null","delaylearn","learning","feedback_duration_window","5996f25a05a0e30001f1fd72","lZZYeKPnioRMyyjah6rS58sedp13","","","","","","","","","","","","","","","","","","3000","","",""
"html-keyboard-response","5","10901","0.0-2.0-3.0","","null","<div style='margin:auto;width: auto; font-size: 150%'><span style='font-weight: bold; font-size: 100px; color: green;'>+10 points!</span><br><br></div>","null","delaylearn","learning","feedback_image_window","5996f25a05a0e30001f1fd72","lZZYeKPnioRMyyjah6rS58sedp13","","","","","","","","","","","","","","","","","","","","",""
"html-keyboard-response","6","12536","0.0-3.0","","null","<div style=""font-size:100px;"">+</div>","null","delaylearn","learning","ITI","5996f25a05a0e30001f1fd72","lZZYeKPnioRMyyjah6rS58sedp13","","","","","","","","","","","","","","","","","","","1626","",""
"html-keyboard-response","7","13813","0.0-4.0-0.0","","1274.2000000476837","<div style=""display: flex; flex-direction: column; align-items: center; margin-top: -40px;""><img src=""images/demo_images/pattern_1.png"" style=""width: 234px; height: 230px; margin-top: -50px;""><div style=""display: flex; justify-content: space-between; margin-top: 33px;""><img src=""images/demo_images/choice_trial_2.png"" style=""width: 408px; height: 417px; margin-right: 200px;""><img src=""images/demo_images/choice_trial_1.png"" style=""width: 408px; height: 417px;""></div></div>","j","delaylearn","learning","trial","5996f25a05a0e30001f1fd72","lZZYeKPnioRMyyjah6rS58sedp13","1","images/demo_images/choice_trial_2.png","images/demo_images/choice_trial_1.png","images/demo_images/pattern_1.png","j","j","3000","2","1","20","1","2","1","1","1","20","","","","",""
"html-keyboard-response","8","14819","0.0-4.0-1.0","","null","<div style=""display: flex; flex-direction: column; align-items: center; margin-top: -40px;""><img src=""images/demo_images/pattern_1.png"" style=""width: 234px; height: 230px; margin-top: -50px;""><div style=""display: flex; justify-content: space-between; margin-top: 33px;""><img src=""images/demo_images/choice_trial_1.png"" style=""width: 408px; height: 417px; margin-left:608px;""></div></div>","null","delaylearn","learning","display_response","5996f25a05a0e30001f1fd72","lZZYeKPnioRMyyjah6rS58sedp13","","","","","","","","","","","","","","","","","chosen stimuli: images/demo_images/choice_trial_1.png","","","",""
"html-keyboard-response","9","17822","0.0-4.0-2.0","","null","","null","delaylearn","learning","feedback_duration_window","5996f25a05a0e30001f1fd72","lZZYeKPnioRMyyjah6rS58sedp13","","","","","","","","","","","","","","","","","","3000","","",""
"html-keyboard-response","10","19329","0.0-4.0-3.0","","null","<div style='margin:auto;width: auto; font-size: 150%'><span style='font-weight: bold; font-size: 100px; color: green;'>+10 points!</span><br><br></div>","null","delaylearn","learning","feedback_image_window","5996f25a05a0e30001f1fd72","lZZYeKPnioRMyyjah6rS58sedp13","","","","","","","","","","","","","","","","","","","","",""
"html-keyboard-response","11","21478","0.0-5.0","","null","<div style=""font-size:100px;"">+</div>","null","delaylearn","learning","ITI","5996f25a05a0e30001f1fd72","lZZYeKPnioRMyyjah6rS58sedp13","","","","","","","","","","","","","","","","","","","2141","",""
"html-keyboard-response","12","22622","0.0-6.0-0.0","","1142","<div style=""display: flex; flex-direction: column; align-items: center; margin-top: -40px;""><img src=""images/demo_images/pattern_1.png"" style=""width: 234px; height: 230px; margin-top: -50px;""><div style=""display: flex; justify-content: space-between; margin-top: 33px;""><img src=""images/demo_images/choice_trial_1.png"" style=""width: 408px; height: 417px; margin-right: 200px;""><img src=""images/demo_images/choice_trial_2.png"" style=""width: 408px; height: 417px;""></div></div>","f","delaylearn","learning","trial","5996f25a05a0e30001f1fd72","lZZYeKPnioRMyyjah6rS58sedp13","1","images/demo_images/choice_trial_1.png","images/demo_images/choice_trial_2.png","images/demo_images/pattern_1.png","j","f","3000","1","2","20","0","3","1","0","1","20","","","","",""
"html-keyboard-response","13","23637","0.0-6.0-1.0","","null","<div style=""display: flex; flex-direction: column; align-items: center; margin-top: -40px;""><img src=""images/demo_images/pattern_1.png"" style=""width: 234px; height: 230px; margin-top: -50px;""><div style=""display: flex; justify-content: space-between; margin-top: 33px;""><img src=""images/demo_images/choice_trial_1.png"" style=""width: 408px; height: 417px; margin-right: 608px;""></div></div>","null","delaylearn","learning","display_response","5996f25a05a0e30001f1fd72","lZZYeKPnioRMyyjah6rS58sedp13","","","","","","","","","","","","","","","","","chosen stimuli: images/demo_images/choice_trial_1.png","","","",""
"html-keyboard-response","14","26641","0.0-6.0-2.0","","null","","null","delaylearn","learning","feedback_duration_window","5996f25a05a0e30001f1fd72","lZZYeKPnioRMyyjah6rS58sedp13","","","","","","","","","","","","","","","","","","3000","","",""
"html-keyboard-response","15","28145","0.0-6.0-3.0","","null","<div style='margin:auto;width: auto; font-size: 150%'><span style='font-weight: bold; font-size: 100px; color: red;'>0 points!</span><br><br></div>","null","delaylearn","learning","feedback_image_window","5996f25a05a0e30001f1fd72","lZZYeKPnioRMyyjah6rS58sedp13","","","","","","","","","","","","","","","","","","","","",""
"html-keyboard-response","16","29698","0.0-7.0","","null","<div style=""font-size:100px;"">+</div>","null","delaylearn","learning","ITI","5996f25a05a0e30001f1fd72","lZZYeKPnioRMyyjah6rS58sedp13","","","","","","","","","","","","","","","","","","","1540","",""
"html-keyboard-response","17","30688","0.0-8.0-0.0","","987.7999999523163","<div style=""display: flex; flex-direction: column; align-items: center; margin-top: -40px;""><img src=""images/demo_images/pattern_1.png"" style=""width: 234px; height: 230px; margin-top: -50px;""><div style=""display: flex; justify-content: space-between; margin-top: 33px;""><img src=""images/demo_images/choice_trial_1.png"" style=""width: 408px; height: 417px; margin-right: 200px;""><img src=""images/demo_images/choice_trial_2.png"" style=""width: 408px; height: 417px;""></div></div>","j","delaylearn","learning","trial","5996f25a05a0e30001f1fd72","lZZYeKPnioRMyyjah6rS58sedp13","1","images/demo_images/choice_trial_1.png","images/demo_images/choice_trial_2.png","images/demo_images/pattern_1.png","f","f","3000","1","2","20","0","4","0","0","2","20","","","","",""
"html-keyboard-response","18","31690","0.0-8.0-1.0","","null","<div style=""display: flex; flex-direction: column; align-items: center; margin-top: -40px;""><img src=""images/demo_images/pattern_1.png"" style=""width: 234px; height: 230px; margin-top: -50px;""><div style=""display: flex; justify-content: space-between; margin-top: 33px;""><img src=""images/demo_images/choice_trial_2.png"" style=""width: 408px; height: 417px; margin-left:608px;""></div></div>","null","delaylearn","learning","display_response","5996f25a05a0e30001f1fd72","lZZYeKPnioRMyyjah6rS58sedp13","","","","","","","","","","","","","","","","","chosen stimuli: images/demo_images/choice_trial_2.png","","","",""
"html-keyboard-response","19","34706","0.0-8.0-2.0","","null","","null","delaylearn","learning","feedback_duration_window","5996f25a05a0e30001f1fd72","lZZYeKPnioRMyyjah6rS58sedp13","","","","","","","","","","","","","","","","","","3000","","",""
"html-keyboard-response","20","36215","0.0-8.0-3.0","","null","<div style='margin:auto;width: auto; font-size: 150%'><span style='font-weight: bold; font-size: 100px; color: red;'>0 points!</span><br><br></div>","null","delaylearn","learning","feedback_image_window","5996f25a05a0e30001f1fd72","lZZYeKPnioRMyyjah6rS58sedp13","","","","","","","","","","","","","","","","","","","","",""
"html-keyboard-response","21","36726","0.0-9.0-0.0","","null","","null","","","mood_trial_fixation","","","","","","","","","","","","","","","","","","","","","","",""
"lmdlab-html-vas-response","22","42271","0.0-9.0-1.0","","4523","How happy are you right now?","0.47965856481481484","delaylearn","learning","mood_trial","5996f25a05a0e30001f1fd72","lZZYeKPnioRMyyjah6rS58sedp13","","","","","","","","","","","","","","","","","","","","[""Very unhappy"",""Very happy""]",""
"html-keyboard-response","23","43928","0.0-10.0","","null","<div style=""font-size:100px;"">+</div>","null","delaylearn","learning","ITI","5996f25a05a0e30001f1fd72","lZZYeKPnioRMyyjah6rS58sedp13","","","","","","","","","","","","","","","","","","","1649","",""
"html-keyboard-response","24","45253","0.0-11.0-0.0","","1323.5","<div style=""display: flex; flex-direction: column; align-items: center; margin-top: -40px;""><img src=""images/demo_images/pattern_1.png"" style=""width: 234px; height: 230px; margin-top: -50px;""><div style=""display: flex; justify-content: space-between; margin-top: 33px;""><img src=""images/demo_images/choice_trial_2.png"" style=""width: 408px; height: 417px; margin-right: 200px;""><img src=""images/demo_images/choice_trial_1.png"" style=""width: 408px; height: 417px;""></div></div>","j","delaylearn","learning","trial","5996f25a05a0e30001f1fd72","lZZYeKPnioRMyyjah6rS58sedp13","1","images/demo_images/choice_trial_2.png","images/demo_images/choice_trial_1.png","images/demo_images/pattern_1.png","j","j","3000","2","1","20","1","5","1","1","1","30","","","","",""
"html-keyboard-response","25","46263","0.0-11.0-1.0","","null","<div style=""display: flex; flex-direction: column; align-items: center; margin-top: -40px;""><img src=""images/demo_images/pattern_1.png"" style=""width: 234px; height: 230px; margin-top: -50px;""><div style=""display: flex; justify-content: space-between; margin-top: 33px;""><img src=""images/demo_images/choice_trial_1.png"" style=""width: 408px; height: 417px; margin-left:608px;""></div></div>","null","delaylearn","learning","display_response","5996f25a05a0e30001f1fd72","lZZYeKPnioRMyyjah6rS58sedp13","","","","","","","","","","","","","","","","","chosen stimuli: images/demo_images/choice_trial_1.png","","","",""
"html-keyboard-response","26","49279","0.0-11.0-2.0","","null","","null","delaylearn","learning","feedback_duration_window","5996f25a05a0e30001f1fd72","lZZYeKPnioRMyyjah6rS58sedp13","","","","","","","","","","","","","","","","","","3000","","",""
"html-keyboard-response","27","50792","0.0-11.0-3.0","","null","<div style='margin:auto;width: auto; font-size: 150%'><span style='font-weight: bold; font-size: 100px; color: green;'>+10 points!</span><br><br></div>","null","delaylearn","learning","feedback_image_window","5996f25a05a0e30001f1fd72","lZZYeKPnioRMyyjah6rS58sedp13","","","","","","","","","","","","","","","","","","","","",""
"html-keyboard-response","28","52328","0.0-12.0","","null","<div style=""font-size:100px;"">+</div>","null","delaylearn","learning","ITI","5996f25a05a0e30001f1fd72","lZZYeKPnioRMyyjah6rS58sedp13","","","","","","","","","","","","","","","","","","","1534","",""
"html-keyboard-response","29","53505","0.0-13.0-0.0","","1174.8999998569489","<div style=""display: flex; flex-direction: column; align-items: center; margin-top: -40px;""><img src=""images/demo_images/pattern_1.png"" style=""width: 234px; height: 230px; margin-top: -50px;""><div style=""display: flex; justify-content: space-between; margin-top: 33px;""><img src=""images/demo_images/choice_trial_1.png"" style=""width: 408px; height: 417px; margin-right: 200px;""><img src=""images/demo_images/choice_trial_2.png"" style=""width: 408px; height: 417px;""></div></div>","f","delaylearn","learning","trial","5996f25a05a0e30001f1fd72","lZZYeKPnioRMyyjah6rS58sedp13","1","images/demo_images/choice_trial_1.png","images/demo_images/choice_trial_2.png","images/demo_images/pattern_1.png","f","f","3000","1","2","20","0","6","1","1","1","40","","","","",""
"html-keyboard-response","30","54520","0.0-13.0-1.0","","null","<div style=""display: flex; flex-direction: column; align-items: center; margin-top: -40px;""><img src=""images/demo_images/pattern_1.png"" style=""width: 234px; height: 230px; margin-top: -50px;""><div style=""display: flex; justify-content: space-between; margin-top: 33px;""><img src=""images/demo_images/choice_trial_1.png"" style=""width: 408px; height: 417px; margin-right: 608px;""></div></div>","null","delaylearn","learning","display_response","5996f25a05a0e30001f1fd72","lZZYeKPnioRMyyjah6rS58sedp13","","","","","","","","","","","","","","","","","chosen stimuli: images/demo_images/choice_trial_1.png","","","",""
"html-keyboard-response","31","57535","0.0-13.0-2.0","","null","","null","delaylearn","learning","feedback_duration_window","5996f25a05a0e30001f1fd72","lZZYeKPnioRMyyjah6rS58sedp13","","","","","","","","","","","","","","","","","","3000","","",""
"html-keyboard-response","32","59045","0.0-13.0-3.0","","null","<div style='margin:auto;width: auto; font-size: 150%'><span style='font-weight: bold; font-size: 100px; color: green;'>+10 points!</span><br><br></div>","null","delaylearn","learning","feedback_image_window","5996f25a05a0e30001f1fd72","lZZYeKPnioRMyyjah6rS58sedp13","","","","","","","","","","","","","","","","","","","","",""
"html-keyboard-response","33","60570","0.0-14.0","","null","<div style=""font-size:100px;"">+</div>","null","delaylearn","learning","ITI","5996f25a05a0e30001f1fd72","lZZYeKPnioRMyyjah6rS58sedp13","","","","","","","","","","","","","","","","","","","1514","",""
"html-keyboard-response","34","61613","0.0-15.0-0.0","","1041.0999999046326","<div style=""display: flex; flex-direction: column; align-items: center; margin-top: -40px;""><img src=""images/demo_images/pattern_1.png"" style=""width: 234px; height: 230px; margin-top: -50px;""><div style=""display: flex; justify-content: space-between; margin-top: 33px;""><img src=""images/demo_images/choice_trial_2.png"" style=""width: 408px; height: 417px; margin-right: 200px;""><img src=""images/demo_images/choice_trial_1.png"" style=""width: 408px; height: 417px;""></div></div>","f","delaylearn","learning","trial","5996f25a05a0e30001f1fd72","lZZYeKPnioRMyyjah6rS58sedp13","1","images/demo_images/choice_trial_2.png","images/demo_images/choice_trial_1.png","images/demo_images/pattern_1.png","j","j","3000","2","1","20","1","7","0","0","2","40","","","","",""
"html-keyboard-response","35","62622","0.0-15.0-1.0","","null","<div style=""display: flex; flex-direction: column; align-items: center; margin-top: -40px;""><img src=""images/demo_images/pattern_1.png"" style=""width: 234px; height: 230px; margin-top: -50px;""><div style=""display: flex; justify-content: space-between; margin-top: 33px;""><img src=""images/demo_images/choice_trial_2.png"" style=""width: 408px; height: 417px; margin-right: 608px;""></div></div>","null","delaylearn","learning","display_response","5996f25a05a0e30001f1fd72","lZZYeKPnioRMyyjah6rS58sedp13","","","","","","","","","","","","","","","","","chosen stimuli: images/demo_images/choice_trial_2.png","","","",""
"html-keyboard-response","36","65633","0.0-15.0-2.0","","null","","null","delaylearn","learning","feedback_duration_window","5996f25a05a0e30001f1fd72","lZZYeKPnioRMyyjah6rS58sedp13","","","","","","","","","","","","","","","","","","3000","","",""
"html-keyboard-response","37","67142","0.0-15.0-3.0","","null","<div style='margin:auto;width: auto; font-size: 150%'><span style='font-weight: bold; font-size: 100px; color: red;'>0 points!</span><br><br></div>","null","delaylearn","learning","feedback_image_window","5996f25a05a0e30001f1fd72","lZZYeKPnioRMyyjah6rS58sedp13","","","","","","","","","","","","","","","","","","","","",""
"html-keyboard-response","38","69257","0.0-16.0","","null","<div style=""font-size:100px;"">+</div>","null","delaylearn","learning","ITI","5996f25a05a0e30001f1fd72","lZZYeKPnioRMyyjah6rS58sedp13","","","","","","","","","","","","","","","","","","","2112","",""
"html-keyboard-response","39","70232","0.0-17.0-0.0","","973.2999999523163","<div style=""display: flex; flex-direction: column; align-items: center; margin-top: -40px;""><img src=""images/demo_images/pattern_1.png"" style=""width: 234px; height: 230px; margin-top: -50px;""><div style=""display: flex; justify-content: space-between; margin-top: 33px;""><img src=""images/demo_images/choice_trial_1.png"" style=""width: 408px; height: 417px; margin-right: 200px;""><img src=""images/demo_images/choice_trial_2.png"" style=""width: 408px; height: 417px;""></div></div>","f","delaylearn","learning","trial","5996f25a05a0e30001f1fd72","lZZYeKPnioRMyyjah6rS58sedp13","1","images/demo_images/choice_trial_1.png","images/demo_images/choice_trial_2.png","images/demo_images/pattern_1.png","f","f","3000","1","2","20","0","8","1","1","1","50","","","","",""
"html-keyboard-response","40","71248","0.0-17.0-1.0","","null","<div style=""display: flex; flex-direction: column; align-items: center; margin-top: -40px;""><img src=""images/demo_images/pattern_1.png"" style=""width: 234px; height: 230px; margin-top: -50px;""><div style=""display: flex; justify-content: space-between; margin-top: 33px;""><img src=""images/demo_images/choice_trial_1.png"" style=""width: 408px; height: 417px; margin-right: 608px;""></div></div>","null","delaylearn","learning","display_response","5996f25a05a0e30001f1fd72","lZZYeKPnioRMyyjah6rS58sedp13","","","","","","","","","","","","","","","","","chosen stimuli: images/demo_images/choice_trial_1.png","","","",""
"html-keyboard-response","41","74259","0.0-17.0-2.0","","null","","null","delaylearn","learning","feedback_duration_window","5996f25a05a0e30001f1fd72","lZZYeKPnioRMyyjah6rS58sedp13","","","","","","","","","","","","","","","","","","3000","","",""
"html-keyboard-response","42","75766","0.0-17.0-3.0","","null","<div style='margin:auto;width: auto; font-size: 150%'><span style='font-weight: bold; font-size: 100px; color: green;'>+10 points!</span><br><br></div>","null","delaylearn","learning","feedback_image_window","5996f25a05a0e30001f1fd72","lZZYeKPnioRMyyjah6rS58sedp13","","","","","","","","","","","","","","","","","","","","",""
"html-button-response","43","79220","0.0-18.0","","3452.7000000476837","
  <div style=""display: flex; align-items: center; justify-content: center; height: 80vh;"">
  <div>
          <img src=""images/inst_demo_finish.png"" style=""width: 80vw; height:auto;"">
          <br><br>
      </div>
      <br><br>
  </div>","0","","","","","","","","","","","","","","","","","","","","","","","","","",""
"html-keyboard-response","44","81333","0.0-19.0","","2111.600000143051","
  <div style=""display: flex; align-items: center; justify-content: center; height: 80vh;"">
  <div>
          <img src=""images/inst_6.png"" style=""width: 80vw; height:auto;"">
          <br><br>
      </div>
      <br><br>
  </div>","j","","","","","","","","","","","","","","","","","","","","","","","","","",""
"html-keyboard-response","45","84348","0.0-20.0","","null","<div style=""font-size:100px;"">+</div>","null","delaylearn","learning","pre_fixation","5996f25a05a0e30001f1fd72","","","","","","","","","","","","","","","","","","","","","",""
"html-keyboard-response","46","86317","0.0-21.0","","null","<div style=""font-size:100px;"">+</div>","null","delaylearn","learning","ITI","5996f25a05a0e30001f1fd72","lZZYeKPnioRMyyjah6rS58sedp13","","","","","","","","","","","","","","","","","","","1960","",""
"html-keyboard-response","47","87559","0.0-22.0-0.0","","1239.5999999046326","<div style=""display: flex; flex-direction: column; align-items: center; margin-top: -40px;""><img src=""images/pattern_3.png"" style=""width: 234px; height: 230px; margin-top: -50px;""><div style=""display: flex; justify-content: space-between; margin-top: 33px;""><img src=""images/choice_trial_5.png"" style=""width: 408px; height: 417px; margin-right: 200px;""><img src=""images/choice_trial_6.png"" style=""width: 408px; height: 417px;""></div></div>","f","delaylearn","learning","trial","5996f25a05a0e30001f1fd72","lZZYeKPnioRMyyjah6rS58sedp13","1","images/choice_trial_5.png","images/choice_trial_6.png","images/pattern_3.png","f","f","7000","5","6","2","0","9","1","1","5","60","","","","",""
"html-keyboard-response","48","88570","0.0-22.0-1.0","","null","<div style=""display: flex; flex-direction: column; align-items: center; margin-top: -40px;""><img src=""images/pattern_3.png"" style=""width: 234px; height: 230px; margin-top: -50px;""><div style=""display: flex; justify-content: space-between; margin-top: 33px;""><img src=""images/choice_trial_5.png"" style=""width: 408px; height: 417px; margin-right: 608px;""></div></div>","null","delaylearn","learning","display_response","5996f25a05a0e30001f1fd72","lZZYeKPnioRMyyjah6rS58sedp13","","","","","","","","","","","","","","","","","chosen stimuli: images/choice_trial_5.png","","","",""
"html-keyboard-response","49","95580","0.0-22.0-2.0","","null","","null","delaylearn","learning","feedback_duration_window","5996f25a05a0e30001f1fd72","lZZYeKPnioRMyyjah6rS58sedp13","","","","","","","","","","","","","","","","","","7000","","",""
"html-keyboard-response","50","97086","0.0-22.0-3.0","","null","<div style='margin:auto;width: auto; font-size: 150%'><span style='font-weight: bold; font-size: 100px; color: green;'>+10 points!</span><br><br></div>","null","delaylearn","learning","feedback_image_window","5996f25a05a0e30001f1fd72","lZZYeKPnioRMyyjah6rS58sedp13","","","","","","","","","","","","","","","","","","","","",""
"html-keyboard-response","51","99309","0.0-23.0","","null","<div style=""font-size:100px;"">+</div>","null","delaylearn","learning","ITI","5996f25a05a0e30001f1fd72","lZZYeKPnioRMyyjah6rS58sedp13","","","","","","","","","","","","","","","","","","","2209","",""
"html-keyboard-response","52","100928","0.0-24.0-0.0","","1616.4000000953674","<div style=""display: flex; flex-direction: column; align-items: center; margin-top: -40px;""><img src=""images/pattern_7.png"" style=""width: 234px; height: 230px; margin-top: -50px;""><div style=""display: flex; justify-content: space-between; margin-top: 33px;""><img src=""images/choice_trial_14.png"" style=""width: 408px; height: 417px; margin-right: 200px;""><img src=""images/choice_trial_13.png"" style=""width: 408px; height: 417px;""></div></div>","j","delaylearn","learning","trial","5996f25a05a0e30001f1fd72","lZZYeKPnioRMyyjah6rS58sedp13","1","images/choice_trial_14.png","images/choice_trial_13.png","images/pattern_7.png","j","j","750","14","13","6","1","10","1","1","13","70","","","","",""
"html-keyboard-response","53","101933","0.0-24.0-1.0","","null","<div style=""display: flex; flex-direction: column; align-items: center; margin-top: -40px;""><img src=""images/pattern_7.png"" style=""width: 234px; height: 230px; margin-top: -50px;""><div style=""display: flex; justify-content: space-between; margin-top: 33px;""><img src=""images/choice_trial_13.png"" style=""width: 408px; height: 417px; margin-left:608px;""></div></div>","null","delaylearn","learning","display_response","5996f25a05a0e30001f1fd72","lZZYeKPnioRMyyjah6rS58sedp13","","","","","","","","","","","","","","","","","chosen stimuli: images/choice_trial_13.png","","","",""
"html-keyboard-response","54","102695","0.0-24.0-2.0","","null","","null","delaylearn","learning","feedback_duration_window","5996f25a05a0e30001f1fd72","lZZYeKPnioRMyyjah6rS58sedp13","","","","","","","","","","","","","","","","","","750","","",""
"html-keyboard-response","55","104205","0.0-24.0-3.0","","null","<div style='margin:auto;width: auto; font-size: 150%'><span style='font-weight: bold; font-size: 100px; color: green;'>+10 points!</span><br><br></div>","null","delaylearn","learning","feedback_image_window","5996f25a05a0e30001f1fd72","lZZYeKPnioRMyyjah6rS58sedp13","","","","","","","","","","","","","","","","","","","","",""
"html-keyboard-response","56","105728","0.0-25.0","","null","<div style=""font-size:100px;"">+</div>","null","delaylearn","learning","ITI","5996f25a05a0e30001f1fd72","lZZYeKPnioRMyyjah6rS58sedp13","","","","","","","","","","","","","","","","","","","1519","",""
"html-keyboard-response","57","107020","0.0-26.0-0.0","","1289.2000000476837","<div style=""display: flex; flex-direction: column; align-items: center; margin-top: -40px;""><img src=""images/pattern_4.png"" style=""width: 234px; height: 230px; margin-top: -50px;""><div style=""display: flex; justify-content: space-between; margin-top: 33px;""><img src=""images/choice_trial_7.png"" style=""width: 408px; height: 417px; margin-right: 200px;""><img src=""images/choice_trial_8.png"" style=""width: 408px; height: 417px;""></div></div>","f","delaylearn","learning","trial","5996f25a05a0e30001f1fd72","lZZYeKPnioRMyyjah6rS58sedp13","1","images/choice_trial_7.png","images/choice_trial_8.png","images/pattern_4.png","f","f","7000","7","8","3","0","11","1","1","7","80","","","","",""
"html-keyboard-response","58","108027","0.0-26.0-1.0","","null","<div style=""display: flex; flex-direction: column; align-items: center; margin-top: -40px;""><img src=""images/pattern_4.png"" style=""width: 234px; height: 230px; margin-top: -50px;""><div style=""display: flex; justify-content: space-between; margin-top: 33px;""><img src=""images/choice_trial_7.png"" style=""width: 408px; height: 417px; margin-right: 608px;""></div></div>","null","delaylearn","learning","display_response","5996f25a05a0e30001f1fd72","lZZYeKPnioRMyyjah6rS58sedp13","","","","","","","","","","","","","","","","","chosen stimuli: images/choice_trial_7.png","","","",""
"html-keyboard-response","59","115037","0.0-26.0-2.0","","null","","null","delaylearn","learning","feedback_duration_window","5996f25a05a0e30001f1fd72","lZZYeKPnioRMyyjah6rS58sedp13","","","","","","","","","","","","","","","","","","7000","","",""
"html-keyboard-response","60","116546","0.0-26.0-3.0","","null","<div style='margin:auto;width: auto; font-size: 150%'><span style='font-weight: bold; font-size: 100px; color: green;'>+10 points!</span><br><br></div>","null","delaylearn","learning","feedback_image_window","5996f25a05a0e30001f1fd72","lZZYeKPnioRMyyjah6rS58sedp13","","","","","","","","","","","","","","","","","","","","",""
"html-keyboard-response","61","118596","0.0-27.0","","null","<div style=""font-size:100px;"">+</div>","null","delaylearn","learning","ITI","5996f25a05a0e30001f1fd72","lZZYeKPnioRMyyjah6rS58sedp13","","","","","","","","","","","","","","","","","","","2048","",""
"html-keyboard-response","62","120724","0.0-28.0-0.0","","2125.2999999523163","<div style=""display: flex; flex-direction: column; align-items: center; margin-top: -40px;""><img src=""images/pattern_5.png"" style=""width: 234px; height: 230px; margin-top: -50px;""><div style=""display: flex; justify-content: space-between; margin-top: 33px;""><img src=""images/choice_trial_10.png"" style=""width: 408px; height: 417px; margin-right: 200px;""><img src=""images/choice_trial_9.png"" style=""width: 408px; height: 417px;""></div></div>","f","delaylearn","learning","trial","5996f25a05a0e30001f1fd72","lZZYeKPnioRMyyjah6rS58sedp13","1","images/choice_trial_10.png","images/choice_trial_9.png","images/pattern_5.png","j","j","750","10","9","4","1","12","0","0","10","80","","","","",""
"html-keyboard-response","63","121738","0.0-28.0-1.0","","null","<div style=""display: flex; flex-direction: column; align-items: center; margin-top: -40px;""><img src=""images/pattern_5.png"" style=""width: 234px; height: 230px; margin-top: -50px;""><div style=""display: flex; justify-content: space-between; margin-top: 33px;""><img src=""images/choice_trial_10.png"" style=""width: 408px; height: 417px; margin-right: 608px;""></div></div>","null","delaylearn","learning","display_response","5996f25a05a0e30001f1fd72","lZZYeKPnioRMyyjah6rS58sedp13","","","","","","","","","","","","","","","","","chosen stimuli: images/choice_trial_10.png","","","",""
"html-keyboard-response","64","122501","0.0-28.0-2.0","","null","","null","delaylearn","learning","feedback_duration_window","5996f25a05a0e30001f1fd72","lZZYeKPnioRMyyjah6rS58sedp13","","","","","","","","","","","","","","","","","","750","","",""
"html-keyboard-response","65","124009","0.0-28.0-3.0","","null","<div style='margin:auto;width: auto; font-size: 150%'><span style='font-weight: bold; font-size: 100px; color: red;'>0 points!</span><br><br></div>","null","delaylearn","learning","feedback_image_window","5996f25a05a0e30001f1fd72","lZZYeKPnioRMyyjah6rS58sedp13","","","","","","","","","","","","","","","","","","","","",""
"html-keyboard-response","66","125688","0.0-29.0","","null","<div style=""font-size:100px;"">+</div>","null","delaylearn","learning","ITI","5996f25a05a0e30001f1fd72","lZZYeKPnioRMyyjah6rS58sedp13","","","","","","","","","","","","","","","","","","","1662","",""
"html-keyboard-response","67","127410","0.0-30.0-0.0","","1720","<div style=""display: flex; flex-direction: column; align-items: center; margin-top: -40px;""><img src=""images/pattern_6.png"" style=""width: 234px; height: 230px; margin-top: -50px;""><div style=""display: flex; justify-content: space-between; margin-top: 33px;""><img src=""images/choice_trial_11.png"" style=""width: 408px; height: 417px; margin-right: 200px;""><img src=""images/choice_trial_12.png"" style=""width: 408px; height: 417px;""></div></div>","f","delaylearn","learning","trial","5996f25a05a0e30001f1fd72","lZZYeKPnioRMyyjah6rS58sedp13","1","images/choice_trial_11.png","images/choice_trial_12.png","images/pattern_6.png","j","f","750","11","12","5","0","13","1","0","11","80","","","","",""
"html-keyboard-response","68","128425","0.0-30.0-1.0","","null","<div style=""display: flex; flex-direction: column; align-items: center; margin-top: -40px;""><img src=""images/pattern_6.png"" style=""width: 234px; height: 230px; margin-top: -50px;""><div style=""display: flex; justify-content: space-between; margin-top: 33px;""><img src=""images/choice_trial_11.png"" style=""width: 408px; height: 417px; margin-right: 608px;""></div></div>","null","delaylearn","learning","display_response","5996f25a05a0e30001f1fd72","lZZYeKPnioRMyyjah6rS58sedp13","","","","","","","","","","","","","","","","","chosen stimuli: images/choice_trial_11.png","","","",""
"html-keyboard-response","69","129184","0.0-30.0-2.0","","null","","null","delaylearn","learning","feedback_duration_window","5996f25a05a0e30001f1fd72","lZZYeKPnioRMyyjah6rS58sedp13","","","","","","","","","","","","","","","","","","750","","",""
"html-keyboard-response","70","130691","0.0-30.0-3.0","","null","<div style='margin:auto;width: auto; font-size: 150%'><span style='font-weight: bold; font-size: 100px; color: red;'>0 points!</span><br><br></div>","null","delaylearn","learning","feedback_image_window","5996f25a05a0e30001f1fd72","lZZYeKPnioRMyyjah6rS58sedp13","","","","","","","","","","","","","","","","","","","","",""
"html-keyboard-response","71","131205","0.0-31.0-0.0","","null","","null","","","mood_trial_fixation","","","","","","","","","","","","","","","","","","","","","","",""
"lmdlab-html-vas-response","72","136246","0.0-31.0-1.0","","4027","How happy are you right now?","0.5037326388888889","delaylearn","learning","mood_trial","5996f25a05a0e30001f1fd72","lZZYeKPnioRMyyjah6rS58sedp13","","","","","","","","","","","","","","","","","","","","[""Very unhappy"",""Very happy""]",""
"html-keyboard-response","73","138213","0.0-32.0","","null","<div style=""font-size:100px;"">+</div>","null","delaylearn","learning","ITI","5996f25a05a0e30001f1fd72","lZZYeKPnioRMyyjah6rS58sedp13","","","","","","","","","","","","","","","","","","","1953","",""
"html-keyboard-response","74","139208","0.0-33.0-0.0","","992.4000000953674","<div style=""display: flex; flex-direction: column; align-items: center; margin-top: -40px;""><img src=""images/pattern_1.png"" style=""width: 234px; height: 230px; margin-top: -50px;""><div style=""display: flex; justify-content: space-between; margin-top: 33px;""><img src=""images/choice_trial_2.png"" style=""width: 408px; height: 417px; margin-right: 200px;""><img src=""images/choice_trial_1.png"" style=""width: 408px; height: 417px;""></div></div>","f","delaylearn","learning","trial","5996f25a05a0e30001f1fd72","lZZYeKPnioRMyyjah6rS58sedp13","1","images/choice_trial_2.png","images/choice_trial_1.png","images/pattern_1.png","j","j","7000","2","1","1","1","14","0","0","2","80","","","","",""
"html-keyboard-response","75","140217","0.0-33.0-1.0","","null","<div style=""display: flex; flex-direction: column; align-items: center; margin-top: -40px;""><img src=""images/pattern_1.png"" style=""width: 234px; height: 230px; margin-top: -50px;""><div style=""display: flex; justify-content: space-between; margin-top: 33px;""><img src=""images/choice_trial_2.png"" style=""width: 408px; height: 417px; margin-right: 608px;""></div></div>","null","delaylearn","learning","display_response","5996f25a05a0e30001f1fd72","lZZYeKPnioRMyyjah6rS58sedp13","","","","","","","","","","","","","","","","","chosen stimuli: images/choice_trial_2.png","","","",""
"html-keyboard-response","76","147227","0.0-33.0-2.0","","null","","null","delaylearn","learning","feedback_duration_window","5996f25a05a0e30001f1fd72","lZZYeKPnioRMyyjah6rS58sedp13","","","","","","","","","","","","","","","","","","7000","","",""
"html-keyboard-response","77","148737","0.0-33.0-3.0","","null","<div style='margin:auto;width: auto; font-size: 150%'><span style='font-weight: bold; font-size: 100px; color: red;'>0 points!</span><br><br></div>","null","delaylearn","learning","feedback_image_window","5996f25a05a0e30001f1fd72","lZZYeKPnioRMyyjah6rS58sedp13","","","","","","","","","","","","","","","","","","","","",""
"html-keyboard-response","78","150525","0.0-34.0","","null","<div style=""font-size:100px;"">+</div>","null","delaylearn","learning","ITI","5996f25a05a0e30001f1fd72","lZZYeKPnioRMyyjah6rS58sedp13","","","","","","","","","","","","","","","","","","","1772","",""
"html-keyboard-response","79","151867","0.0-35.0-0.0","","1340.6000001430511","<div style=""display: flex; flex-direction: column; align-items: center; margin-top: -40px;""><img src=""images/pattern_3.png"" style=""width: 234px; height: 230px; margin-top: -50px;""><div style=""display: flex; justify-content: space-between; margin-top: 33px;""><img src=""images/choice_trial_6.png"" style=""width: 408px; height: 417px; margin-right: 200px;""><img src=""images/choice_trial_5.png"" style=""width: 408px; height: 417px;""></div></div>","j","delaylearn","learning","trial","5996f25a05a0e30001f1fd72","lZZYeKPnioRMyyjah6rS58sedp13","1","images/choice_trial_6.png","images/choice_trial_5.png","images/pattern_3.png","f","j","7000","6","5","2","1","15","1","0","5","80","","","","",""
"html-keyboard-response","80","152870","0.0-35.0-1.0","","null","<div style=""display: flex; flex-direction: column; align-items: center; margin-top: -40px;""><img src=""images/pattern_3.png"" style=""width: 234px; height: 230px; margin-top: -50px;""><div style=""display: flex; justify-content: space-between; margin-top: 33px;""><img src=""images/choice_trial_5.png"" style=""width: 408px; height: 417px; margin-left:608px;""></div></div>","null","delaylearn","learning","display_response","5996f25a05a0e30001f1fd72","lZZYeKPnioRMyyjah6rS58sedp13","","","","","","","","","","","","","","","","","chosen stimuli: images/choice_trial_5.png","","","",""
"html-keyboard-response","81","159884","0.0-35.0-2.0","","null","","null","delaylearn","learning","feedback_duration_window","5996f25a05a0e30001f1fd72","lZZYeKPnioRMyyjah6rS58sedp13","","","","","","","","","","","","","","","","","","7000","","",""
"html-keyboard-response","82","161390","0.0-35.0-3.0","","null","<div style='margin:auto;width: auto; font-size: 150%'><span style='font-weight: bold; font-size: 100px; color: red;'>0 points!</span><br><br></div>","null","delaylearn","learning","feedback_image_window","5996f25a05a0e30001f1fd72","lZZYeKPnioRMyyjah6rS58sedp13","","","","","","","","","","","","","","","","","","","","",""
"html-keyboard-response","83","163431","0.0-36.0","","null","<div style=""font-size:100px;"">+</div>","null","delaylearn","learning","ITI","5996f25a05a0e30001f1fd72","lZZYeKPnioRMyyjah6rS58sedp13","","","","","","","","","","","","","","","","","","","2029","",""
"html-keyboard-response","84","165256","0.0-37.0-0.0","","1823.1000001430511","<div style=""display: flex; flex-direction: column; align-items: center; margin-top: -40px;""><img src=""images/pattern_5.png"" style=""width: 234px; height: 230px; margin-top: -50px;""><div style=""display: flex; justify-content: space-between; margin-top: 33px;""><img src=""images/choice_trial_9.png"" style=""width: 408px; height: 417px; margin-right: 200px;""><img src=""images/choice_trial_10.png"" style=""width: 408px; height: 417px;""></div></div>","j","delaylearn","learning","trial","5996f25a05a0e30001f1fd72","lZZYeKPnioRMyyjah6rS58sedp13","1","images/choice_trial_9.png","images/choice_trial_10.png","images/pattern_5.png","f","f","750","9","10","4","0","16","0","0","10","80","","","","",""
"html-keyboard-response","85","166262","0.0-37.0-1.0","","null","<div style=""display: flex; flex-direction: column; align-items: center; margin-top: -40px;""><img src=""images/pattern_5.png"" style=""width: 234px; height: 230px; margin-top: -50px;""><div style=""display: flex; justify-content: space-between; margin-top: 33px;""><img src=""images/choice_trial_10.png"" style=""width: 408px; height: 417px; margin-left:608px;""></div></div>","null","delaylearn","learning","display_response","5996f25a05a0e30001f1fd72","lZZYeKPnioRMyyjah6rS58sedp13","","","","","","","","","","","","","","","","","chosen stimuli: images/choice_trial_10.png","","","",""
"html-keyboard-response","86","167022","0.0-37.0-2.0","","null","","null","delaylearn","learning","feedback_duration_window","5996f25a05a0e30001f1fd72","lZZYeKPnioRMyyjah6rS58sedp13","","","","","","","","","","","","","","","","","","750","","",""
"html-keyboard-response","87","168529","0.0-37.0-3.0","","null","<div style='margin:auto;width: auto; font-size: 150%'><span style='font-weight: bold; font-size: 100px; color: red;'>0 points!</span><br><br></div>","null","delaylearn","learning","feedback_image_window","5996f25a05a0e30001f1fd72","lZZYeKPnioRMyyjah6rS58sedp13","","","","","","","","","","","","","","","","","","","","",""
"html-keyboard-response","88","169041","0.0-38.0-0.0","","null","","null","","","mood_trial_fixation","","","","","","","","","","","","","","","","","","","","","","",""
"lmdlab-html-vas-response","89","173851","0.0-38.0-1.0","","3796","How happy are you right now?","0.21669560185185185","delaylearn","learning","mood_trial","5996f25a05a0e30001f1fd72","lZZYeKPnioRMyyjah6rS58sedp13","","","","","","","","","","","","","","","","","","","","[""Very unhappy"",""Very happy""]",""
"html-keyboard-response","90","176241","0.0-39.0","","null","<div style=""font-size:100px;"">+</div>","null","delaylearn","learning","ITI","5996f25a05a0e30001f1fd72","lZZYeKPnioRMyyjah6rS58sedp13","","","","","","","","","","","","","","","","","","","2386","",""
"html-keyboard-response","91","177846","0.0-40.0-0.0","","1603.0999999046326","<div style=""display: flex; flex-direction: column; align-items: center; margin-top: -40px;""><img src=""images/pattern_6.png"" style=""width: 234px; height: 230px; margin-top: -50px;""><div style=""display: flex; justify-content: space-between; margin-top: 33px;""><img src=""images/choice_trial_11.png"" style=""width: 408px; height: 417px; margin-right: 200px;""><img src=""images/choice_trial_12.png"" style=""width: 408px; height: 417px;""></div></div>","j","delaylearn","learning","trial","5996f25a05a0e30001f1fd72","lZZYeKPnioRMyyjah6rS58sedp13","1","images/choice_trial_11.png","images/choice_trial_12.png","images/pattern_6.png","f","f","750","11","12","5","0","17","0","0","12","80","","","","",""
"html-keyboard-response","92","178854","0.0-40.0-1.0","","null","<div style=""display: flex; flex-direction: column; align-items: center; margin-top: -40px;""><img src=""images/pattern_6.png"" style=""width: 234px; height: 230px; margin-top: -50px;""><div style=""display: flex; justify-content: space-between; margin-top: 33px;""><img src=""images/choice_trial_12.png"" style=""width: 408px; height: 417px; margin-left:608px;""></div></div>","null","delaylearn","learning","display_response","5996f25a05a0e30001f1fd72","lZZYeKPnioRMyyjah6rS58sedp13","","","","","","","","","","","","","","","","","chosen stimuli: images/choice_trial_12.png","","","",""
"html-keyboard-response","93","179616","0.0-40.0-2.0","","null","","null","delaylearn","learning","feedback_duration_window","5996f25a05a0e30001f1fd72","lZZYeKPnioRMyyjah6rS58sedp13","","","","","","","","","","","","","","","","","","750","","",""
"html-keyboard-response","94","181124","0.0-40.0-3.0","","null","<div style='margin:auto;width: auto; font-size: 150%'><span style='font-weight: bold; font-size: 100px; color: red;'>0 points!</span><br><br></div>","null","delaylearn","learning","feedback_image_window","5996f25a05a0e30001f1fd72","lZZYeKPnioRMyyjah6rS58sedp13","","","","","","","","","","","","","","","","","","","","",""
"html-keyboard-response","95","183147","0.0-41.0","","null","<div style=""font-size:100px;"">+</div>","null","delaylearn","learning","ITI","5996f25a05a0e30001f1fd72","lZZYeKPnioRMyyjah6rS58sedp13","","","","","","","","","","","","","","","","","","","2021","",""
"html-keyboard-response","96","184698","0.0-42.0-0.0","","1549.2999999523163","<div style=""display: flex; flex-direction: column; align-items: center; margin-top: -40px;""><img src=""images/pattern_4.png"" style=""width: 234px; height: 230px; margin-top: -50px;""><div style=""display: flex; justify-content: space-between; margin-top: 33px;""><img src=""images/choice_trial_8.png"" style=""width: 408px; height: 417px; margin-right: 200px;""><img src=""images/choice_trial_7.png"" style=""width: 408px; height: 417px;""></div></div>","j","delaylearn","learning","trial","5996f25a05a0e30001f1fd72","lZZYeKPnioRMyyjah6rS58sedp13","1","images/choice_trial_8.png","images/choice_trial_7.png","images/pattern_4.png","j","j","7000","8","7","3","1","18","1","1","7","90","","","","",""
"html-keyboard-response","97","185710","0.0-42.0-1.0","","null","<div style=""display: flex; flex-direction: column; align-items: center; margin-top: -40px;""><img src=""images/pattern_4.png"" style=""width: 234px; height: 230px; margin-top: -50px;""><div style=""display: flex; justify-content: space-between; margin-top: 33px;""><img src=""images/choice_trial_7.png"" style=""width: 408px; height: 417px; margin-left:608px;""></div></div>","null","delaylearn","learning","display_response","5996f25a05a0e30001f1fd72","lZZYeKPnioRMyyjah6rS58sedp13","","","","","","","","","","","","","","","","","chosen stimuli: images/choice_trial_7.png","","","",""
"html-keyboard-response","98","192714","0.0-42.0-2.0","","null","","null","delaylearn","learning","feedback_duration_window","5996f25a05a0e30001f1fd72","lZZYeKPnioRMyyjah6rS58sedp13","","","","","","","","","","","","","","","","","","7000","","",""
"html-keyboard-response","99","194225","0.0-42.0-3.0","","null","<div style='margin:auto;width: auto; font-size: 150%'><span style='font-weight: bold; font-size: 100px; color: green;'>+10 points!</span><br><br></div>","null","delaylearn","learning","feedback_image_window","5996f25a05a0e30001f1fd72","lZZYeKPnioRMyyjah6rS58sedp13","","","","","","","","","","","","","","","","","","","","",""
"html-keyboard-response","100","196120","0.0-43.0","","null","<div style=""font-size:100px;"">+</div>","null","delaylearn","learning","ITI","5996f25a05a0e30001f1fd72","lZZYeKPnioRMyyjah6rS58sedp13","","","","","","","","","","","","","","","","","","","1883","",""
"html-keyboard-response","101","198044","0.0-44.0-0.0","","1921.6000001430511","<div style=""display: flex; flex-direction: column; align-items: center; margin-top: -40px;""><img src=""images/pattern_7.png"" style=""width: 234px; height: 230px; margin-top: -50px;""><div style=""display: flex; justify-content: space-between; margin-top: 33px;""><img src=""images/choice_trial_13.png"" style=""width: 408px; height: 417px; margin-right: 200px;""><img src=""images/choice_trial_14.png"" style=""width: 408px; height: 417px;""></div></div>","j","delaylearn","learning","trial","5996f25a05a0e30001f1fd72","lZZYeKPnioRMyyjah6rS58sedp13","1","images/choice_trial_13.png","images/choice_trial_14.png","images/pattern_7.png","j","f","750","13","14","6","0","19","0","1","14","100","","","","",""
"html-keyboard-response","102","199051","0.0-44.0-1.0","","null","<div style=""display: flex; flex-direction: column; align-items: center; margin-top: -40px;""><img src=""images/pattern_7.png"" style=""width: 234px; height: 230px; margin-top: -50px;""><div style=""display: flex; justify-content: space-between; margin-top: 33px;""><img src=""images/choice_trial_14.png"" style=""width: 408px; height: 417px; margin-left:608px;""></div></div>","null","delaylearn","learning","display_response","5996f25a05a0e30001f1fd72","lZZYeKPnioRMyyjah6rS58sedp13","","","","","","","","","","","","","","","","","chosen stimuli: images/choice_trial_14.png","","","",""
"html-keyboard-response","103","199814","0.0-44.0-2.0","","null","","null","delaylearn","learning","feedback_duration_window","5996f25a05a0e30001f1fd72","lZZYeKPnioRMyyjah6rS58sedp13","","","","","","","","","","","","","","","","","","750","","",""
"html-keyboard-response","104","201318","0.0-44.0-3.0","","null","<div style='margin:auto;width: auto; font-size: 150%'><span style='font-weight: bold; font-size: 100px; color: green;'>+10 points!</span><br><br></div>","null","delaylearn","learning","feedback_image_window","5996f25a05a0e30001f1fd72","lZZYeKPnioRMyyjah6rS58sedp13","","","","","","","","","","","","","","","","","","","","",""
"html-keyboard-response","105","202857","0.0-45.0","","null","<div style=""font-size:100px;"">+</div>","null","delaylearn","learning","ITI","5996f25a05a0e30001f1fd72","lZZYeKPnioRMyyjah6rS58sedp13","","","","","","","","","","","","","","","","","","","1527","",""
"html-keyboard-response","106","204206","0.0-46.0-0.0","","1346.3999998569489","<div style=""display: flex; flex-direction: column; align-items: center; margin-top: -40px;""><img src=""images/pattern_1.png"" style=""width: 234px; height: 230px; margin-top: -50px;""><div style=""display: flex; justify-content: space-between; margin-top: 33px;""><img src=""images/choice_trial_1.png"" style=""width: 408px; height: 417px; margin-right: 200px;""><img src=""images/choice_trial_2.png"" style=""width: 408px; height: 417px;""></div></div>","f","delaylearn","learning","trial","5996f25a05a0e30001f1fd72","lZZYeKPnioRMyyjah6rS58sedp13","1","images/choice_trial_1.png","images/choice_trial_2.png","images/pattern_1.png","f","f","7000","1","2","1","0","20","1","1","1","110","","","","",""
"html-keyboard-response","107","205219","0.0-46.0-1.0","","null","<div style=""display: flex; flex-direction: column; align-items: center; margin-top: -40px;""><img src=""images/pattern_1.png"" style=""width: 234px; height: 230px; margin-top: -50px;""><div style=""display: flex; justify-content: space-between; margin-top: 33px;""><img src=""images/choice_trial_1.png"" style=""width: 408px; height: 417px; margin-right: 608px;""></div></div>","null","delaylearn","learning","display_response","5996f25a05a0e30001f1fd72","lZZYeKPnioRMyyjah6rS58sedp13","","","","","","","","","","","","","","","","","chosen stimuli: images/choice_trial_1.png","","","",""
"html-keyboard-response","108","212230","0.0-46.0-2.0","","null","","null","delaylearn","learning","feedback_duration_window","5996f25a05a0e30001f1fd72","lZZYeKPnioRMyyjah6rS58sedp13","","","","","","","","","","","","","","","","","","7000","","",""
"html-keyboard-response","109","213741","0.0-46.0-3.0","","null","<div style='margin:auto;width: auto; font-size: 150%'><span style='font-weight: bold; font-size: 100px; color: green;'>+10 points!</span><br><br></div>","null","delaylearn","learning","feedback_image_window","5996f25a05a0e30001f1fd72","lZZYeKPnioRMyyjah6rS58sedp13","","","","","","","","","","","","","","","","","","","","",""
"html-keyboard-response","110","215824","0.0-47.0","","null","<div style=""font-size:100px;"">+</div>","null","delaylearn","learning","ITI","5996f25a05a0e30001f1fd72","lZZYeKPnioRMyyjah6rS58sedp13","","","","","","","","","","","","","","","","","","","2080","",""
"html-keyboard-response","111","218302","0.0-48.0-0.0","","2475.7999999523163","<div style=""display: flex; flex-direction: column; align-items: center; margin-top: -40px;""><img src=""images/pattern_6.png"" style=""width: 234px; height: 230px; margin-top: -50px;""><div style=""display: flex; justify-content: space-between; margin-top: 33px;""><img src=""images/choice_trial_12.png"" style=""width: 408px; height: 417px; margin-right: 200px;""><img src=""images/choice_trial_11.png"" style=""width: 408px; height: 417px;""></div></div>","f","delaylearn","learning","trial","5996f25a05a0e30001f1fd72","lZZYeKPnioRMyyjah6rS58sedp13","1","images/choice_trial_12.png","images/choice_trial_11.png","images/pattern_6.png","j","j","750","12","11","5","1","21","0","0","12","110","","","","",""
"html-keyboard-response","112","219308","0.0-48.0-1.0","","null","<div style=""display: flex; flex-direction: column; align-items: center; margin-top: -40px;""><img src=""images/pattern_6.png"" style=""width: 234px; height: 230px; margin-top: -50px;""><div style=""display: flex; justify-content: space-between; margin-top: 33px;""><img src=""images/choice_trial_12.png"" style=""width: 408px; height: 417px; margin-right: 608px;""></div></div>","null","delaylearn","learning","display_response","5996f25a05a0e30001f1fd72","lZZYeKPnioRMyyjah6rS58sedp13","","","","","","","","","","","","","","","","","chosen stimuli: images/choice_trial_12.png","","","",""
"html-keyboard-response","113","220068","0.0-48.0-2.0","","null","","null","delaylearn","learning","feedback_duration_window","5996f25a05a0e30001f1fd72","lZZYeKPnioRMyyjah6rS58sedp13","","","","","","","","","","","","","","","","","","750","","",""
"html-keyboard-response","114","221580","0.0-48.0-3.0","","null","<div style='margin:auto;width: auto; font-size: 150%'><span style='font-weight: bold; font-size: 100px; color: red;'>0 points!</span><br><br></div>","null","delaylearn","learning","feedback_image_window","5996f25a05a0e30001f1fd72","lZZYeKPnioRMyyjah6rS58sedp13","","","","","","","","","","","","","","","","","","","","",""
"html-keyboard-response","115","223386","0.0-49.0","","null","<div style=""font-size:100px;"">+</div>","null","delaylearn","learning","ITI","5996f25a05a0e30001f1fd72","lZZYeKPnioRMyyjah6rS58sedp13","","","","","","","","","","","","","","","","","","","1798","",""
"html-keyboard-response","116","225200","0.0-50.0-0.0","","1811.7999999523163","<div style=""display: flex; flex-direction: column; align-items: center; margin-top: -40px;""><img src=""images/pattern_4.png"" style=""width: 234px; height: 230px; margin-top: -50px;""><div style=""display: flex; justify-content: space-between; margin-top: 33px;""><img src=""images/choice_trial_7.png"" style=""width: 408px; height: 417px; margin-right: 200px;""><img src=""images/choice_trial_8.png"" style=""width: 408px; height: 417px;""></div></div>","f","delaylearn","learning","trial","5996f25a05a0e30001f1fd72","lZZYeKPnioRMyyjah6rS58sedp13","1","images/choice_trial_7.png","images/choice_trial_8.png","images/pattern_4.png","f","f","7000","7","8","3","0","22","1","1","7","120","","","","",""
"html-keyboard-response","117","226216","0.0-50.0-1.0","","null","<div style=""display: flex; flex-direction: column; align-items: center; margin-top: -40px;""><img src=""images/pattern_4.png"" style=""width: 234px; height: 230px; margin-top: -50px;""><div style=""display: flex; justify-content: space-between; margin-top: 33px;""><img src=""images/choice_trial_7.png"" style=""width: 408px; height: 417px; margin-right: 608px;""></div></div>","null","delaylearn","learning","display_response","5996f25a05a0e30001f1fd72","lZZYeKPnioRMyyjah6rS58sedp13","","","","","","","","","","","","","","","","","chosen stimuli: images/choice_trial_7.png","","","",""
"html-keyboard-response","118","233220","0.0-50.0-2.0","","null","","null","delaylearn","learning","feedback_duration_window","5996f25a05a0e30001f1fd72","lZZYeKPnioRMyyjah6rS58sedp13","","","","","","","","","","","","","","","","","","7000","","",""
"html-keyboard-response","119","234729","0.0-50.0-3.0","","null","<div style='margin:auto;width: auto; font-size: 150%'><span style='font-weight: bold; font-size: 100px; color: green;'>+10 points!</span><br><br></div>","null","delaylearn","learning","feedback_image_window","5996f25a05a0e30001f1fd72","lZZYeKPnioRMyyjah6rS58sedp13","","","","","","","","","","","","","","","","","","","","",""
"html-keyboard-response","120","235243","0.0-51.0-0.0","","null","","null","","","mood_trial_fixation","","","","","","","","","","","","","","","","","","","","","","",""
"lmdlab-html-vas-response","121","239708","0.0-51.0-1.0","","3452","How happy are you right now?","0.4759548611111111","delaylearn","learning","mood_trial","5996f25a05a0e30001f1fd72","lZZYeKPnioRMyyjah6rS58sedp13","","","","","","","","","","","","","","","","","","","","[""Very unhappy"",""Very happy""]",""
"html-keyboard-response","122","241726","0.0-52.0","","null","<div style=""font-size:100px;"">+</div>","null","delaylearn","learning","ITI","5996f25a05a0e30001f1fd72","lZZYeKPnioRMyyjah6rS58sedp13","","","","","","","","","","","","","","","","","","","2002","",""
"html-keyboard-response","123","243904","0.0-53.0-0.0","","2176.5999999046326","<div style=""display: flex; flex-direction: column; align-items: center; margin-top: -40px;""><img src=""images/pattern_7.png"" style=""width: 234px; height: 230px; margin-top: -50px;""><div style=""display: flex; justify-content: space-between; margin-top: 33px;""><img src=""images/choice_trial_14.png"" style=""width: 408px; height: 417px; margin-right: 200px;""><img src=""images/choice_trial_13.png"" style=""width: 408px; height: 417px;""></div></div>","j","delaylearn","learning","trial","5996f25a05a0e30001f1fd72","lZZYeKPnioRMyyjah6rS58sedp13","1","images/choice_trial_14.png","images/choice_trial_13.png","images/pattern_7.png","j","j","750","14","13","6","1","23","1","1","13","130","","","","",""
"html-keyboard-response","124","244908","0.0-53.0-1.0","","null","<div style=""display: flex; flex-direction: column; align-items: center; margin-top: -40px;""><img src=""images/pattern_7.png"" style=""width: 234px; height: 230px; margin-top: -50px;""><div style=""display: flex; justify-content: space-between; margin-top: 33px;""><img src=""images/choice_trial_13.png"" style=""width: 408px; height: 417px; margin-left:608px;""></div></div>","null","delaylearn","learning","display_response","5996f25a05a0e30001f1fd72","lZZYeKPnioRMyyjah6rS58sedp13","","","","","","","","","","","","","","","","","chosen stimuli: images/choice_trial_13.png","","","",""
"html-keyboard-response","125","245670","0.0-53.0-2.0","","null","","null","delaylearn","learning","feedback_duration_window","5996f25a05a0e30001f1fd72","lZZYeKPnioRMyyjah6rS58sedp13","","","","","","","","","","","","","","","","","","750","","",""
"html-keyboard-response","126","247176","0.0-53.0-3.0","","null","<div style='margin:auto;width: auto; font-size: 150%'><span style='font-weight: bold; font-size: 100px; color: green;'>+10 points!</span><br><br></div>","null","delaylearn","learning","feedback_image_window","5996f25a05a0e30001f1fd72","lZZYeKPnioRMyyjah6rS58sedp13","","","","","","","","","","","","","","","","","","","","",""
"html-keyboard-response","127","249675","0.0-54.0","","null","<div style=""font-size:100px;"">+</div>","null","delaylearn","learning","ITI","5996f25a05a0e30001f1fd72","lZZYeKPnioRMyyjah6rS58sedp13","","","","","","","","","","","","","","","","","","","2486","",""
"html-keyboard-response","128","252218","0.0-55.0-0.0","","2541.2000000476837","<div style=""display: flex; flex-direction: column; align-items: center; margin-top: -40px;""><img src=""images/pattern_1.png"" style=""width: 234px; height: 230px; margin-top: -50px;""><div style=""display: flex; justify-content: space-between; margin-top: 33px;""><img src=""images/choice_trial_2.png"" style=""width: 408px; height: 417px; margin-right: 200px;""><img src=""images/choice_trial_1.png"" style=""width: 408px; height: 417px;""></div></div>","f","delaylearn","learning","trial","5996f25a05a0e30001f1fd72","lZZYeKPnioRMyyjah6rS58sedp13","1","images/choice_trial_2.png","images/choice_trial_1.png","images/pattern_1.png","f","j","7000","2","1","1","1","24","0","1","2","140","","","","",""
"html-keyboard-response","129","253224","0.0-55.0-1.0","","null","<div style=""display: flex; flex-direction: column; align-items: center; margin-top: -40px;""><img src=""images/pattern_1.png"" style=""width: 234px; height: 230px; margin-top: -50px;""><div style=""display: flex; justify-content: space-between; margin-top: 33px;""><img src=""images/choice_trial_2.png"" style=""width: 408px; height: 417px; margin-right: 608px;""></div></div>","null","delaylearn","learning","display_response","5996f25a05a0e30001f1fd72","lZZYeKPnioRMyyjah6rS58sedp13","","","","","","","","","","","","","","","","","chosen stimuli: images/choice_trial_2.png","","","",""
"html-keyboard-response","130","260226","0.0-55.0-2.0","","null","","null","delaylearn","learning","feedback_duration_window","5996f25a05a0e30001f1fd72","lZZYeKPnioRMyyjah6rS58sedp13","","","","","","","","","","","","","","","","","","7000","","",""
"html-keyboard-response","131","261735","0.0-55.0-3.0","","null","<div style='margin:auto;width: auto; font-size: 150%'><span style='font-weight: bold; font-size: 100px; color: green;'>+10 points!</span><br><br></div>","null","delaylearn","learning","feedback_image_window","5996f25a05a0e30001f1fd72","lZZYeKPnioRMyyjah6rS58sedp13","","","","","","","","","","","","","","","","","","","","",""
"html-keyboard-response","132","263383","0.0-56.0","","null","<div style=""font-size:100px;"">+</div>","null","delaylearn","learning","ITI","5996f25a05a0e30001f1fd72","lZZYeKPnioRMyyjah6rS58sedp13","","","","","","","","","","","","","","","","","","","1647","",""
"html-keyboard-response","133","265206","0.0-57.0-0.0","","1820.8999998569489","<div style=""display: flex; flex-direction: column; align-items: center; margin-top: -40px;""><img src=""images/pattern_5.png"" style=""width: 234px; height: 230px; margin-top: -50px;""><div style=""display: flex; justify-content: space-between; margin-top: 33px;""><img src=""images/choice_trial_10.png"" style=""width: 408px; height: 417px; margin-right: 200px;""><img src=""images/choice_trial_9.png"" style=""width: 408px; height: 417px;""></div></div>","f","delaylearn","learning","trial","5996f25a05a0e30001f1fd72","lZZYeKPnioRMyyjah6rS58sedp13","1","images/choice_trial_10.png","images/choice_trial_9.png","images/pattern_5.png","j","j","750","10","9","4","1","25","0","0","10","140","","","","",""
"html-keyboard-response","134","266211","0.0-57.0-1.0","","null","<div style=""display: flex; flex-direction: column; align-items: center; margin-top: -40px;""><img src=""images/pattern_5.png"" style=""width: 234px; height: 230px; margin-top: -50px;""><div style=""display: flex; justify-content: space-between; margin-top: 33px;""><img src=""images/choice_trial_10.png"" style=""width: 408px; height: 417px; margin-right: 608px;""></div></div>","null","delaylearn","learning","display_response","5996f25a05a0e30001f1fd72","lZZYeKPnioRMyyjah6rS58sedp13","","","","","","","","","","","","","","","","","chosen stimuli: images/choice_trial_10.png","","","",""
"html-keyboard-response","135","266973","0.0-57.0-2.0","","null","","null","delaylearn","learning","feedback_duration_window","5996f25a05a0e30001f1fd72","lZZYeKPnioRMyyjah6rS58sedp13","","","","","","","","","","","","","","","","","","750","","",""
"html-keyboard-response","136","268476","0.0-57.0-3.0","","null","<div style='margin:auto;width: auto; font-size: 150%'><span style='font-weight: bold; font-size: 100px; color: red;'>0 points!</span><br><br></div>","null","delaylearn","learning","feedback_image_window","5996f25a05a0e30001f1fd72","lZZYeKPnioRMyyjah6rS58sedp13","","","","","","","","","","","","","","","","","","","","",""
"html-keyboard-response","137","270090","0.0-58.0","","null","<div style=""font-size:100px;"">+</div>","null","delaylearn","learning","ITI","5996f25a05a0e30001f1fd72","lZZYeKPnioRMyyjah6rS58sedp13","","","","","","","","","","","","","","","","","","","1602","",""
"html-keyboard-response","138","271667","0.0-59.0-0.0","","1574.7999999523163","<div style=""display: flex; flex-direction: column; align-items: center; margin-top: -40px;""><img src=""images/pattern_3.png"" style=""width: 234px; height: 230px; margin-top: -50px;""><div style=""display: flex; justify-content: space-between; margin-top: 33px;""><img src=""images/choice_trial_6.png"" style=""width: 408px; height: 417px; margin-right: 200px;""><img src=""images/choice_trial_5.png"" style=""width: 408px; height: 417px;""></div></div>","j","delaylearn","learning","trial","5996f25a05a0e30001f1fd72","lZZYeKPnioRMyyjah6rS58sedp13","1","images/choice_trial_6.png","images/choice_trial_5.png","images/pattern_3.png","j","j","7000","6","5","2","1","26","1","1","5","150","","","","",""
"html-keyboard-response","139","272684","0.0-59.0-1.0","","null","<div style=""display: flex; flex-direction: column; align-items: center; margin-top: -40px;""><img src=""images/pattern_3.png"" style=""width: 234px; height: 230px; margin-top: -50px;""><div style=""display: flex; justify-content: space-between; margin-top: 33px;""><img src=""images/choice_trial_5.png"" style=""width: 408px; height: 417px; margin-left:608px;""></div></div>","null","delaylearn","learning","display_response","5996f25a05a0e30001f1fd72","lZZYeKPnioRMyyjah6rS58sedp13","","","","","","","","","","","","","","","","","chosen stimuli: images/choice_trial_5.png","","","",""
"html-keyboard-response","140","279693","0.0-59.0-2.0","","null","","null","delaylearn","learning","feedback_duration_window","5996f25a05a0e30001f1fd72","lZZYeKPnioRMyyjah6rS58sedp13","","","","","","","","","","","","","","","","","","7000","","",""
"html-keyboard-response","141","281206","0.0-59.0-3.0","","null","<div style='margin:auto;width: auto; font-size: 150%'><span style='font-weight: bold; font-size: 100px; color: green;'>+10 points!</span><br><br></div>","null","delaylearn","learning","feedback_image_window","5996f25a05a0e30001f1fd72","lZZYeKPnioRMyyjah6rS58sedp13","","","","","","","","","","","","","","","","","","","","",""
"lmdlab-html-vas-response","142","286926","0.0-60.0-0.0","","4193","*How <b><u>confident</u></b> are you feeling about your answers at this moment?*","0.45","rewlearn","rate_confidence","","5996f25a05a0e30001f1fd72","lZZYeKPnioRMyyjah6rS58sedp13","","","","","","","","","","","","","","","","","","","","[""No confidence"",""Complete confidence""]",""
"lmdlab-rest-trial-limit","143","311100","0.0-60.0-1.0","","22670.199999809265","<div style=""font-size:40px;""><b>Please take a break!</b><br><br><br><br><p>Great work: you earned 150 points.<br><br><br><p>You have completed part(s) 1 of 5.<br><br><br><br>When you are ready to continue<br><br><br>please click the button.</p><br><br>","0","delaylearn","learning","break","5996f25a05a0e30001f1fd72","lZZYeKPnioRMyyjah6rS58sedp13","","","","","","","","","","","","","","","","","","","","","0"
"html-keyboard-response","144","314105","0.0-60.0-2.0","","null","<div style=""font-size:100px;"">+</div>","null","delaylearn","learning","pre_fixation","5996f25a05a0e30001f1fd72","","","","","","","","","","","","","","","","","","","","","",""
"lmdlab-html-vas-response","145","318354","0.0-60.0-3.0-0.0","","3236","How happy are you right now?","0.4981770833333333","delaylearn","learning","mood_baseline","5996f25a05a0e30001f1fd72","lZZYeKPnioRMyyjah6rS58sedp13","","","","","","","","","","","","","","","","","","","","[""Very unhappy"",""Very happy""]",""
"html-keyboard-response","146","319858","0.0-60.0-3.0-1.0","","null","","null","","","mood_baseline_fixation","","","","","","","","","","","","","","","","","","","","","","",""
"html-keyboard-response","147","321758","0.0-61.0","","null","<div style=""font-size:100px;"">+</div>","null","delaylearn","learning","ITI","5996f25a05a0e30001f1fd72","lZZYeKPnioRMyyjah6rS58sedp13","","","","","","","","","","","","","","","","","","","1895","",""
"html-keyboard-response","148","324728","0.0-62.0-0.0","","2967.5999999046326","<div style=""display: flex; flex-direction: column; align-items: center; margin-top: -40px;""><img src=""images/pattern_7.png"" style=""width: 234px; height: 230px; margin-top: -50px;""><div style=""display: flex; justify-content: space-between; margin-top: 33px;""><img src=""images/choice_trial_14.png"" style=""width: 408px; height: 417px; margin-right: 200px;""><img src=""images/choice_trial_13.png"" style=""width: 408px; height: 417px;""></div></div>","f","delaylearn","learning","trial","5996f25a05a0e30001f1fd72","lZZYeKPnioRMyyjah6rS58sedp13","1","images/choice_trial_14.png","images/choice_trial_13.png","images/pattern_7.png","j","j","750","14","13","6","1","27","0","0","14","150","","","","",""
"html-keyboard-response","149","325733","0.0-62.0-1.0","","null","<div style=""display: flex; flex-direction: column; align-items: center; margin-top: -40px;""><img src=""images/pattern_7.png"" style=""width: 234px; height: 230px; margin-top: -50px;""><div style=""display: flex; justify-content: space-between; margin-top: 33px;""><img src=""images/choice_trial_14.png"" style=""width: 408px; height: 417px; margin-right: 608px;""></div></div>","null","delaylearn","learning","display_response","5996f25a05a0e30001f1fd72","lZZYeKPnioRMyyjah6rS58sedp13","","","","","","","","","","","","","","","","","chosen stimuli: images/choice_trial_14.png","","","",""
"html-keyboard-response","150","326492","0.0-62.0-2.0","","null","","null","delaylearn","learning","feedback_duration_window","5996f25a05a0e30001f1fd72","lZZYeKPnioRMyyjah6rS58sedp13","","","","","","","","","","","","","","","","","","750","","",""
"html-keyboard-response","151","327999","0.0-62.0-3.0","","null","<div style='margin:auto;width: auto; font-size: 150%'><span style='font-weight: bold; font-size: 100px; color: red;'>0 points!</span><br><br></div>","null","delaylearn","learning","feedback_image_window","5996f25a05a0e30001f1fd72","lZZYeKPnioRMyyjah6rS58sedp13","","","","","","","","","","","","","","","","","","","","",""
"html-keyboard-response","152","328514","0.0-63.0-0.0","","null","","null","","","mood_trial_fixation","","","","","","","","","","","","","","","","","","","","","","",""
"lmdlab-html-vas-response","153","333899","0.0-63.0-1.0","","4371","How happy are you right now?","0.3537326388888889","delaylearn","learning","mood_trial","5996f25a05a0e30001f1fd72","lZZYeKPnioRMyyjah6rS58sedp13","","","","","","","","","","","","","","","","","","","","[""Very unhappy"",""Very happy""]",""
"html-keyboard-response","154","335776","0.0-64.0","","null","<div style=""font-size:100px;"">+</div>","null","delaylearn","learning","ITI","5996f25a05a0e30001f1fd72","lZZYeKPnioRMyyjah6rS58sedp13","","","","","","","","","","","","","","","","","","","1865","",""
"html-keyboard-response","155","337621","0.0-65.0-0.0","","1842.5","<div style=""display: flex; flex-direction: column; align-items: center; margin-top: -40px;""><img src=""images/pattern_1.png"" style=""width: 234px; height: 230px; margin-top: -50px;""><div style=""display: flex; justify-content: space-between; margin-top: 33px;""><img src=""images/choice_trial_1.png"" style=""width: 408px; height: 417px; margin-right: 200px;""><img src=""images/choice_trial_2.png"" style=""width: 408px; height: 417px;""></div></div>","j","delaylearn","learning","trial","5996f25a05a0e30001f1fd72","lZZYeKPnioRMyyjah6rS58sedp13","1","images/choice_trial_1.png","images/choice_trial_2.png","images/pattern_1.png","f","f","7000","1","2","1","0","28","0","0","2","150","","","","",""
"html-keyboard-response","156","338631","0.0-65.0-1.0","","null","<div style=""display: flex; flex-direction: column; align-items: center; margin-top: -40px;""><img src=""images/pattern_1.png"" style=""width: 234px; height: 230px; margin-top: -50px;""><div style=""display: flex; justify-content: space-between; margin-top: 33px;""><img src=""images/choice_trial_2.png"" style=""width: 408px; height: 417px; margin-left:608px;""></div></div>","null","delaylearn","learning","display_response","5996f25a05a0e30001f1fd72","lZZYeKPnioRMyyjah6rS58sedp13","","","","","","","","","","","","","","","","","chosen stimuli: images/choice_trial_2.png","","","",""
"html-keyboard-response","157","345639","0.0-65.0-2.0","","null","","null","delaylearn","learning","feedback_duration_window","5996f25a05a0e30001f1fd72","lZZYeKPnioRMyyjah6rS58sedp13","","","","","","","","","","","","","","","","","","7000","","",""
"html-keyboard-response","158","347144","0.0-65.0-3.0","","null","<div style='margin:auto;width: auto; font-size: 150%'><span style='font-weight: bold; font-size: 100px; color: red;'>0 points!</span><br><br></div>","null","delaylearn","learning","feedback_image_window","5996f25a05a0e30001f1fd72","lZZYeKPnioRMyyjah6rS58sedp13","","","","","","","","","","","","","","","","","","","","",""
"html-keyboard-response","159","349412","0.0-66.0","","null","<div style=""font-size:100px;"">+</div>","null","delaylearn","learning","ITI","5996f25a05a0e30001f1fd72","lZZYeKPnioRMyyjah6rS58sedp13","","","","","","","","","","","","","","","","","","","2260","",""
"html-keyboard-response","160","350850","0.0-67.0-0.0","","1435.2000000476837","<div style=""display: flex; flex-direction: column; align-items: center; margin-top: -40px;""><img src=""images/pattern_5.png"" style=""width: 234px; height: 230px; margin-top: -50px;""><div style=""display: flex; justify-content: space-between; margin-top: 33px;""><img src=""images/choice_trial_9.png"" style=""width: 408px; height: 417px; margin-right: 200px;""><img src=""images/choice_trial_10.png"" style=""width: 408px; height: 417px;""></div></div>","j","delaylearn","learning","trial","5996f25a05a0e30001f1fd72","lZZYeKPnioRMyyjah6rS58sedp13","1","images/choice_trial_9.png","images/choice_trial_10.png","images/pattern_5.png","f","f","750","9","10","4","0","29","0","0","10","150","","","","",""
"html-keyboard-response","161","351854","0.0-67.0-1.0","","null","<div style=""display: flex; flex-direction: column; align-items: center; margin-top: -40px;""><img src=""images/pattern_5.png"" style=""width: 234px; height: 230px; margin-top: -50px;""><div style=""display: flex; justify-content: space-between; margin-top: 33px;""><img src=""images/choice_trial_10.png"" style=""width: 408px; height: 417px; margin-left:608px;""></div></div>","null","delaylearn","learning","display_response","5996f25a05a0e30001f1fd72","lZZYeKPnioRMyyjah6rS58sedp13","","","","","","","","","","","","","","","","","chosen stimuli: images/choice_trial_10.png","","","",""
"html-keyboard-response","162","352618","0.0-67.0-2.0","","null","","null","delaylearn","learning","feedback_duration_window","5996f25a05a0e30001f1fd72","lZZYeKPnioRMyyjah6rS58sedp13","","","","","","","","","","","","","","","","","","750","","",""
"html-keyboard-response","163","354126","0.0-67.0-3.0","","null","<div style='margin:auto;width: auto; font-size: 150%'><span style='font-weight: bold; font-size: 100px; color: red;'>0 points!</span><br><br></div>","null","delaylearn","learning","feedback_image_window","5996f25a05a0e30001f1fd72","lZZYeKPnioRMyyjah6rS58sedp13","","","","","","","","","","","","","","","","","","","","",""
"html-keyboard-response","164","355651","0.0-68.0","","null","<div style=""font-size:100px;"">+</div>","null","delaylearn","learning","ITI","5996f25a05a0e30001f1fd72","lZZYeKPnioRMyyjah6rS58sedp13","","","","","","","","","","","","","","","","","","","1516","",""
"html-keyboard-response","165","357683","0.0-69.0-0.0","","2029.2000000476837","<div style=""display: flex; flex-direction: column; align-items: center; margin-top: -40px;""><img src=""images/pattern_6.png"" style=""width: 234px; height: 230px; margin-top: -50px;""><div style=""display: flex; justify-content: space-between; margin-top: 33px;""><img src=""images/choice_trial_12.png"" style=""width: 408px; height: 417px; margin-right: 200px;""><img src=""images/choice_trial_11.png"" style=""width: 408px; height: 417px;""></div></div>","f","delaylearn","learning","trial","5996f25a05a0e30001f1fd72","lZZYeKPnioRMyyjah6rS58sedp13","1","images/choice_trial_12.png","images/choice_trial_11.png","images/pattern_6.png","j","j","750","12","11","5","1","30","0","0","12","150","","","","",""
"html-keyboard-response","166","358699","0.0-69.0-1.0","","null","<div style=""display: flex; flex-direction: column; align-items: center; margin-top: -40px;""><img src=""images/pattern_6.png"" style=""width: 234px; height: 230px; margin-top: -50px;""><div style=""display: flex; justify-content: space-between; margin-top: 33px;""><img src=""images/choice_trial_12.png"" style=""width: 408px; height: 417px; margin-right: 608px;""></div></div>","null","delaylearn","learning","display_response","5996f25a05a0e30001f1fd72","lZZYeKPnioRMyyjah6rS58sedp13","","","","","","","","","","","","","","","","","chosen stimuli: images/choice_trial_12.png","","","",""
"html-keyboard-response","167","359462","0.0-69.0-2.0","","null","","null","delaylearn","learning","feedback_duration_window","5996f25a05a0e30001f1fd72","lZZYeKPnioRMyyjah6rS58sedp13","","","","","","","","","","","","","","","","","","750","","",""
"html-keyboard-response","168","360971","0.0-69.0-3.0","","null","<div style='margin:auto;width: auto; font-size: 150%'><span style='font-weight: bold; font-size: 100px; color: red;'>0 points!</span><br><br></div>","null","delaylearn","learning","feedback_image_window","5996f25a05a0e30001f1fd72","lZZYeKPnioRMyyjah6rS58sedp13","","","","","","","","","","","","","","","","","","","","",""
"html-keyboard-response","169","361485","0.0-70.0-0.0","","null","","null","","","mood_trial_fixation","","","","","","","","","","","","","","","","","","","","","","",""
"lmdlab-html-vas-response","170","366173","0.0-70.0-1.0","","3676","How happy are you right now?","0.18521412037037038","delaylearn","learning","mood_trial","5996f25a05a0e30001f1fd72","lZZYeKPnioRMyyjah6rS58sedp13","","","","","","","","","","","","","","","","","","","","[""Very unhappy"",""Very happy""]",""
"html-keyboard-response","171","368103","0.0-71.0","","null","<div style=""font-size:100px;"">+</div>","null","delaylearn","learning","ITI","5996f25a05a0e30001f1fd72","lZZYeKPnioRMyyjah6rS58sedp13","","","","","","","","","","","","","","","","","","","1914","",""
"html-keyboard-response","172","369734","0.0-72.0-0.0","","1628.5","<div style=""display: flex; flex-direction: column; align-items: center; margin-top: -40px;""><img src=""images/pattern_4.png"" style=""width: 234px; height: 230px; margin-top: -50px;""><div style=""display: flex; justify-content: space-between; margin-top: 33px;""><img src=""images/choice_trial_8.png"" style=""width: 408px; height: 417px; margin-right: 200px;""><img src=""images/choice_trial_7.png"" style=""width: 408px; height: 417px;""></div></div>","j","delaylearn","learning","trial","5996f25a05a0e30001f1fd72","lZZYeKPnioRMyyjah6rS58sedp13","1","images/choice_trial_8.png","images/choice_trial_7.png","images/pattern_4.png","j","j","7000","8","7","3","1","31","1","1","7","160","","","","",""
"html-keyboard-response","173","370751","0.0-72.0-1.0","","null","<div style=""display: flex; flex-direction: column; align-items: center; margin-top: -40px;""><img src=""images/pattern_4.png"" style=""width: 234px; height: 230px; margin-top: -50px;""><div style=""display: flex; justify-content: space-between; margin-top: 33px;""><img src=""images/choice_trial_7.png"" style=""width: 408px; height: 417px; margin-left:608px;""></div></div>","null","delaylearn","learning","display_response","5996f25a05a0e30001f1fd72","lZZYeKPnioRMyyjah6rS58sedp13","","","","","","","","","","","","","","","","","chosen stimuli: images/choice_trial_7.png","","","",""
"html-keyboard-response","174","377756","0.0-72.0-2.0","","null","","null","delaylearn","learning","feedback_duration_window","5996f25a05a0e30001f1fd72","lZZYeKPnioRMyyjah6rS58sedp13","","","","","","","","","","","","","","","","","","7000","","",""
"html-keyboard-response","175","379266","0.0-72.0-3.0","","null","<div style='margin:auto;width: auto; font-size: 150%'><span style='font-weight: bold; font-size: 100px; color: green;'>+10 points!</span><br><br></div>","null","delaylearn","learning","feedback_image_window","5996f25a05a0e30001f1fd72","lZZYeKPnioRMyyjah6rS58sedp13","","","","","","","","","","","","","","","","","","","","",""
"html-keyboard-response","176","381179","0.0-73.0","","null","<div style=""font-size:100px;"">+</div>","null","delaylearn","learning","ITI","5996f25a05a0e30001f1fd72","lZZYeKPnioRMyyjah6rS58sedp13","","","","","","","","","","","","","","","","","","","1910","",""
"html-keyboard-response","177","382703","0.0-74.0-0.0","","1521.7999999523163","<div style=""display: flex; flex-direction: column; align-items: center; margin-top: -40px;""><img src=""images/pattern_3.png"" style=""width: 234px; height: 230px; margin-top: -50px;""><div style=""display: flex; justify-content: space-between; margin-top: 33px;""><img src=""images/choice_trial_6.png"" style=""width: 408px; height: 417px; margin-right: 200px;""><img src=""images/choice_trial_5.png"" style=""width: 408px; height: 417px;""></div></div>","j","delaylearn","learning","trial","5996f25a05a0e30001f1fd72","lZZYeKPnioRMyyjah6rS58sedp13","1","images/choice_trial_6.png","images/choice_trial_5.png","images/pattern_3.png","j","j","7000","6","5","2","1","32","1","1","5","170","","","","",""
"html-keyboard-response","178","383705","0.0-74.0-1.0","","null","<div style=""display: flex; flex-direction: column; align-items: center; margin-top: -40px;""><img src=""images/pattern_3.png"" style=""width: 234px; height: 230px; margin-top: -50px;""><div style=""display: flex; justify-content: space-between; margin-top: 33px;""><img src=""images/choice_trial_5.png"" style=""width: 408px; height: 417px; margin-left:608px;""></div></div>","null","delaylearn","learning","display_response","5996f25a05a0e30001f1fd72","lZZYeKPnioRMyyjah6rS58sedp13","","","","","","","","","","","","","","","","","chosen stimuli: images/choice_trial_5.png","","","",""
"html-keyboard-response","179","390717","0.0-74.0-2.0","","null","","null","delaylearn","learning","feedback_duration_window","5996f25a05a0e30001f1fd72","lZZYeKPnioRMyyjah6rS58sedp13","","","","","","","","","","","","","","","","","","7000","","",""
"html-keyboard-response","180","392225","0.0-74.0-3.0","","null","<div style='margin:auto;width: auto; font-size: 150%'><span style='font-weight: bold; font-size: 100px; color: green;'>+10 points!</span><br><br></div>","null","delaylearn","learning","feedback_image_window","5996f25a05a0e30001f1fd72","lZZYeKPnioRMyyjah6rS58sedp13","","","","","","","","","","","","","","","","","","","","",""
"html-keyboard-response","181","393841","0.0-75.0","","null","<div style=""font-size:100px;"">+</div>","null","delaylearn","learning","ITI","5996f25a05a0e30001f1fd72","lZZYeKPnioRMyyjah6rS58sedp13","","","","","","","","","","","","","","","","","","","1600","",""
"html-keyboard-response","182","395465","0.0-76.0-0.0","","1621.4000000953674","<div style=""display: flex; flex-direction: column; align-items: center; margin-top: -40px;""><img src=""images/pattern_5.png"" style=""width: 234px; height: 230px; margin-top: -50px;""><div style=""display: flex; justify-content: space-between; margin-top: 33px;""><img src=""images/choice_trial_9.png"" style=""width: 408px; height: 417px; margin-right: 200px;""><img src=""images/choice_trial_10.png"" style=""width: 408px; height: 417px;""></div></div>","j","delaylearn","learning","trial","5996f25a05a0e30001f1fd72","lZZYeKPnioRMyyjah6rS58sedp13","1","images/choice_trial_9.png","images/choice_trial_10.png","images/pattern_5.png","j","f","750","9","10","4","0","33","0","1","10","180","","","","",""
"html-keyboard-response","183","396481","0.0-76.0-1.0","","null","<div style=""display: flex; flex-direction: column; align-items: center; margin-top: -40px;""><img src=""images/pattern_5.png"" style=""width: 234px; height: 230px; margin-top: -50px;""><div style=""display: flex; justify-content: space-between; margin-top: 33px;""><img src=""images/choice_trial_10.png"" style=""width: 408px; height: 417px; margin-left:608px;""></div></div>","null","delaylearn","learning","display_response","5996f25a05a0e30001f1fd72","lZZYeKPnioRMyyjah6rS58sedp13","","","","","","","","","","","","","","","","","chosen stimuli: images/choice_trial_10.png","","","",""
"html-keyboard-response","184","397244","0.0-76.0-2.0","","null","","null","delaylearn","learning","feedback_duration_window","5996f25a05a0e30001f1fd72","lZZYeKPnioRMyyjah6rS58sedp13","","","","","","","","","","","","","","","","","","750","","",""
"html-keyboard-response","185","398754","0.0-76.0-3.0","","null","<div style='margin:auto;width: auto; font-size: 150%'><span style='font-weight: bold; font-size: 100px; color: green;'>+10 points!</span><br><br></div>","null","delaylearn","learning","feedback_image_window","5996f25a05a0e30001f1fd72","lZZYeKPnioRMyyjah6rS58sedp13","","","","","","","","","","","","","","","","","","","","",""
"html-keyboard-response","186","400606","0.0-77.0","","null","<div style=""font-size:100px;"">+</div>","null","delaylearn","learning","ITI","5996f25a05a0e30001f1fd72","lZZYeKPnioRMyyjah6rS58sedp13","","","","","","","","","","","","","","","","","","","1846","",""
"html-keyboard-response","187","402396","0.0-78.0-0.0","","1788.1999998092651","<div style=""display: flex; flex-direction: column; align-items: center; margin-top: -40px;""><img src=""images/pattern_1.png"" style=""width: 234px; height: 230px; margin-top: -50px;""><div style=""display: flex; justify-content: space-between; margin-top: 33px;""><img src=""images/choice_trial_1.png"" style=""width: 408px; height: 417px; margin-right: 200px;""><img src=""images/choice_trial_2.png"" style=""width: 408px; height: 417px;""></div></div>","f","delaylearn","learning","trial","5996f25a05a0e30001f1fd72","lZZYeKPnioRMyyjah6rS58sedp13","1","images/choice_trial_1.png","images/choice_trial_2.png","images/pattern_1.png","f","f","7000","1","2","1","0","34","1","1","1","190","","","","",""
"html-keyboard-response","188","403406","0.0-78.0-1.0","","null","<div style=""display: flex; flex-direction: column; align-items: center; margin-top: -40px;""><img src=""images/pattern_1.png"" style=""width: 234px; height: 230px; margin-top: -50px;""><div style=""display: flex; justify-content: space-between; margin-top: 33px;""><img src=""images/choice_trial_1.png"" style=""width: 408px; height: 417px; margin-right: 608px;""></div></div>","null","delaylearn","learning","display_response","5996f25a05a0e30001f1fd72","lZZYeKPnioRMyyjah6rS58sedp13","","","","","","","","","","","","","","","","","chosen stimuli: images/choice_trial_1.png","","","",""
"html-keyboard-response","189","410417","0.0-78.0-2.0","","null","","null","delaylearn","learning","feedback_duration_window","5996f25a05a0e30001f1fd72","lZZYeKPnioRMyyjah6rS58sedp13","","","","","","","","","","","","","","","","","","7000","","",""
"html-keyboard-response","190","411926","0.0-78.0-3.0","","null","<div style='margin:auto;width: auto; font-size: 150%'><span style='font-weight: bold; font-size: 100px; color: green;'>+10 points!</span><br><br></div>","null","delaylearn","learning","feedback_image_window","5996f25a05a0e30001f1fd72","lZZYeKPnioRMyyjah6rS58sedp13","","","","","","","","","","","","","","","","","","","","",""
"html-keyboard-response","191","412438","0.0-79.0-0.0","","null","","null","","","mood_trial_fixation","","","","","","","","","","","","","","","","","","","","","","",""
"lmdlab-html-vas-response","192","416590","0.0-79.0-1.0","","3138","How happy are you right now?","0.6296585648148149","delaylearn","learning","mood_trial","5996f25a05a0e30001f1fd72","lZZYeKPnioRMyyjah6rS58sedp13","","","","","","","","","","","","","","","","","","","","[""Very unhappy"",""Very happy""]",""
"html-keyboard-response","193","418107","0.0-80.0","","null","<div style=""font-size:100px;"">+</div>","null","delaylearn","learning","ITI","5996f25a05a0e30001f1fd72","lZZYeKPnioRMyyjah6rS58sedp13","","","","","","","","","","","","","","","","","","","1502","",""
"html-keyboard-response","194","420140","0.0-81.0-0.0","","2030.9000000953674","<div style=""display: flex; flex-direction: column; align-items: center; margin-top: -40px;""><img src=""images/pattern_6.png"" style=""width: 234px; height: 230px; margin-top: -50px;""><div style=""display: flex; justify-content: space-between; margin-top: 33px;""><img src=""images/choice_trial_11.png"" style=""width: 408px; height: 417px; margin-right: 200px;""><img src=""images/choice_trial_12.png"" style=""width: 408px; height: 417px;""></div></div>","j","delaylearn","learning","trial","5996f25a05a0e30001f1fd72","lZZYeKPnioRMyyjah6rS58sedp13","1","images/choice_trial_11.png","images/choice_trial_12.png","images/pattern_6.png","j","f","750","11","12","5","0","35","0","1","12","200","","","","",""
"html-keyboard-response","195","421152","0.0-81.0-1.0","","null","<div style=""display: flex; flex-direction: column; align-items: center; margin-top: -40px;""><img src=""images/pattern_6.png"" style=""width: 234px; height: 230px; margin-top: -50px;""><div style=""display: flex; justify-content: space-between; margin-top: 33px;""><img src=""images/choice_trial_12.png"" style=""width: 408px; height: 417px; margin-left:608px;""></div></div>","null","delaylearn","learning","display_response","5996f25a05a0e30001f1fd72","lZZYeKPnioRMyyjah6rS58sedp13","","","","","","","","","","","","","","","","","chosen stimuli: images/choice_trial_12.png","","","",""
"html-keyboard-response","196","421916","0.0-81.0-2.0","","null","","null","delaylearn","learning","feedback_duration_window","5996f25a05a0e30001f1fd72","lZZYeKPnioRMyyjah6rS58sedp13","","","","","","","","","","","","","","","","","","750","","",""
"html-keyboard-response","197","423423","0.0-81.0-3.0","","null","<div style='margin:auto;width: auto; font-size: 150%'><span style='font-weight: bold; font-size: 100px; color: green;'>+10 points!</span><br><br></div>","null","delaylearn","learning","feedback_image_window","5996f25a05a0e30001f1fd72","lZZYeKPnioRMyyjah6rS58sedp13","","","","","","","","","","","","","","","","","","","","",""
"html-keyboard-response","198","425066","0.0-82.0","","null","<div style=""font-size:100px;"">+</div>","null","delaylearn","learning","ITI","5996f25a05a0e30001f1fd72","lZZYeKPnioRMyyjah6rS58sedp13","","","","","","","","","","","","","","","","","","","1635","",""
"html-keyboard-response","199","426618","0.0-83.0-0.0","","1549.5999999046326","<div style=""display: flex; flex-direction: column; align-items: center; margin-top: -40px;""><img src=""images/pattern_3.png"" style=""width: 234px; height: 230px; margin-top: -50px;""><div style=""display: flex; justify-content: space-between; margin-top: 33px;""><img src=""images/choice_trial_6.png"" style=""width: 408px; height: 417px; margin-right: 200px;""><img src=""images/choice_trial_5.png"" style=""width: 408px; height: 417px;""></div></div>","j","delaylearn","learning","trial","5996f25a05a0e30001f1fd72","lZZYeKPnioRMyyjah6rS58sedp13","1","images/choice_trial_6.png","images/choice_trial_5.png","images/pattern_3.png","j","j","7000","6","5","2","1","36","1","1","5","210","","","","",""
"html-keyboard-response","200","427631","0.0-83.0-1.0","","null","<div style=""display: flex; flex-direction: column; align-items: center; margin-top: -40px;""><img src=""images/pattern_3.png"" style=""width: 234px; height: 230px; margin-top: -50px;""><div style=""display: flex; justify-content: space-between; margin-top: 33px;""><img src=""images/choice_trial_5.png"" style=""width: 408px; height: 417px; margin-left:608px;""></div></div>","null","delaylearn","learning","display_response","5996f25a05a0e30001f1fd72","lZZYeKPnioRMyyjah6rS58sedp13","","","","","","","","","","","","","","","","","chosen stimuli: images/choice_trial_5.png","","","",""
"html-keyboard-response","201","434645","0.0-83.0-2.0","","null","","null","delaylearn","learning","feedback_duration_window","5996f25a05a0e30001f1fd72","lZZYeKPnioRMyyjah6rS58sedp13","","","","","","","","","","","","","","","","","","7000","","",""
"html-keyboard-response","202","436149","0.0-83.0-3.0","","null","<div style='margin:auto;width: auto; font-size: 150%'><span style='font-weight: bold; font-size: 100px; color: green;'>+10 points!</span><br><br></div>","null","delaylearn","learning","feedback_image_window","5996f25a05a0e30001f1fd72","lZZYeKPnioRMyyjah6rS58sedp13","","","","","","","","","","","","","","","","","","","","",""
"html-keyboard-response","203","437688","0.0-84.0","","null","<div style=""font-size:100px;"">+</div>","null","delaylearn","learning","ITI","5996f25a05a0e30001f1fd72","lZZYeKPnioRMyyjah6rS58sedp13","","","","","","","","","","","","","","","","","","","1528","",""
"html-keyboard-response","204","439526","0.0-85.0-0.0","","1835.5","<div style=""display: flex; flex-direction: column; align-items: center; margin-top: -40px;""><img src=""images/pattern_4.png"" style=""width: 234px; height: 230px; margin-top: -50px;""><div style=""display: flex; justify-content: space-between; margin-top: 33px;""><img src=""images/choice_trial_8.png"" style=""width: 408px; height: 417px; margin-right: 200px;""><img src=""images/choice_trial_7.png"" style=""width: 408px; height: 417px;""></div></div>","j","delaylearn","learning","trial","5996f25a05a0e30001f1fd72","lZZYeKPnioRMyyjah6rS58sedp13","1","images/choice_trial_8.png","images/choice_trial_7.png","images/pattern_4.png","f","j","7000","8","7","3","1","37","1","0","7","210","","","","",""
"html-keyboard-response","205","440539","0.0-85.0-1.0","","null","<div style=""display: flex; flex-direction: column; align-items: center; margin-top: -40px;""><img src=""images/pattern_4.png"" style=""width: 234px; height: 230px; margin-top: -50px;""><div style=""display: flex; justify-content: space-between; margin-top: 33px;""><img src=""images/choice_trial_7.png"" style=""width: 408px; height: 417px; margin-left:608px;""></div></div>","null","delaylearn","learning","display_response","5996f25a05a0e30001f1fd72","lZZYeKPnioRMyyjah6rS58sedp13","","","","","","","","","","","","","","","","","chosen stimuli: images/choice_trial_7.png","","","",""
"html-keyboard-response","206","447548","0.0-85.0-2.0","","null","","null","delaylearn","learning","feedback_duration_window","5996f25a05a0e30001f1fd72","lZZYeKPnioRMyyjah6rS58sedp13","","","","","","","","","","","","","","","","","","7000","","",""
"html-keyboard-response","207","449052","0.0-85.0-3.0","","null","<div style='margin:auto;width: auto; font-size: 150%'><span style='font-weight: bold; font-size: 100px; color: red;'>0 points!</span><br><br></div>","null","delaylearn","learning","feedback_image_window","5996f25a05a0e30001f1fd72","lZZYeKPnioRMyyjah6rS58sedp13","","","","","","","","","","","","","","","","","","","","",""
"html-keyboard-response","208","451382","0.0-86.0","","null","<div style=""font-size:100px;"">+</div>","null","delaylearn","learning","ITI","5996f25a05a0e30001f1fd72","lZZYeKPnioRMyyjah6rS58sedp13","","","","","","","","","","","","","","","","","","","2321","",""
"html-keyboard-response","209","452677","0.0-87.0-0.0","","1292.5","<div style=""display: flex; flex-direction: column; align-items: center; margin-top: -40px;""><img src=""images/pattern_7.png"" style=""width: 234px; height: 230px; margin-top: -50px;""><div style=""display: flex; justify-content: space-between; margin-top: 33px;""><img src=""images/choice_trial_13.png"" style=""width: 408px; height: 417px; margin-right: 200px;""><img src=""images/choice_trial_14.png"" style=""width: 408px; height: 417px;""></div></div>","f","delaylearn","learning","trial","5996f25a05a0e30001f1fd72","lZZYeKPnioRMyyjah6rS58sedp13","1","images/choice_trial_13.png","images/choice_trial_14.png","images/pattern_7.png","f","f","750","13","14","6","0","38","1","1","13","220","","","","",""
"html-keyboard-response","210","453693","0.0-87.0-1.0","","null","<div style=""display: flex; flex-direction: column; align-items: center; margin-top: -40px;""><img src=""images/pattern_7.png"" style=""width: 234px; height: 230px; margin-top: -50px;""><div style=""display: flex; justify-content: space-between; margin-top: 33px;""><img src=""images/choice_trial_13.png"" style=""width: 408px; height: 417px; margin-right: 608px;""></div></div>","null","delaylearn","learning","display_response","5996f25a05a0e30001f1fd72","lZZYeKPnioRMyyjah6rS58sedp13","","","","","","","","","","","","","","","","","chosen stimuli: images/choice_trial_13.png","","","",""
"html-keyboard-response","211","454454","0.0-87.0-2.0","","null","","null","delaylearn","learning","feedback_duration_window","5996f25a05a0e30001f1fd72","lZZYeKPnioRMyyjah6rS58sedp13","","","","","","","","","","","","","","","","","","750","","",""
"html-keyboard-response","212","455966","0.0-87.0-3.0","","null","<div style='margin:auto;width: auto; font-size: 150%'><span style='font-weight: bold; font-size: 100px; color: green;'>+10 points!</span><br><br></div>","null","delaylearn","learning","feedback_image_window","5996f25a05a0e30001f1fd72","lZZYeKPnioRMyyjah6rS58sedp13","","","","","","","","","","","","","","","","","","","","",""
"html-keyboard-response","213","458387","0.0-88.0","","null","<div style=""font-size:100px;"">+</div>","null","delaylearn","learning","ITI","5996f25a05a0e30001f1fd72","lZZYeKPnioRMyyjah6rS58sedp13","","","","","","","","","","","","","","","","","","","2411","",""
"html-keyboard-response","214","460380","0.0-89.0-0.0","","1991.2000000476837","<div style=""display: flex; flex-direction: column; align-items: center; margin-top: -40px;""><img src=""images/pattern_1.png"" style=""width: 234px; height: 230px; margin-top: -50px;""><div style=""display: flex; justify-content: space-between; margin-top: 33px;""><img src=""images/choice_trial_1.png"" style=""width: 408px; height: 417px; margin-right: 200px;""><img src=""images/choice_trial_2.png"" style=""width: 408px; height: 417px;""></div></div>","f","delaylearn","learning","trial","5996f25a05a0e30001f1fd72","lZZYeKPnioRMyyjah6rS58sedp13","1","images/choice_trial_1.png","images/choice_trial_2.png","images/pattern_1.png","f","f","7000","1","2","1","0","39","1","1","1","230","","","","",""
"html-keyboard-response","215","461388","0.0-89.0-1.0","","null","<div style=""display: flex; flex-direction: column; align-items: center; margin-top: -40px;""><img src=""images/pattern_1.png"" style=""width: 234px; height: 230px; margin-top: -50px;""><div style=""display: flex; justify-content: space-between; margin-top: 33px;""><img src=""images/choice_trial_1.png"" style=""width: 408px; height: 417px; margin-right: 608px;""></div></div>","null","delaylearn","learning","display_response","5996f25a05a0e30001f1fd72","lZZYeKPnioRMyyjah6rS58sedp13","","","","","","","","","","","","","","","","","chosen stimuli: images/choice_trial_1.png","","","",""
"html-keyboard-response","216","468401","0.0-89.0-2.0","","null","","null","delaylearn","learning","feedback_duration_window","5996f25a05a0e30001f1fd72","lZZYeKPnioRMyyjah6rS58sedp13","","","","","","","","","","","","","","","","","","7000","","",""
"html-keyboard-response","217","469912","0.0-89.0-3.0","","null","<div style='margin:auto;width: auto; font-size: 150%'><span style='font-weight: bold; font-size: 100px; color: green;'>+10 points!</span><br><br></div>","null","delaylearn","learning","feedback_image_window","5996f25a05a0e30001f1fd72","lZZYeKPnioRMyyjah6rS58sedp13","","","","","","","","","","","","","","","","","","","","",""
"html-keyboard-response","218","470426","0.0-90.0-0.0","","null","","null","","","mood_trial_fixation","","","","","","","","","","","","","","","","","","","","","","",""
"lmdlab-html-vas-response","219","474558","0.0-90.0-1.0","","3119","How happy are you right now?","0.6352141203703704","delaylearn","learning","mood_trial","5996f25a05a0e30001f1fd72","lZZYeKPnioRMyyjah6rS58sedp13","","","","","","","","","","","","","","","","","","","","[""Very unhappy"",""Very happy""]",""
"html-keyboard-response","220","476266","0.0-91.0","","null","<div style=""font-size:100px;"">+</div>","null","delaylearn","learning","ITI","5996f25a05a0e30001f1fd72","lZZYeKPnioRMyyjah6rS58sedp13","","","","","","","","","","","","","","","","","","","1696","",""
