"trial_type","trial_index","time_elapsed","internal_node_id","participant","rt","stimulus","response","exp_name","exp_stage","test_part","subjectID","databaseID","counterbal","choice_stimuli_1","choice_stimuli_2","pattern_stimuli","rewarded_answer","correct_answer","feedback_duration_times","stim_left","stim_right","pair","leftright_counter","trial","response_correct","response_rewarded","chosen_stim","counter","displayed_choice","feedback_durations","ITI_duration","labels","rest_warning"
"pavlovia","0","476","0.0-0.0","","","","","","","","","","","","","","","","","","","","","","","","","","","","","",""
"html-keyboard-response","1","3479","0.0-1.0","","null","<div style=""font-size:100px;"">+</div>","null","delaylearn","learning","pre_fixation","59d6165050f88f000161e951","","","","","","","","","","","","","","","","","","","","","",""
"html-keyboard-response","2","4677","0.0-2.0-0.0","","1194.8000000715256","<div style=""display: flex; flex-direction: column; align-items: center; margin-top: -40px;""><img src=""images/demo_images/pattern_1.png"" style=""width: 234px; height: 230px; margin-top: -50px;""><div style=""display: flex; justify-content: space-between; margin-top: 33px;""><img src=""images/demo_images/choice_trial_2.png"" style=""width: 408px; height: 417px; margin-right: 200px;""><img src=""images/demo_images/choice_trial_1.png"" style=""width: 408px; height: 417px;""></div></div>","j","delaylearn","learning","trial","59d6165050f88f000161e951","6kIWV1LxsNQA8jNoRleif5qEORC2","5","images/demo_images/choice_trial_2.png","images/demo_images/choice_trial_1.png","images/demo_images/pattern_1.png","j","j","3000","2","1","20","1","1","1","1","1","10","","","","",""
"html-keyboard-response","3","5682","0.0-2.0-1.0","","null","<div style=""display: flex; flex-direction: column; align-items: center; margin-top: -40px;""><img src=""images/demo_images/pattern_1.png"" style=""width: 234px; height: 230px; margin-top: -50px;""><div style=""display: flex; justify-content: space-between; margin-top: 33px;""><img src=""images/demo_images/choice_trial_1.png"" style=""width: 408px; height: 417px; margin-left:608px;""></div></div>","null","delaylearn","learning","display_response","59d6165050f88f000161e951","6kIWV1LxsNQA8jNoRleif5qEORC2","","","","","","","","","","","","","","","","","chosen stimuli: images/demo_images/choice_trial_1.png","","","",""
"html-keyboard-response","4","8696","0.0-2.0-2.0","","null","","null","delaylearn","learning","feedback_duration_window","59d6165050f88f000161e951","6kIWV1LxsNQA8jNoRleif5qEORC2","","","","","","","","","","","","","","","","","","3000","","",""
"html-keyboard-response","5","10205","0.0-2.0-3.0","","null","<div style='margin:auto;width: auto; font-size: 150%'><span style='font-weight: bold; font-size: 100px; color: green;'>+10 points!</span><br><br></div>","null","delaylearn","learning","feedback_image_window","59d6165050f88f000161e951","6kIWV1LxsNQA8jNoRleif5qEORC2","","","","","","","","","","","","","","","","","","","","",""
"html-keyboard-response","6","11736","0.0-3.0","","null","<div style=""font-size:100px;"">+</div>","null","delaylearn","learning","ITI","59d6165050f88f000161e951","6kIWV1LxsNQA8jNoRleif5qEORC2","","","","","","","","","","","","","","","","","","","1527","",""
"html-keyboard-response","7","12752","0.0-4.0-0.0","","1011.5","<div style=""display: flex; flex-direction: column; align-items: center; margin-top: -40px;""><img src=""images/demo_images/pattern_1.png"" style=""width: 234px; height: 230px; margin-top: -50px;""><div style=""display: flex; justify-content: space-between; margin-top: 33px;""><img src=""images/demo_images/choice_trial_2.png"" style=""width: 408px; height: 417px; margin-right: 200px;""><img src=""images/demo_images/choice_trial_1.png"" style=""width: 408px; height: 417px;""></div></div>","j","delaylearn","learning","trial","59d6165050f88f000161e951","6kIWV1LxsNQA8jNoRleif5qEORC2","5","images/demo_images/choice_trial_2.png","images/demo_images/choice_trial_1.png","images/demo_images/pattern_1.png","j","j","3000","2","1","20","1","2","1","1","1","20","","","","",""
"html-keyboard-response","8","13756","0.0-4.0-1.0","","null","<div style=""display: flex; flex-direction: column; align-items: center; margin-top: -40px;""><img src=""images/demo_images/pattern_1.png"" style=""width: 234px; height: 230px; margin-top: -50px;""><div style=""display: flex; justify-content: space-between; margin-top: 33px;""><img src=""images/demo_images/choice_trial_1.png"" style=""width: 408px; height: 417px; margin-left:608px;""></div></div>","null","delaylearn","learning","display_response","59d6165050f88f000161e951","6kIWV1LxsNQA8jNoRleif5qEORC2","","","","","","","","","","","","","","","","","chosen stimuli: images/demo_images/choice_trial_1.png","","","",""
"html-keyboard-response","9","16764","0.0-4.0-2.0","","null","","null","delaylearn","learning","feedback_duration_window","59d6165050f88f000161e951","6kIWV1LxsNQA8jNoRleif5qEORC2","","","","","","","","","","","","","","","","","","3000","","",""
"html-keyboard-response","10","18282","0.0-4.0-3.0","","null","<div style='margin:auto;width: auto; font-size: 150%'><span style='font-weight: bold; font-size: 100px; color: green;'>+10 points!</span><br><br></div>","null","delaylearn","learning","feedback_image_window","59d6165050f88f000161e951","6kIWV1LxsNQA8jNoRleif5qEORC2","","","","","","","","","","","","","","","","","","","","",""
"html-keyboard-response","11","20583","0.0-5.0","","null","<div style=""font-size:100px;"">+</div>","null","delaylearn","learning","ITI","59d6165050f88f000161e951","6kIWV1LxsNQA8jNoRleif5qEORC2","","","","","","","","","","","","","","","","","","","2286","",""
"html-keyboard-response","12","22053","0.0-6.0-0.0","","1466.1000000238419","<div style=""display: flex; flex-direction: column; align-items: center; margin-top: -40px;""><img src=""images/demo_images/pattern_1.png"" style=""width: 234px; height: 230px; margin-top: -50px;""><div style=""display: flex; justify-content: space-between; margin-top: 33px;""><img src=""images/demo_images/choice_trial_1.png"" style=""width: 408px; height: 417px; margin-right: 200px;""><img src=""images/demo_images/choice_trial_2.png"" style=""width: 408px; height: 417px;""></div></div>","j","delaylearn","learning","trial","59d6165050f88f000161e951","6kIWV1LxsNQA8jNoRleif5qEORC2","5","images/demo_images/choice_trial_1.png","images/demo_images/choice_trial_2.png","images/demo_images/pattern_1.png","j","f","3000","1","2","20","0","3","0","1","2","30","","","","",""
"html-keyboard-response","13","23069","0.0-6.0-1.0","","null","<div style=""display: flex; flex-direction: column; align-items: center; margin-top: -40px;""><img src=""images/demo_images/pattern_1.png"" style=""width: 234px; height: 230px; margin-top: -50px;""><div style=""display: flex; justify-content: space-between; margin-top: 33px;""><img src=""images/demo_images/choice_trial_2.png"" style=""width: 408px; height: 417px; margin-left:608px;""></div></div>","null","delaylearn","learning","display_response","59d6165050f88f000161e951","6kIWV1LxsNQA8jNoRleif5qEORC2","","","","","","","","","","","","","","","","","chosen stimuli: images/demo_images/choice_trial_2.png","","","",""
"html-keyboard-response","14","26072","0.0-6.0-2.0","","null","","null","delaylearn","learning","feedback_duration_window","59d6165050f88f000161e951","6kIWV1LxsNQA8jNoRleif5qEORC2","","","","","","","","","","","","","","","","","","3000","","",""
"html-keyboard-response","15","27582","0.0-6.0-3.0","","null","<div style='margin:auto;width: auto; font-size: 150%'><span style='font-weight: bold; font-size: 100px; color: green;'>+10 points!</span><br><br></div>","null","delaylearn","learning","feedback_image_window","59d6165050f88f000161e951","6kIWV1LxsNQA8jNoRleif5qEORC2","","","","","","","","","","","","","","","","","","","","",""
"html-keyboard-response","16","29453","0.0-7.0","","null","<div style=""font-size:100px;"">+</div>","null","delaylearn","learning","ITI","59d6165050f88f000161e951","6kIWV1LxsNQA8jNoRleif5qEORC2","","","","","","","","","","","","","","","","","","","1856","",""
"html-keyboard-response","17","30910","0.0-8.0-0.0","","1451.7999999523163","<div style=""display: flex; flex-direction: column; align-items: center; margin-top: -40px;""><img src=""images/demo_images/pattern_1.png"" style=""width: 234px; height: 230px; margin-top: -50px;""><div style=""display: flex; justify-content: space-between; margin-top: 33px;""><img src=""images/demo_images/choice_trial_1.png"" style=""width: 408px; height: 417px; margin-right: 200px;""><img src=""images/demo_images/choice_trial_2.png"" style=""width: 408px; height: 417px;""></div></div>","j","delaylearn","learning","trial","59d6165050f88f000161e951","6kIWV1LxsNQA8jNoRleif5qEORC2","5","images/demo_images/choice_trial_1.png","images/demo_images/choice_trial_2.png","images/demo_images/pattern_1.png","f","f","3000","1","2","20","0","4","0","0","2","30","","","","",""
"html-keyboard-response","18","31929","0.0-8.0-1.0","","null","<div style=""display: flex; flex-direction: column; align-items: center; margin-top: -40px;""><img src=""images/demo_images/pattern_1.png"" style=""width: 234px; height: 230px; margin-top: -50px;""><div style=""display: flex; justify-content: space-between; margin-top: 33px;""><img src=""images/demo_images/choice_trial_2.png"" style=""width: 408px; height: 417px; margin-left:608px;""></div></div>","null","delaylearn","learning","display_response","59d6165050f88f000161e951","6kIWV1LxsNQA8jNoRleif5qEORC2","","","","","","","","","","","","","","","","","chosen stimuli: images/demo_images/choice_trial_2.png","","","",""
"html-keyboard-response","19","34945","0.0-8.0-2.0","","null","","null","delaylearn","learning","feedback_duration_window","59d6165050f88f000161e951","6kIWV1LxsNQA8jNoRleif5qEORC2","","","","","","","","","","","","","","","","","","3000","","",""
"html-keyboard-response","20","36451","0.0-8.0-3.0","","null","<div style='margin:auto;width: auto; font-size: 150%'><span style='font-weight: bold; font-size: 100px; color: red;'>0 points!</span><br><br></div>","null","delaylearn","learning","feedback_image_window","59d6165050f88f000161e951","6kIWV1LxsNQA8jNoRleif5qEORC2","","","","","","","","","","","","","","","","","","","","",""
"html-keyboard-response","21","36960","0.0-9.0-0.0","","null","","null","","","mood_trial_fixation","","","","","","","","","","","","","","","","","","","","","","",""
"lmdlab-html-vas-response","22","41969","0.0-9.0-1.0","","3979","How happy are you right now?","0.7160734498731143","delaylearn","learning","mood_trial","59d6165050f88f000161e951","6kIWV1LxsNQA8jNoRleif5qEORC2","","","","","","","","","","","","","","","","","","","","[""Very unhappy"",""Very happy""]",""
"html-keyboard-response","23","43974","0.0-10.0","","null","<div style=""font-size:100px;"">+</div>","null","delaylearn","learning","ITI","59d6165050f88f000161e951","6kIWV1LxsNQA8jNoRleif5qEORC2","","","","","","","","","","","","","","","","","","","2002","",""
"html-keyboard-response","24","45624","0.0-11.0-0.0","","1645.2000000476837","<div style=""display: flex; flex-direction: column; align-items: center; margin-top: -40px;""><img src=""images/demo_images/pattern_1.png"" style=""width: 234px; height: 230px; margin-top: -50px;""><div style=""display: flex; justify-content: space-between; margin-top: 33px;""><img src=""images/demo_images/choice_trial_2.png"" style=""width: 408px; height: 417px; margin-right: 200px;""><img src=""images/demo_images/choice_trial_1.png"" style=""width: 408px; height: 417px;""></div></div>","j","delaylearn","learning","trial","59d6165050f88f000161e951","6kIWV1LxsNQA8jNoRleif5qEORC2","5","images/demo_images/choice_trial_2.png","images/demo_images/choice_trial_1.png","images/demo_images/pattern_1.png","j","j","3000","2","1","20","1","5","1","1","1","40","","","","",""
"html-keyboard-response","25","46631","0.0-11.0-1.0","","null","<div style=""display: flex; flex-direction: column; align-items: center; margin-top: -40px;""><img src=""images/demo_images/pattern_1.png"" style=""width: 234px; height: 230px; margin-top: -50px;""><div style=""display: flex; justify-content: space-between; margin-top: 33px;""><img src=""images/demo_images/choice_trial_1.png"" style=""width: 408px; height: 417px; margin-left:608px;""></div></div>","null","delaylearn","learning","display_response","59d6165050f88f000161e951","6kIWV1LxsNQA8jNoRleif5qEORC2","","","","","","","","","","","","","","","","","chosen stimuli: images/demo_images/choice_trial_1.png","","","",""
"html-keyboard-response","26","49640","0.0-11.0-2.0","","null","","null","delaylearn","learning","feedback_duration_window","59d6165050f88f000161e951","6kIWV1LxsNQA8jNoRleif5qEORC2","","","","","","","","","","","","","","","","","","3000","","",""
"html-keyboard-response","27","51145","0.0-11.0-3.0","","null","<div style='margin:auto;width: auto; font-size: 150%'><span style='font-weight: bold; font-size: 100px; color: green;'>+10 points!</span><br><br></div>","null","delaylearn","learning","feedback_image_window","59d6165050f88f000161e951","6kIWV1LxsNQA8jNoRleif5qEORC2","","","","","","","","","","","","","","","","","","","","",""
"html-keyboard-response","28","53426","0.0-12.0","","null","<div style=""font-size:100px;"">+</div>","null","delaylearn","learning","ITI","59d6165050f88f000161e951","6kIWV1LxsNQA8jNoRleif5qEORC2","","","","","","","","","","","","","","","","","","","2273","",""
"html-keyboard-response","29","54407","0.0-13.0-0.0","","977.0999999046326","<div style=""display: flex; flex-direction: column; align-items: center; margin-top: -40px;""><img src=""images/demo_images/pattern_1.png"" style=""width: 234px; height: 230px; margin-top: -50px;""><div style=""display: flex; justify-content: space-between; margin-top: 33px;""><img src=""images/demo_images/choice_trial_1.png"" style=""width: 408px; height: 417px; margin-right: 200px;""><img src=""images/demo_images/choice_trial_2.png"" style=""width: 408px; height: 417px;""></div></div>","f","delaylearn","learning","trial","59d6165050f88f000161e951","6kIWV1LxsNQA8jNoRleif5qEORC2","5","images/demo_images/choice_trial_1.png","images/demo_images/choice_trial_2.png","images/demo_images/pattern_1.png","f","f","3000","1","2","20","0","6","1","1","1","50","","","","",""
"html-keyboard-response","30","55412","0.0-13.0-1.0","","null","<div style=""display: flex; flex-direction: column; align-items: center; margin-top: -40px;""><img src=""images/demo_images/pattern_1.png"" style=""width: 234px; height: 230px; margin-top: -50px;""><div style=""display: flex; justify-content: space-between; margin-top: 33px;""><img src=""images/demo_images/choice_trial_1.png"" style=""width: 408px; height: 417px; margin-right: 608px;""></div></div>","null","delaylearn","learning","display_response","59d6165050f88f000161e951","6kIWV1LxsNQA8jNoRleif5qEORC2","","","","","","","","","","","","","","","","","chosen stimuli: images/demo_images/choice_trial_1.png","","","",""
"html-keyboard-response","31","58426","0.0-13.0-2.0","","null","","null","delaylearn","learning","feedback_duration_window","59d6165050f88f000161e951","6kIWV1LxsNQA8jNoRleif5qEORC2","","","","","","","","","","","","","","","","","","3000","","",""
"html-keyboard-response","32","59935","0.0-13.0-3.0","","null","<div style='margin:auto;width: auto; font-size: 150%'><span style='font-weight: bold; font-size: 100px; color: green;'>+10 points!</span><br><br></div>","null","delaylearn","learning","feedback_image_window","59d6165050f88f000161e951","6kIWV1LxsNQA8jNoRleif5qEORC2","","","","","","","","","","","","","","","","","","","","",""
"html-keyboard-response","33","62168","0.0-14.0","","null","<div style=""font-size:100px;"">+</div>","null","delaylearn","learning","ITI","59d6165050f88f000161e951","6kIWV1LxsNQA8jNoRleif5qEORC2","","","","","","","","","","","","","","","","","","","2227","",""
"html-keyboard-response","34","62919","0.0-15.0-0.0","","748.1000000238419","<div style=""display: flex; flex-direction: column; align-items: center; margin-top: -40px;""><img src=""images/demo_images/pattern_1.png"" style=""width: 234px; height: 230px; margin-top: -50px;""><div style=""display: flex; justify-content: space-between; margin-top: 33px;""><img src=""images/demo_images/choice_trial_2.png"" style=""width: 408px; height: 417px; margin-right: 200px;""><img src=""images/demo_images/choice_trial_1.png"" style=""width: 408px; height: 417px;""></div></div>","j","delaylearn","learning","trial","59d6165050f88f000161e951","6kIWV1LxsNQA8jNoRleif5qEORC2","5","images/demo_images/choice_trial_2.png","images/demo_images/choice_trial_1.png","images/demo_images/pattern_1.png","j","j","3000","2","1","20","1","7","1","1","1","60","","","","",""
"html-keyboard-response","35","63924","0.0-15.0-1.0","","null","<div style=""display: flex; flex-direction: column; align-items: center; margin-top: -40px;""><img src=""images/demo_images/pattern_1.png"" style=""width: 234px; height: 230px; margin-top: -50px;""><div style=""display: flex; justify-content: space-between; margin-top: 33px;""><img src=""images/demo_images/choice_trial_1.png"" style=""width: 408px; height: 417px; margin-left:608px;""></div></div>","null","delaylearn","learning","display_response","59d6165050f88f000161e951","6kIWV1LxsNQA8jNoRleif5qEORC2","","","","","","","","","","","","","","","","","chosen stimuli: images/demo_images/choice_trial_1.png","","","",""
"html-keyboard-response","36","66935","0.0-15.0-2.0","","null","","null","delaylearn","learning","feedback_duration_window","59d6165050f88f000161e951","6kIWV1LxsNQA8jNoRleif5qEORC2","","","","","","","","","","","","","","","","","","3000","","",""
"html-keyboard-response","37","68440","0.0-15.0-3.0","","null","<div style='margin:auto;width: auto; font-size: 150%'><span style='font-weight: bold; font-size: 100px; color: green;'>+10 points!</span><br><br></div>","null","delaylearn","learning","feedback_image_window","59d6165050f88f000161e951","6kIWV1LxsNQA8jNoRleif5qEORC2","","","","","","","","","","","","","","","","","","","","",""
"html-keyboard-response","38","70254","0.0-16.0","","null","<div style=""font-size:100px;"">+</div>","null","delaylearn","learning","ITI","59d6165050f88f000161e951","6kIWV1LxsNQA8jNoRleif5qEORC2","","","","","","","","","","","","","","","","","","","1804","",""
"html-keyboard-response","39","71396","0.0-17.0-0.0","","1138.4000000953674","<div style=""display: flex; flex-direction: column; align-items: center; margin-top: -40px;""><img src=""images/demo_images/pattern_1.png"" style=""width: 234px; height: 230px; margin-top: -50px;""><div style=""display: flex; justify-content: space-between; margin-top: 33px;""><img src=""images/demo_images/choice_trial_1.png"" style=""width: 408px; height: 417px; margin-right: 200px;""><img src=""images/demo_images/choice_trial_2.png"" style=""width: 408px; height: 417px;""></div></div>","f","delaylearn","learning","trial","59d6165050f88f000161e951","6kIWV1LxsNQA8jNoRleif5qEORC2","5","images/demo_images/choice_trial_1.png","images/demo_images/choice_trial_2.png","images/demo_images/pattern_1.png","f","f","3000","1","2","20","0","8","1","1","1","70","","","","",""
"html-keyboard-response","40","72401","0.0-17.0-1.0","","null","<div style=""display: flex; flex-direction: column; align-items: center; margin-top: -40px;""><img src=""images/demo_images/pattern_1.png"" style=""width: 234px; height: 230px; margin-top: -50px;""><div style=""display: flex; justify-content: space-between; margin-top: 33px;""><img src=""images/demo_images/choice_trial_1.png"" style=""width: 408px; height: 417px; margin-right: 608px;""></div></div>","null","delaylearn","learning","display_response","59d6165050f88f000161e951","6kIWV1LxsNQA8jNoRleif5qEORC2","","","","","","","","","","","","","","","","","chosen stimuli: images/demo_images/choice_trial_1.png","","","",""
"html-keyboard-response","41","75410","0.0-17.0-2.0","","null","","null","delaylearn","learning","feedback_duration_window","59d6165050f88f000161e951","6kIWV1LxsNQA8jNoRleif5qEORC2","","","","","","","","","","","","","","","","","","3000","","",""
"html-keyboard-response","42","76915","0.0-17.0-3.0","","null","<div style='margin:auto;width: auto; font-size: 150%'><span style='font-weight: bold; font-size: 100px; color: green;'>+10 points!</span><br><br></div>","null","delaylearn","learning","feedback_image_window","59d6165050f88f000161e951","6kIWV1LxsNQA8jNoRleif5qEORC2","","","","","","","","","","","","","","","","","","","","",""
"html-button-response","43","79104","0.0-18.0","","2187","
  <div style=""display: flex; align-items: center; justify-content: center; height: 80vh;"">
  <div>
          <img src=""images/inst_demo_finish.png"" style=""width: 80vw; height:auto;"">
          <br><br>
      </div>
      <br><br>
  </div>","0","","","","","","","","","","","","","","","","","","","","","","","","","",""
"html-keyboard-response","44","80788","0.0-19.0","","1683.5","
  <div style=""display: flex; align-items: center; justify-content: center; height: 80vh;"">
  <div>
          <img src=""images/inst_6.png"" style=""width: 80vw; height:auto;"">
          <br><br>
      </div>
      <br><br>
  </div>","f","","","","","","","","","","","","","","","","","","","","","","","","","",""
"html-keyboard-response","45","83793","0.0-20.0","","null","<div style=""font-size:100px;"">+</div>","null","delaylearn","learning","pre_fixation","59d6165050f88f000161e951","","","","","","","","","","","","","","","","","","","","","",""
"html-keyboard-response","46","85513","0.0-21.0","","null","<div style=""font-size:100px;"">+</div>","null","delaylearn","learning","ITI","59d6165050f88f000161e951","6kIWV1LxsNQA8jNoRleif5qEORC2","","","","","","","","","","","","","","","","","","","1712","",""
"html-keyboard-response","47","87118","0.0-22.0-0.0","","1601.0999999046326","<div style=""display: flex; flex-direction: column; align-items: center; margin-top: -40px;""><img src=""images/pattern_3.png"" style=""width: 234px; height: 230px; margin-top: -50px;""><div style=""display: flex; justify-content: space-between; margin-top: 33px;""><img src=""images/choice_trial_16.png"" style=""width: 408px; height: 417px; margin-right: 200px;""><img src=""images/choice_trial_2.png"" style=""width: 408px; height: 417px;""></div></div>","j","delaylearn","learning","trial","59d6165050f88f000161e951","6kIWV1LxsNQA8jNoRleif5qEORC2","5","images/choice_trial_16.png","images/choice_trial_2.png","images/pattern_3.png","f","f","7000","16","2","2","0","9","0","0","2","70","","","","",""
"html-keyboard-response","48","88126","0.0-22.0-1.0","","null","<div style=""display: flex; flex-direction: column; align-items: center; margin-top: -40px;""><img src=""images/pattern_3.png"" style=""width: 234px; height: 230px; margin-top: -50px;""><div style=""display: flex; justify-content: space-between; margin-top: 33px;""><img src=""images/choice_trial_2.png"" style=""width: 408px; height: 417px; margin-left:608px;""></div></div>","null","delaylearn","learning","display_response","59d6165050f88f000161e951","6kIWV1LxsNQA8jNoRleif5qEORC2","","","","","","","","","","","","","","","","","chosen stimuli: images/choice_trial_2.png","","","",""
"html-keyboard-response","49","95129","0.0-22.0-2.0","","null","","null","delaylearn","learning","feedback_duration_window","59d6165050f88f000161e951","6kIWV1LxsNQA8jNoRleif5qEORC2","","","","","","","","","","","","","","","","","","7000","","",""
"html-keyboard-response","50","96635","0.0-22.0-3.0","","null","<div style='margin:auto;width: auto; font-size: 150%'><span style='font-weight: bold; font-size: 100px; color: red;'>0 points!</span><br><br></div>","null","delaylearn","learning","feedback_image_window","59d6165050f88f000161e951","6kIWV1LxsNQA8jNoRleif5qEORC2","","","","","","","","","","","","","","","","","","","","",""
"html-keyboard-response","51","98229","0.0-23.0","","null","<div style=""font-size:100px;"">+</div>","null","delaylearn","learning","ITI","59d6165050f88f000161e951","6kIWV1LxsNQA8jNoRleif5qEORC2","","","","","","","","","","","","","","","","","","","1586","",""
"html-keyboard-response","52","99837","0.0-24.0-0.0","","1604.8999999761581","<div style=""display: flex; flex-direction: column; align-items: center; margin-top: -40px;""><img src=""images/pattern_7.png"" style=""width: 234px; height: 230px; margin-top: -50px;""><div style=""display: flex; justify-content: space-between; margin-top: 33px;""><img src=""images/choice_trial_10.png"" style=""width: 408px; height: 417px; margin-right: 200px;""><img src=""images/choice_trial_8.png"" style=""width: 408px; height: 417px;""></div></div>","f","delaylearn","learning","trial","59d6165050f88f000161e951","6kIWV1LxsNQA8jNoRleif5qEORC2","5","images/choice_trial_10.png","images/choice_trial_8.png","images/pattern_7.png","j","j","750","10","8","6","1","10","0","0","10","70","","","","",""
"html-keyboard-response","53","100842","0.0-24.0-1.0","","null","<div style=""display: flex; flex-direction: column; align-items: center; margin-top: -40px;""><img src=""images/pattern_7.png"" style=""width: 234px; height: 230px; margin-top: -50px;""><div style=""display: flex; justify-content: space-between; margin-top: 33px;""><img src=""images/choice_trial_10.png"" style=""width: 408px; height: 417px; margin-right: 608px;""></div></div>","null","delaylearn","learning","display_response","59d6165050f88f000161e951","6kIWV1LxsNQA8jNoRleif5qEORC2","","","","","","","","","","","","","","","","","chosen stimuli: images/choice_trial_10.png","","","",""
"html-keyboard-response","54","101602","0.0-24.0-2.0","","null","","null","delaylearn","learning","feedback_duration_window","59d6165050f88f000161e951","6kIWV1LxsNQA8jNoRleif5qEORC2","","","","","","","","","","","","","","","","","","750","","",""
"html-keyboard-response","55","103113","0.0-24.0-3.0","","null","<div style='margin:auto;width: auto; font-size: 150%'><span style='font-weight: bold; font-size: 100px; color: red;'>0 points!</span><br><br></div>","null","delaylearn","learning","feedback_image_window","59d6165050f88f000161e951","6kIWV1LxsNQA8jNoRleif5qEORC2","","","","","","","","","","","","","","","","","","","","",""
"html-keyboard-response","56","105501","0.0-25.0","","null","<div style=""font-size:100px;"">+</div>","null","delaylearn","learning","ITI","59d6165050f88f000161e951","6kIWV1LxsNQA8jNoRleif5qEORC2","","","","","","","","","","","","","","","","","","","2379","",""
"html-keyboard-response","57","106678","0.0-26.0-0.0","","1173.7000000476837","<div style=""display: flex; flex-direction: column; align-items: center; margin-top: -40px;""><img src=""images/pattern_4.png"" style=""width: 234px; height: 230px; margin-top: -50px;""><div style=""display: flex; justify-content: space-between; margin-top: 33px;""><img src=""images/choice_trial_11.png"" style=""width: 408px; height: 417px; margin-right: 200px;""><img src=""images/choice_trial_4.png"" style=""width: 408px; height: 417px;""></div></div>","j","delaylearn","learning","trial","59d6165050f88f000161e951","6kIWV1LxsNQA8jNoRleif5qEORC2","5","images/choice_trial_11.png","images/choice_trial_4.png","images/pattern_4.png","f","f","7000","11","4","3","0","11","0","0","4","70","","","","",""
"html-keyboard-response","58","107687","0.0-26.0-1.0","","null","<div style=""display: flex; flex-direction: column; align-items: center; margin-top: -40px;""><img src=""images/pattern_4.png"" style=""width: 234px; height: 230px; margin-top: -50px;""><div style=""display: flex; justify-content: space-between; margin-top: 33px;""><img src=""images/choice_trial_4.png"" style=""width: 408px; height: 417px; margin-left:608px;""></div></div>","null","delaylearn","learning","display_response","59d6165050f88f000161e951","6kIWV1LxsNQA8jNoRleif5qEORC2","","","","","","","","","","","","","","","","","chosen stimuli: images/choice_trial_4.png","","","",""
"html-keyboard-response","59","114696","0.0-26.0-2.0","","null","","null","delaylearn","learning","feedback_duration_window","59d6165050f88f000161e951","6kIWV1LxsNQA8jNoRleif5qEORC2","","","","","","","","","","","","","","","","","","7000","","",""
"html-keyboard-response","60","116211","0.0-26.0-3.0","","null","<div style='margin:auto;width: auto; font-size: 150%'><span style='font-weight: bold; font-size: 100px; color: red;'>0 points!</span><br><br></div>","null","delaylearn","learning","feedback_image_window","59d6165050f88f000161e951","6kIWV1LxsNQA8jNoRleif5qEORC2","","","","","","","","","","","","","","","","","","","","",""
"html-keyboard-response","61","118638","0.0-27.0","","null","<div style=""font-size:100px;"">+</div>","null","delaylearn","learning","ITI","59d6165050f88f000161e951","6kIWV1LxsNQA8jNoRleif5qEORC2","","","","","","","","","","","","","","","","","","","2418","",""
"html-keyboard-response","62","119712","0.0-28.0-0.0","","1070.3999999761581","<div style=""display: flex; flex-direction: column; align-items: center; margin-top: -40px;""><img src=""images/pattern_5.png"" style=""width: 234px; height: 230px; margin-top: -50px;""><div style=""display: flex; justify-content: space-between; margin-top: 33px;""><img src=""images/choice_trial_13.png"" style=""width: 408px; height: 417px; margin-right: 200px;""><img src=""images/choice_trial_7.png"" style=""width: 408px; height: 417px;""></div></div>","f","delaylearn","learning","trial","59d6165050f88f000161e951","6kIWV1LxsNQA8jNoRleif5qEORC2","5","images/choice_trial_13.png","images/choice_trial_7.png","images/pattern_5.png","j","j","750","13","7","4","1","12","0","0","13","70","","","","",""
"html-keyboard-response","63","120718","0.0-28.0-1.0","","null","<div style=""display: flex; flex-direction: column; align-items: center; margin-top: -40px;""><img src=""images/pattern_5.png"" style=""width: 234px; height: 230px; margin-top: -50px;""><div style=""display: flex; justify-content: space-between; margin-top: 33px;""><img src=""images/choice_trial_13.png"" style=""width: 408px; height: 417px; margin-right: 608px;""></div></div>","null","delaylearn","learning","display_response","59d6165050f88f000161e951","6kIWV1LxsNQA8jNoRleif5qEORC2","","","","","","","","","","","","","","","","","chosen stimuli: images/choice_trial_13.png","","","",""
"html-keyboard-response","64","121476","0.0-28.0-2.0","","null","","null","delaylearn","learning","feedback_duration_window","59d6165050f88f000161e951","6kIWV1LxsNQA8jNoRleif5qEORC2","","","","","","","","","","","","","","","","","","750","","",""
"html-keyboard-response","65","122986","0.0-28.0-3.0","","null","<div style='margin:auto;width: auto; font-size: 150%'><span style='font-weight: bold; font-size: 100px; color: red;'>0 points!</span><br><br></div>","null","delaylearn","learning","feedback_image_window","59d6165050f88f000161e951","6kIWV1LxsNQA8jNoRleif5qEORC2","","","","","","","","","","","","","","","","","","","","",""
"html-keyboard-response","66","124664","0.0-29.0","","null","<div style=""font-size:100px;"">+</div>","null","delaylearn","learning","ITI","59d6165050f88f000161e951","6kIWV1LxsNQA8jNoRleif5qEORC2","","","","","","","","","","","","","","","","","","","1673","",""
"html-keyboard-response","67","125537","0.0-30.0-0.0","","870","<div style=""display: flex; flex-direction: column; align-items: center; margin-top: -40px;""><img src=""images/pattern_6.png"" style=""width: 234px; height: 230px; margin-top: -50px;""><div style=""display: flex; justify-content: space-between; margin-top: 33px;""><img src=""images/choice_trial_14.png"" style=""width: 408px; height: 417px; margin-right: 200px;""><img src=""images/choice_trial_9.png"" style=""width: 408px; height: 417px;""></div></div>","j","delaylearn","learning","trial","59d6165050f88f000161e951","6kIWV1LxsNQA8jNoRleif5qEORC2","5","images/choice_trial_14.png","images/choice_trial_9.png","images/pattern_6.png","j","f","750","14","9","5","0","13","0","1","9","80","","","","",""
"html-keyboard-response","68","126550","0.0-30.0-1.0","","null","<div style=""display: flex; flex-direction: column; align-items: center; margin-top: -40px;""><img src=""images/pattern_6.png"" style=""width: 234px; height: 230px; margin-top: -50px;""><div style=""display: flex; justify-content: space-between; margin-top: 33px;""><img src=""images/choice_trial_9.png"" style=""width: 408px; height: 417px; margin-left:608px;""></div></div>","null","delaylearn","learning","display_response","59d6165050f88f000161e951","6kIWV1LxsNQA8jNoRleif5qEORC2","","","","","","","","","","","","","","","","","chosen stimuli: images/choice_trial_9.png","","","",""
"html-keyboard-response","69","127304","0.0-30.0-2.0","","null","","null","delaylearn","learning","feedback_duration_window","59d6165050f88f000161e951","6kIWV1LxsNQA8jNoRleif5qEORC2","","","","","","","","","","","","","","","","","","750","","",""
"html-keyboard-response","70","128807","0.0-30.0-3.0","","null","<div style='margin:auto;width: auto; font-size: 150%'><span style='font-weight: bold; font-size: 100px; color: green;'>+10 points!</span><br><br></div>","null","delaylearn","learning","feedback_image_window","59d6165050f88f000161e951","6kIWV1LxsNQA8jNoRleif5qEORC2","","","","","","","","","","","","","","","","","","","","",""
"html-keyboard-response","71","129310","0.0-31.0-0.0","","null","","null","","","mood_trial_fixation","","","","","","","","","","","","","","","","","","","","","","",""
"lmdlab-html-vas-response","72","133297","0.0-31.0-1.0","","2966","How happy are you right now?","0.3842833420419885","delaylearn","learning","mood_trial","59d6165050f88f000161e951","6kIWV1LxsNQA8jNoRleif5qEORC2","","","","","","","","","","","","","","","","","","","","[""Very unhappy"",""Very happy""]",""
"html-keyboard-response","73","135683","0.0-32.0","","null","<div style=""font-size:100px;"">+</div>","null","delaylearn","learning","ITI","59d6165050f88f000161e951","6kIWV1LxsNQA8jNoRleif5qEORC2","","","","","","","","","","","","","","","","","","","2376","",""
"html-keyboard-response","74","136988","0.0-33.0-0.0","","1302.3000000715256","<div style=""display: flex; flex-direction: column; align-items: center; margin-top: -40px;""><img src=""images/pattern_1.png"" style=""width: 234px; height: 230px; margin-top: -50px;""><div style=""display: flex; justify-content: space-between; margin-top: 33px;""><img src=""images/choice_trial_15.png"" style=""width: 408px; height: 417px; margin-right: 200px;""><img src=""images/choice_trial_6.png"" style=""width: 408px; height: 417px;""></div></div>","j","delaylearn","learning","trial","59d6165050f88f000161e951","6kIWV1LxsNQA8jNoRleif5qEORC2","5","images/choice_trial_15.png","images/choice_trial_6.png","images/pattern_1.png","j","j","7000","15","6","1","1","14","1","1","6","90","","","","",""
"html-keyboard-response","75","137997","0.0-33.0-1.0","","null","<div style=""display: flex; flex-direction: column; align-items: center; margin-top: -40px;""><img src=""images/pattern_1.png"" style=""width: 234px; height: 230px; margin-top: -50px;""><div style=""display: flex; justify-content: space-between; margin-top: 33px;""><img src=""images/choice_trial_6.png"" style=""width: 408px; height: 417px; margin-left:608px;""></div></div>","null","delaylearn","learning","display_response","59d6165050f88f000161e951","6kIWV1LxsNQA8jNoRleif5qEORC2","","","","","","","","","","","","","","","","","chosen stimuli: images/choice_trial_6.png","","","",""
"html-keyboard-response","76","145005","0.0-33.0-2.0","","null","","null","delaylearn","learning","feedback_duration_window","59d6165050f88f000161e951","6kIWV1LxsNQA8jNoRleif5qEORC2","","","","","","","","","","","","","","","","","","7000","","",""
"html-keyboard-response","77","146513","0.0-33.0-3.0","","null","<div style='margin:auto;width: auto; font-size: 150%'><span style='font-weight: bold; font-size: 100px; color: green;'>+10 points!</span><br><br></div>","null","delaylearn","learning","feedback_image_window","59d6165050f88f000161e951","6kIWV1LxsNQA8jNoRleif5qEORC2","","","","","","","","","","","","","","","","","","","","",""
"html-keyboard-response","78","148503","0.0-34.0","","null","<div style=""font-size:100px;"">+</div>","null","delaylearn","learning","ITI","59d6165050f88f000161e951","6kIWV1LxsNQA8jNoRleif5qEORC2","","","","","","","","","","","","","","","","","","","1980","",""
"html-keyboard-response","79","150376","0.0-35.0-0.0","","1869.7999999523163","<div style=""display: flex; flex-direction: column; align-items: center; margin-top: -40px;""><img src=""images/pattern_3.png"" style=""width: 234px; height: 230px; margin-top: -50px;""><div style=""display: flex; justify-content: space-between; margin-top: 33px;""><img src=""images/choice_trial_2.png"" style=""width: 408px; height: 417px; margin-right: 200px;""><img src=""images/choice_trial_16.png"" style=""width: 408px; height: 417px;""></div></div>","j","delaylearn","learning","trial","59d6165050f88f000161e951","6kIWV1LxsNQA8jNoRleif5qEORC2","5","images/choice_trial_2.png","images/choice_trial_16.png","images/pattern_3.png","f","j","7000","2","16","2","1","15","1","0","16","90","","","","",""
"html-keyboard-response","80","151380","0.0-35.0-1.0","","null","<div style=""display: flex; flex-direction: column; align-items: center; margin-top: -40px;""><img src=""images/pattern_3.png"" style=""width: 234px; height: 230px; margin-top: -50px;""><div style=""display: flex; justify-content: space-between; margin-top: 33px;""><img src=""images/choice_trial_16.png"" style=""width: 408px; height: 417px; margin-left:608px;""></div></div>","null","delaylearn","learning","display_response","59d6165050f88f000161e951","6kIWV1LxsNQA8jNoRleif5qEORC2","","","","","","","","","","","","","","","","","chosen stimuli: images/choice_trial_16.png","","","",""
"html-keyboard-response","81","158383","0.0-35.0-2.0","","null","","null","delaylearn","learning","feedback_duration_window","59d6165050f88f000161e951","6kIWV1LxsNQA8jNoRleif5qEORC2","","","","","","","","","","","","","","","","","","7000","","",""
"html-keyboard-response","82","159891","0.0-35.0-3.0","","null","<div style='margin:auto;width: auto; font-size: 150%'><span style='font-weight: bold; font-size: 100px; color: red;'>0 points!</span><br><br></div>","null","delaylearn","learning","feedback_image_window","59d6165050f88f000161e951","6kIWV1LxsNQA8jNoRleif5qEORC2","","","","","","","","","","","","","","","","","","","","",""
"html-keyboard-response","83","162388","0.0-36.0","","null","<div style=""font-size:100px;"">+</div>","null","delaylearn","learning","ITI","59d6165050f88f000161e951","6kIWV1LxsNQA8jNoRleif5qEORC2","","","","","","","","","","","","","","","","","","","2490","",""
"html-keyboard-response","84","164025","0.0-37.0-0.0","","1633.0999999046326","<div style=""display: flex; flex-direction: column; align-items: center; margin-top: -40px;""><img src=""images/pattern_5.png"" style=""width: 234px; height: 230px; margin-top: -50px;""><div style=""display: flex; justify-content: space-between; margin-top: 33px;""><img src=""images/choice_trial_7.png"" style=""width: 408px; height: 417px; margin-right: 200px;""><img src=""images/choice_trial_13.png"" style=""width: 408px; height: 417px;""></div></div>","f","delaylearn","learning","trial","59d6165050f88f000161e951","6kIWV1LxsNQA8jNoRleif5qEORC2","5","images/choice_trial_7.png","images/choice_trial_13.png","images/pattern_5.png","f","f","750","7","13","4","0","16","1","1","7","100","","","","",""
"html-keyboard-response","85","165036","0.0-37.0-1.0","","null","<div style=""display: flex; flex-direction: column; align-items: center; margin-top: -40px;""><img src=""images/pattern_5.png"" style=""width: 234px; height: 230px; margin-top: -50px;""><div style=""display: flex; justify-content: space-between; margin-top: 33px;""><img src=""images/choice_trial_7.png"" style=""width: 408px; height: 417px; margin-right: 608px;""></div></div>","null","delaylearn","learning","display_response","59d6165050f88f000161e951","6kIWV1LxsNQA8jNoRleif5qEORC2","","","","","","","","","","","","","","","","","chosen stimuli: images/choice_trial_7.png","","","",""
"html-keyboard-response","86","165790","0.0-37.0-2.0","","null","","null","delaylearn","learning","feedback_duration_window","59d6165050f88f000161e951","6kIWV1LxsNQA8jNoRleif5qEORC2","","","","","","","","","","","","","","","","","","750","","",""
"html-keyboard-response","87","167302","0.0-37.0-3.0","","null","<div style='margin:auto;width: auto; font-size: 150%'><span style='font-weight: bold; font-size: 100px; color: green;'>+10 points!</span><br><br></div>","null","delaylearn","learning","feedback_image_window","59d6165050f88f000161e951","6kIWV1LxsNQA8jNoRleif5qEORC2","","","","","","","","","","","","","","","","","","","","",""
"html-keyboard-response","88","167815","0.0-38.0-0.0","","null","","null","","","mood_trial_fixation","","","","","","","","","","","","","","","","","","","","","","",""
"lmdlab-html-vas-response","89","171920","0.0-38.0-1.0","","3097","How happy are you right now?","0.6273388861508364","delaylearn","learning","mood_trial","59d6165050f88f000161e951","6kIWV1LxsNQA8jNoRleif5qEORC2","","","","","","","","","","","","","","","","","","","","[""Very unhappy"",""Very happy""]",""
"html-keyboard-response","90","173976","0.0-39.0","","null","<div style=""font-size:100px;"">+</div>","null","delaylearn","learning","ITI","59d6165050f88f000161e951","6kIWV1LxsNQA8jNoRleif5qEORC2","","","","","","","","","","","","","","","","","","","2050","",""
"html-keyboard-response","91","175815","0.0-40.0-0.0","","1836.1000000238419","<div style=""display: flex; flex-direction: column; align-items: center; margin-top: -40px;""><img src=""images/pattern_6.png"" style=""width: 234px; height: 230px; margin-top: -50px;""><div style=""display: flex; justify-content: space-between; margin-top: 33px;""><img src=""images/choice_trial_14.png"" style=""width: 408px; height: 417px; margin-right: 200px;""><img src=""images/choice_trial_9.png"" style=""width: 408px; height: 417px;""></div></div>","f","delaylearn","learning","trial","59d6165050f88f000161e951","6kIWV1LxsNQA8jNoRleif5qEORC2","5","images/choice_trial_14.png","images/choice_trial_9.png","images/pattern_6.png","f","f","750","14","9","5","0","17","1","1","14","110","","","","",""
"html-keyboard-response","92","176823","0.0-40.0-1.0","","null","<div style=""display: flex; flex-direction: column; align-items: center; margin-top: -40px;""><img src=""images/pattern_6.png"" style=""width: 234px; height: 230px; margin-top: -50px;""><div style=""display: flex; justify-content: space-between; margin-top: 33px;""><img src=""images/choice_trial_14.png"" style=""width: 408px; height: 417px; margin-right: 608px;""></div></div>","null","delaylearn","learning","display_response","59d6165050f88f000161e951","6kIWV1LxsNQA8jNoRleif5qEORC2","","","","","","","","","","","","","","","","","chosen stimuli: images/choice_trial_14.png","","","",""
"html-keyboard-response","93","177578","0.0-40.0-2.0","","null","","null","delaylearn","learning","feedback_duration_window","59d6165050f88f000161e951","6kIWV1LxsNQA8jNoRleif5qEORC2","","","","","","","","","","","","","","","","","","750","","",""
"html-keyboard-response","94","179092","0.0-40.0-3.0","","null","<div style='margin:auto;width: auto; font-size: 150%'><span style='font-weight: bold; font-size: 100px; color: green;'>+10 points!</span><br><br></div>","null","delaylearn","learning","feedback_image_window","59d6165050f88f000161e951","6kIWV1LxsNQA8jNoRleif5qEORC2","","","","","","","","","","","","","","","","","","","","",""
"html-keyboard-response","95","181376","0.0-41.0","","null","<div style=""font-size:100px;"">+</div>","null","delaylearn","learning","ITI","59d6165050f88f000161e951","6kIWV1LxsNQA8jNoRleif5qEORC2","","","","","","","","","","","","","","","","","","","2281","",""
"html-keyboard-response","96","183397","0.0-42.0-0.0","","2018.1999999284744","<div style=""display: flex; flex-direction: column; align-items: center; margin-top: -40px;""><img src=""images/pattern_4.png"" style=""width: 234px; height: 230px; margin-top: -50px;""><div style=""display: flex; justify-content: space-between; margin-top: 33px;""><img src=""images/choice_trial_4.png"" style=""width: 408px; height: 417px; margin-right: 200px;""><img src=""images/choice_trial_11.png"" style=""width: 408px; height: 417px;""></div></div>","j","delaylearn","learning","trial","59d6165050f88f000161e951","6kIWV1LxsNQA8jNoRleif5qEORC2","5","images/choice_trial_4.png","images/choice_trial_11.png","images/pattern_4.png","j","j","7000","4","11","3","1","18","1","1","11","120","","","","",""
"html-keyboard-response","97","184407","0.0-42.0-1.0","","null","<div style=""display: flex; flex-direction: column; align-items: center; margin-top: -40px;""><img src=""images/pattern_4.png"" style=""width: 234px; height: 230px; margin-top: -50px;""><div style=""display: flex; justify-content: space-between; margin-top: 33px;""><img src=""images/choice_trial_11.png"" style=""width: 408px; height: 417px; margin-left:608px;""></div></div>","null","delaylearn","learning","display_response","59d6165050f88f000161e951","6kIWV1LxsNQA8jNoRleif5qEORC2","","","","","","","","","","","","","","","","","chosen stimuli: images/choice_trial_11.png","","","",""
"html-keyboard-response","98","191423","0.0-42.0-2.0","","null","","null","delaylearn","learning","feedback_duration_window","59d6165050f88f000161e951","6kIWV1LxsNQA8jNoRleif5qEORC2","","","","","","","","","","","","","","","","","","7000","","",""
"html-keyboard-response","99","192932","0.0-42.0-3.0","","null","<div style='margin:auto;width: auto; font-size: 150%'><span style='font-weight: bold; font-size: 100px; color: green;'>+10 points!</span><br><br></div>","null","delaylearn","learning","feedback_image_window","59d6165050f88f000161e951","6kIWV1LxsNQA8jNoRleif5qEORC2","","","","","","","","","","","","","","","","","","","","",""
"html-keyboard-response","100","194573","0.0-43.0","","null","<div style=""font-size:100px;"">+</div>","null","delaylearn","learning","ITI","59d6165050f88f000161e951","6kIWV1LxsNQA8jNoRleif5qEORC2","","","","","","","","","","","","","","","","","","","1631","",""
"html-keyboard-response","101","196023","0.0-44.0-0.0","","1444.8999999761581","<div style=""display: flex; flex-direction: column; align-items: center; margin-top: -40px;""><img src=""images/pattern_7.png"" style=""width: 234px; height: 230px; margin-top: -50px;""><div style=""display: flex; justify-content: space-between; margin-top: 33px;""><img src=""images/choice_trial_8.png"" style=""width: 408px; height: 417px; margin-right: 200px;""><img src=""images/choice_trial_10.png"" style=""width: 408px; height: 417px;""></div></div>","f","delaylearn","learning","trial","59d6165050f88f000161e951","6kIWV1LxsNQA8jNoRleif5qEORC2","5","images/choice_trial_8.png","images/choice_trial_10.png","images/pattern_7.png","j","f","750","8","10","6","0","19","1","0","8","120","","","","",""
"html-keyboard-response","102","197035","0.0-44.0-1.0","","null","<div style=""display: flex; flex-direction: column; align-items: center; margin-top: -40px;""><img src=""images/pattern_7.png"" style=""width: 234px; height: 230px; margin-top: -50px;""><div style=""display: flex; justify-content: space-between; margin-top: 33px;""><img src=""images/choice_trial_8.png"" style=""width: 408px; height: 417px; margin-right: 608px;""></div></div>","null","delaylearn","learning","display_response","59d6165050f88f000161e951","6kIWV1LxsNQA8jNoRleif5qEORC2","","","","","","","","","","","","","","","","","chosen stimuli: images/choice_trial_8.png","","","",""
"html-keyboard-response","103","197788","0.0-44.0-2.0","","null","","null","delaylearn","learning","feedback_duration_window","59d6165050f88f000161e951","6kIWV1LxsNQA8jNoRleif5qEORC2","","","","","","","","","","","","","","","","","","750","","",""
"html-keyboard-response","104","199294","0.0-44.0-3.0","","null","<div style='margin:auto;width: auto; font-size: 150%'><span style='font-weight: bold; font-size: 100px; color: red;'>0 points!</span><br><br></div>","null","delaylearn","learning","feedback_image_window","59d6165050f88f000161e951","6kIWV1LxsNQA8jNoRleif5qEORC2","","","","","","","","","","","","","","","","","","","","",""
"html-keyboard-response","105","201029","0.0-45.0","","null","<div style=""font-size:100px;"">+</div>","null","delaylearn","learning","ITI","59d6165050f88f000161e951","6kIWV1LxsNQA8jNoRleif5qEORC2","","","","","","","","","","","","","","","","","","","1733","",""
"html-keyboard-response","106","202335","0.0-46.0-0.0","","1302.1999999284744","<div style=""display: flex; flex-direction: column; align-items: center; margin-top: -40px;""><img src=""images/pattern_1.png"" style=""width: 234px; height: 230px; margin-top: -50px;""><div style=""display: flex; justify-content: space-between; margin-top: 33px;""><img src=""images/choice_trial_6.png"" style=""width: 408px; height: 417px; margin-right: 200px;""><img src=""images/choice_trial_15.png"" style=""width: 408px; height: 417px;""></div></div>","f","delaylearn","learning","trial","59d6165050f88f000161e951","6kIWV1LxsNQA8jNoRleif5qEORC2","5","images/choice_trial_6.png","images/choice_trial_15.png","images/pattern_1.png","f","f","7000","6","15","1","0","20","1","1","6","130","","","","",""
"html-keyboard-response","107","203342","0.0-46.0-1.0","","null","<div style=""display: flex; flex-direction: column; align-items: center; margin-top: -40px;""><img src=""images/pattern_1.png"" style=""width: 234px; height: 230px; margin-top: -50px;""><div style=""display: flex; justify-content: space-between; margin-top: 33px;""><img src=""images/choice_trial_6.png"" style=""width: 408px; height: 417px; margin-right: 608px;""></div></div>","null","delaylearn","learning","display_response","59d6165050f88f000161e951","6kIWV1LxsNQA8jNoRleif5qEORC2","","","","","","","","","","","","","","","","","chosen stimuli: images/choice_trial_6.png","","","",""
"html-keyboard-response","108","210355","0.0-46.0-2.0","","null","","null","delaylearn","learning","feedback_duration_window","59d6165050f88f000161e951","6kIWV1LxsNQA8jNoRleif5qEORC2","","","","","","","","","","","","","","","","","","7000","","",""
"html-keyboard-response","109","211865","0.0-46.0-3.0","","null","<div style='margin:auto;width: auto; font-size: 150%'><span style='font-weight: bold; font-size: 100px; color: green;'>+10 points!</span><br><br></div>","null","delaylearn","learning","feedback_image_window","59d6165050f88f000161e951","6kIWV1LxsNQA8jNoRleif5qEORC2","","","","","","","","","","","","","","","","","","","","",""
"html-keyboard-response","110","214345","0.0-47.0","","null","<div style=""font-size:100px;"">+</div>","null","delaylearn","learning","ITI","59d6165050f88f000161e951","6kIWV1LxsNQA8jNoRleif5qEORC2","","","","","","","","","","","","","","","","","","","2468","",""
"html-keyboard-response","111","215902","0.0-48.0-0.0","","1554.3999999761581","<div style=""display: flex; flex-direction: column; align-items: center; margin-top: -40px;""><img src=""images/pattern_6.png"" style=""width: 234px; height: 230px; margin-top: -50px;""><div style=""display: flex; justify-content: space-between; margin-top: 33px;""><img src=""images/choice_trial_9.png"" style=""width: 408px; height: 417px; margin-right: 200px;""><img src=""images/choice_trial_14.png"" style=""width: 408px; height: 417px;""></div></div>","j","delaylearn","learning","trial","59d6165050f88f000161e951","6kIWV1LxsNQA8jNoRleif5qEORC2","5","images/choice_trial_9.png","images/choice_trial_14.png","images/pattern_6.png","j","j","750","9","14","5","1","21","1","1","14","140","","","","",""
"html-keyboard-response","112","216919","0.0-48.0-1.0","","null","<div style=""display: flex; flex-direction: column; align-items: center; margin-top: -40px;""><img src=""images/pattern_6.png"" style=""width: 234px; height: 230px; margin-top: -50px;""><div style=""display: flex; justify-content: space-between; margin-top: 33px;""><img src=""images/choice_trial_14.png"" style=""width: 408px; height: 417px; margin-left:608px;""></div></div>","null","delaylearn","learning","display_response","59d6165050f88f000161e951","6kIWV1LxsNQA8jNoRleif5qEORC2","","","","","","","","","","","","","","","","","chosen stimuli: images/choice_trial_14.png","","","",""
"html-keyboard-response","113","217672","0.0-48.0-2.0","","null","","null","delaylearn","learning","feedback_duration_window","59d6165050f88f000161e951","6kIWV1LxsNQA8jNoRleif5qEORC2","","","","","","","","","","","","","","","","","","750","","",""
"html-keyboard-response","114","219179","0.0-48.0-3.0","","null","<div style='margin:auto;width: auto; font-size: 150%'><span style='font-weight: bold; font-size: 100px; color: green;'>+10 points!</span><br><br></div>","null","delaylearn","learning","feedback_image_window","59d6165050f88f000161e951","6kIWV1LxsNQA8jNoRleif5qEORC2","","","","","","","","","","","","","","","","","","","","",""
"html-keyboard-response","115","221595","0.0-49.0","","null","<div style=""font-size:100px;"">+</div>","null","delaylearn","learning","ITI","59d6165050f88f000161e951","6kIWV1LxsNQA8jNoRleif5qEORC2","","","","","","","","","","","","","","","","","","","2401","",""
"html-keyboard-response","116","222910","0.0-50.0-0.0","","1311.2000000476837","<div style=""display: flex; flex-direction: column; align-items: center; margin-top: -40px;""><img src=""images/pattern_4.png"" style=""width: 234px; height: 230px; margin-top: -50px;""><div style=""display: flex; justify-content: space-between; margin-top: 33px;""><img src=""images/choice_trial_11.png"" style=""width: 408px; height: 417px; margin-right: 200px;""><img src=""images/choice_trial_4.png"" style=""width: 408px; height: 417px;""></div></div>","f","delaylearn","learning","trial","59d6165050f88f000161e951","6kIWV1LxsNQA8jNoRleif5qEORC2","5","images/choice_trial_11.png","images/choice_trial_4.png","images/pattern_4.png","f","f","7000","11","4","3","0","22","1","1","11","150","","","","",""
"html-keyboard-response","117","223927","0.0-50.0-1.0","","null","<div style=""display: flex; flex-direction: column; align-items: center; margin-top: -40px;""><img src=""images/pattern_4.png"" style=""width: 234px; height: 230px; margin-top: -50px;""><div style=""display: flex; justify-content: space-between; margin-top: 33px;""><img src=""images/choice_trial_11.png"" style=""width: 408px; height: 417px; margin-right: 608px;""></div></div>","null","delaylearn","learning","display_response","59d6165050f88f000161e951","6kIWV1LxsNQA8jNoRleif5qEORC2","","","","","","","","","","","","","","","","","chosen stimuli: images/choice_trial_11.png","","","",""
"html-keyboard-response","118","230936","0.0-50.0-2.0","","null","","null","delaylearn","learning","feedback_duration_window","59d6165050f88f000161e951","6kIWV1LxsNQA8jNoRleif5qEORC2","","","","","","","","","","","","","","","","","","7000","","",""
"html-keyboard-response","119","232445","0.0-50.0-3.0","","null","<div style='margin:auto;width: auto; font-size: 150%'><span style='font-weight: bold; font-size: 100px; color: green;'>+10 points!</span><br><br></div>","null","delaylearn","learning","feedback_image_window","59d6165050f88f000161e951","6kIWV1LxsNQA8jNoRleif5qEORC2","","","","","","","","","","","","","","","","","","","","",""
"html-keyboard-response","120","232953","0.0-51.0-0.0","","null","","null","","","mood_trial_fixation","","","","","","","","","","","","","","","","","","","","","","",""
"lmdlab-html-vas-response","121","238410","0.0-51.0-1.0","","4443","How happy are you right now?","0.6620611067378147","delaylearn","learning","mood_trial","59d6165050f88f000161e951","6kIWV1LxsNQA8jNoRleif5qEORC2","","","","","","","","","","","","","","","","","","","","[""Very unhappy"",""Very happy""]",""
"html-keyboard-response","122","239943","0.0-52.0","","null","<div style=""font-size:100px;"">+</div>","null","delaylearn","learning","ITI","59d6165050f88f000161e951","6kIWV1LxsNQA8jNoRleif5qEORC2","","","","","","","","","","","","","","","","","","","1524","",""
"html-keyboard-response","123","241390","0.0-53.0-0.0","","1443.3000000715256","<div style=""display: flex; flex-direction: column; align-items: center; margin-top: -40px;""><img src=""images/pattern_7.png"" style=""width: 234px; height: 230px; margin-top: -50px;""><div style=""display: flex; justify-content: space-between; margin-top: 33px;""><img src=""images/choice_trial_10.png"" style=""width: 408px; height: 417px; margin-right: 200px;""><img src=""images/choice_trial_8.png"" style=""width: 408px; height: 417px;""></div></div>","f","delaylearn","learning","trial","59d6165050f88f000161e951","6kIWV1LxsNQA8jNoRleif5qEORC2","5","images/choice_trial_10.png","images/choice_trial_8.png","images/pattern_7.png","j","j","750","10","8","6","1","23","0","0","10","150","","","","",""
"html-keyboard-response","124","242398","0.0-53.0-1.0","","null","<div style=""display: flex; flex-direction: column; align-items: center; margin-top: -40px;""><img src=""images/pattern_7.png"" style=""width: 234px; height: 230px; margin-top: -50px;""><div style=""display: flex; justify-content: space-between; margin-top: 33px;""><img src=""images/choice_trial_10.png"" style=""width: 408px; height: 417px; margin-right: 608px;""></div></div>","null","delaylearn","learning","display_response","59d6165050f88f000161e951","6kIWV1LxsNQA8jNoRleif5qEORC2","","","","","","","","","","","","","","","","","chosen stimuli: images/choice_trial_10.png","","","",""
"html-keyboard-response","125","243152","0.0-53.0-2.0","","null","","null","delaylearn","learning","feedback_duration_window","59d6165050f88f000161e951","6kIWV1LxsNQA8jNoRleif5qEORC2","","","","","","","","","","","","","","","","","","750","","",""
"html-keyboard-response","126","244662","0.0-53.0-3.0","","null","<div style='margin:auto;width: auto; font-size: 150%'><span style='font-weight: bold; font-size: 100px; color: red;'>0 points!</span><br><br></div>","null","delaylearn","learning","feedback_image_window","59d6165050f88f000161e951","6kIWV1LxsNQA8jNoRleif5qEORC2","","","","","","","","","","","","","","","","","","","","",""
"html-keyboard-response","127","246226","0.0-54.0","","null","<div style=""font-size:100px;"">+</div>","null","delaylearn","learning","ITI","59d6165050f88f000161e951","6kIWV1LxsNQA8jNoRleif5qEORC2","","","","","","","","","","","","","","","","","","","1556","",""
"html-keyboard-response","128","247420","0.0-55.0-0.0","","1192.1000000238419","<div style=""display: flex; flex-direction: column; align-items: center; margin-top: -40px;""><img src=""images/pattern_1.png"" style=""width: 234px; height: 230px; margin-top: -50px;""><div style=""display: flex; justify-content: space-between; margin-top: 33px;""><img src=""images/choice_trial_15.png"" style=""width: 408px; height: 417px; margin-right: 200px;""><img src=""images/choice_trial_6.png"" style=""width: 408px; height: 417px;""></div></div>","j","delaylearn","learning","trial","59d6165050f88f000161e951","6kIWV1LxsNQA8jNoRleif5qEORC2","5","images/choice_trial_15.png","images/choice_trial_6.png","images/pattern_1.png","f","j","7000","15","6","1","1","24","1","0","6","150","","","","",""
"html-keyboard-response","129","248428","0.0-55.0-1.0","","null","<div style=""display: flex; flex-direction: column; align-items: center; margin-top: -40px;""><img src=""images/pattern_1.png"" style=""width: 234px; height: 230px; margin-top: -50px;""><div style=""display: flex; justify-content: space-between; margin-top: 33px;""><img src=""images/choice_trial_6.png"" style=""width: 408px; height: 417px; margin-left:608px;""></div></div>","null","delaylearn","learning","display_response","59d6165050f88f000161e951","6kIWV1LxsNQA8jNoRleif5qEORC2","","","","","","","","","","","","","","","","","chosen stimuli: images/choice_trial_6.png","","","",""
"html-keyboard-response","130","255439","0.0-55.0-2.0","","null","","null","delaylearn","learning","feedback_duration_window","59d6165050f88f000161e951","6kIWV1LxsNQA8jNoRleif5qEORC2","","","","","","","","","","","","","","","","","","7000","","",""
"html-keyboard-response","131","256946","0.0-55.0-3.0","","null","<div style='margin:auto;width: auto; font-size: 150%'><span style='font-weight: bold; font-size: 100px; color: red;'>0 points!</span><br><br></div>","null","delaylearn","learning","feedback_image_window","59d6165050f88f000161e951","6kIWV1LxsNQA8jNoRleif5qEORC2","","","","","","","","","","","","","","","","","","","","",""
"html-keyboard-response","132","259445","0.0-56.0","","null","<div style=""font-size:100px;"">+</div>","null","delaylearn","learning","ITI","59d6165050f88f000161e951","6kIWV1LxsNQA8jNoRleif5qEORC2","","","","","","","","","","","","","","","","","","","2494","",""
"html-keyboard-response","133","261040","0.0-57.0-0.0","","1592","<div style=""display: flex; flex-direction: column; align-items: center; margin-top: -40px;""><img src=""images/pattern_5.png"" style=""width: 234px; height: 230px; margin-top: -50px;""><div style=""display: flex; justify-content: space-between; margin-top: 33px;""><img src=""images/choice_trial_13.png"" style=""width: 408px; height: 417px; margin-right: 200px;""><img src=""images/choice_trial_7.png"" style=""width: 408px; height: 417px;""></div></div>","j","delaylearn","learning","trial","59d6165050f88f000161e951","6kIWV1LxsNQA8jNoRleif5qEORC2","5","images/choice_trial_13.png","images/choice_trial_7.png","images/pattern_5.png","j","j","750","13","7","4","1","25","1","1","7","160","","","","",""
"html-keyboard-response","134","262046","0.0-57.0-1.0","","null","<div style=""display: flex; flex-direction: column; align-items: center; margin-top: -40px;""><img src=""images/pattern_5.png"" style=""width: 234px; height: 230px; margin-top: -50px;""><div style=""display: flex; justify-content: space-between; margin-top: 33px;""><img src=""images/choice_trial_7.png"" style=""width: 408px; height: 417px; margin-left:608px;""></div></div>","null","delaylearn","learning","display_response","59d6165050f88f000161e951","6kIWV1LxsNQA8jNoRleif5qEORC2","","","","","","","","","","","","","","","","","chosen stimuli: images/choice_trial_7.png","","","",""
"html-keyboard-response","135","262804","0.0-57.0-2.0","","null","","null","delaylearn","learning","feedback_duration_window","59d6165050f88f000161e951","6kIWV1LxsNQA8jNoRleif5qEORC2","","","","","","","","","","","","","","","","","","750","","",""
"html-keyboard-response","136","264315","0.0-57.0-3.0","","null","<div style='margin:auto;width: auto; font-size: 150%'><span style='font-weight: bold; font-size: 100px; color: green;'>+10 points!</span><br><br></div>","null","delaylearn","learning","feedback_image_window","59d6165050f88f000161e951","6kIWV1LxsNQA8jNoRleif5qEORC2","","","","","","","","","","","","","","","","","","","","",""
"html-keyboard-response","137","266280","0.0-58.0","","null","<div style=""font-size:100px;"">+</div>","null","delaylearn","learning","ITI","59d6165050f88f000161e951","6kIWV1LxsNQA8jNoRleif5qEORC2","","","","","","","","","","","","","","","","","","","1958","",""
"html-keyboard-response","138","268004","0.0-59.0-0.0","","1720.8999999761581","<div style=""display: flex; flex-direction: column; align-items: center; margin-top: -40px;""><img src=""images/pattern_3.png"" style=""width: 234px; height: 230px; margin-top: -50px;""><div style=""display: flex; justify-content: space-between; margin-top: 33px;""><img src=""images/choice_trial_2.png"" style=""width: 408px; height: 417px; margin-right: 200px;""><img src=""images/choice_trial_16.png"" style=""width: 408px; height: 417px;""></div></div>","j","delaylearn","learning","trial","59d6165050f88f000161e951","6kIWV1LxsNQA8jNoRleif5qEORC2","5","images/choice_trial_2.png","images/choice_trial_16.png","images/pattern_3.png","j","j","7000","2","16","2","1","26","1","1","16","170","","","","",""
"html-keyboard-response","139","269010","0.0-59.0-1.0","","null","<div style=""display: flex; flex-direction: column; align-items: center; margin-top: -40px;""><img src=""images/pattern_3.png"" style=""width: 234px; height: 230px; margin-top: -50px;""><div style=""display: flex; justify-content: space-between; margin-top: 33px;""><img src=""images/choice_trial_16.png"" style=""width: 408px; height: 417px; margin-left:608px;""></div></div>","null","delaylearn","learning","display_response","59d6165050f88f000161e951","6kIWV1LxsNQA8jNoRleif5qEORC2","","","","","","","","","","","","","","","","","chosen stimuli: images/choice_trial_16.png","","","",""
"html-keyboard-response","140","276020","0.0-59.0-2.0","","null","","null","delaylearn","learning","feedback_duration_window","59d6165050f88f000161e951","6kIWV1LxsNQA8jNoRleif5qEORC2","","","","","","","","","","","","","","","","","","7000","","",""
"html-keyboard-response","141","277530","0.0-59.0-3.0","","null","<div style='margin:auto;width: auto; font-size: 150%'><span style='font-weight: bold; font-size: 100px; color: green;'>+10 points!</span><br><br></div>","null","delaylearn","learning","feedback_image_window","59d6165050f88f000161e951","6kIWV1LxsNQA8jNoRleif5qEORC2","","","","","","","","","","","","","","","","","","","","",""
"lmdlab-html-vas-response","142","283196","0.0-60.0-0.0","","4141","*How <b><u>confident</u></b> are you feeling about your answers at this moment?*","0.228009213199888","rewlearn","rate_confidence","","59d6165050f88f000161e951","6kIWV1LxsNQA8jNoRleif5qEORC2","","","","","","","","","","","","","","","","","","","","[""No confidence"",""Complete confidence""]",""
"lmdlab-rest-trial-limit","143","289173","0.0-60.0-1.0","","4460.399999976158","<div style=""font-size:40px;""><b>Please take a break!</b><br><br><br><br><p>Great work: you earned 170 points.<br><br><br><p>You have completed part(s) 1 of 5.<br><br><br><br>When you are ready to continue<br><br><br>please click the button.</p><br><br>","0","delaylearn","learning","break","59d6165050f88f000161e951","6kIWV1LxsNQA8jNoRleif5qEORC2","","","","","","","","","","","","","","","","","","","","","0"
"html-keyboard-response","144","292179","0.0-60.0-2.0","","null","<div style=""font-size:100px;"">+</div>","null","delaylearn","learning","pre_fixation","59d6165050f88f000161e951","","","","","","","","","","","","","","","","","","","","","",""
"lmdlab-html-vas-response","145","296647","0.0-60.0-3.0-0.0","","3450","How happy are you right now?","0.4363666729224559","delaylearn","learning","mood_baseline","59d6165050f88f000161e951","6kIWV1LxsNQA8jNoRleif5qEORC2","","","","","","","","","","","","","","","","","","","","[""Very unhappy"",""Very happy""]",""
"html-keyboard-response","146","298152","0.0-60.0-3.0-1.0","","null","","null","","","mood_baseline_fixation","","","","","","","","","","","","","","","","","","","","","","",""
"html-keyboard-response","147","300637","0.0-61.0","","null","<div style=""font-size:100px;"">+</div>","null","delaylearn","learning","ITI","59d6165050f88f000161e951","6kIWV1LxsNQA8jNoRleif5qEORC2","","","","","","","","","","","","","","","","","","","2477","",""
"html-keyboard-response","148","301895","0.0-62.0-0.0","","1253.7999999523163","<div style=""display: flex; flex-direction: column; align-items: center; margin-top: -40px;""><img src=""images/pattern_7.png"" style=""width: 234px; height: 230px; margin-top: -50px;""><div style=""display: flex; justify-content: space-between; margin-top: 33px;""><img src=""images/choice_trial_10.png"" style=""width: 408px; height: 417px; margin-right: 200px;""><img src=""images/choice_trial_8.png"" style=""width: 408px; height: 417px;""></div></div>","j","delaylearn","learning","trial","59d6165050f88f000161e951","6kIWV1LxsNQA8jNoRleif5qEORC2","5","images/choice_trial_10.png","images/choice_trial_8.png","images/pattern_7.png","j","j","750","10","8","6","1","27","1","1","8","180","","","","",""
"html-keyboard-response","149","302902","0.0-62.0-1.0","","null","<div style=""display: flex; flex-direction: column; align-items: center; margin-top: -40px;""><img src=""images/pattern_7.png"" style=""width: 234px; height: 230px; margin-top: -50px;""><div style=""display: flex; justify-content: space-between; margin-top: 33px;""><img src=""images/choice_trial_8.png"" style=""width: 408px; height: 417px; margin-left:608px;""></div></div>","null","delaylearn","learning","display_response","59d6165050f88f000161e951","6kIWV1LxsNQA8jNoRleif5qEORC2","","","","","","","","","","","","","","","","","chosen stimuli: images/choice_trial_8.png","","","",""
"html-keyboard-response","150","303654","0.0-62.0-2.0","","null","","null","delaylearn","learning","feedback_duration_window","59d6165050f88f000161e951","6kIWV1LxsNQA8jNoRleif5qEORC2","","","","","","","","","","","","","","","","","","750","","",""
"html-keyboard-response","151","305160","0.0-62.0-3.0","","null","<div style='margin:auto;width: auto; font-size: 150%'><span style='font-weight: bold; font-size: 100px; color: green;'>+10 points!</span><br><br></div>","null","delaylearn","learning","feedback_image_window","59d6165050f88f000161e951","6kIWV1LxsNQA8jNoRleif5qEORC2","","","","","","","","","","","","","","","","","","","","",""
"html-keyboard-response","152","305669","0.0-63.0-0.0","","null","","null","","","mood_trial_fixation","","","","","","","","","","","","","","","","","","","","","","",""
"lmdlab-html-vas-response","153","310157","0.0-63.0-1.0","","3474","How happy are you right now?","0.49616605282225185","delaylearn","learning","mood_trial","59d6165050f88f000161e951","6kIWV1LxsNQA8jNoRleif5qEORC2","","","","","","","","","","","","","","","","","","","","[""Very unhappy"",""Very happy""]",""
"html-keyboard-response","154","312594","0.0-64.0","","null","<div style=""font-size:100px;"">+</div>","null","delaylearn","learning","ITI","59d6165050f88f000161e951","6kIWV1LxsNQA8jNoRleif5qEORC2","","","","","","","","","","","","","","","","","","","2428","",""
"html-keyboard-response","155","314078","0.0-65.0-0.0","","1480.8999999761581","<div style=""display: flex; flex-direction: column; align-items: center; margin-top: -40px;""><img src=""images/pattern_1.png"" style=""width: 234px; height: 230px; margin-top: -50px;""><div style=""display: flex; justify-content: space-between; margin-top: 33px;""><img src=""images/choice_trial_6.png"" style=""width: 408px; height: 417px; margin-right: 200px;""><img src=""images/choice_trial_15.png"" style=""width: 408px; height: 417px;""></div></div>","f","delaylearn","learning","trial","59d6165050f88f000161e951","6kIWV1LxsNQA8jNoRleif5qEORC2","5","images/choice_trial_6.png","images/choice_trial_15.png","images/pattern_1.png","f","f","7000","6","15","1","0","28","1","1","6","190","","","","",""
"html-keyboard-response","156","315083","0.0-65.0-1.0","","null","<div style=""display: flex; flex-direction: column; align-items: center; margin-top: -40px;""><img src=""images/pattern_1.png"" style=""width: 234px; height: 230px; margin-top: -50px;""><div style=""display: flex; justify-content: space-between; margin-top: 33px;""><img src=""images/choice_trial_6.png"" style=""width: 408px; height: 417px; margin-right: 608px;""></div></div>","null","delaylearn","learning","display_response","59d6165050f88f000161e951","6kIWV1LxsNQA8jNoRleif5qEORC2","","","","","","","","","","","","","","","","","chosen stimuli: images/choice_trial_6.png","","","",""
"html-keyboard-response","157","322097","0.0-65.0-2.0","","null","","null","delaylearn","learning","feedback_duration_window","59d6165050f88f000161e951","6kIWV1LxsNQA8jNoRleif5qEORC2","","","","","","","","","","","","","","","","","","7000","","",""
"html-keyboard-response","158","323616","0.0-65.0-3.0","","null","<div style='margin:auto;width: auto; font-size: 150%'><span style='font-weight: bold; font-size: 100px; color: green;'>+10 points!</span><br><br></div>","null","delaylearn","learning","feedback_image_window","59d6165050f88f000161e951","6kIWV1LxsNQA8jNoRleif5qEORC2","","","","","","","","","","","","","","","","","","","","",""
"html-keyboard-response","159","325865","0.0-66.0","","null","<div style=""font-size:100px;"">+</div>","null","delaylearn","learning","ITI","59d6165050f88f000161e951","6kIWV1LxsNQA8jNoRleif5qEORC2","","","","","","","","","","","","","","","","","","","2245","",""
"html-keyboard-response","160","326877","0.0-67.0-0.0","","1008.1999999284744","<div style=""display: flex; flex-direction: column; align-items: center; margin-top: -40px;""><img src=""images/pattern_5.png"" style=""width: 234px; height: 230px; margin-top: -50px;""><div style=""display: flex; justify-content: space-between; margin-top: 33px;""><img src=""images/choice_trial_7.png"" style=""width: 408px; height: 417px; margin-right: 200px;""><img src=""images/choice_trial_13.png"" style=""width: 408px; height: 417px;""></div></div>","f","delaylearn","learning","trial","59d6165050f88f000161e951","6kIWV1LxsNQA8jNoRleif5qEORC2","5","images/choice_trial_7.png","images/choice_trial_13.png","images/pattern_5.png","f","f","750","7","13","4","0","29","1","1","7","200","","","","",""
"html-keyboard-response","161","327888","0.0-67.0-1.0","","null","<div style=""display: flex; flex-direction: column; align-items: center; margin-top: -40px;""><img src=""images/pattern_5.png"" style=""width: 234px; height: 230px; margin-top: -50px;""><div style=""display: flex; justify-content: space-between; margin-top: 33px;""><img src=""images/choice_trial_7.png"" style=""width: 408px; height: 417px; margin-right: 608px;""></div></div>","null","delaylearn","learning","display_response","59d6165050f88f000161e951","6kIWV1LxsNQA8jNoRleif5qEORC2","","","","","","","","","","","","","","","","","chosen stimuli: images/choice_trial_7.png","","","",""
"html-keyboard-response","162","328645","0.0-67.0-2.0","","null","","null","delaylearn","learning","feedback_duration_window","59d6165050f88f000161e951","6kIWV1LxsNQA8jNoRleif5qEORC2","","","","","","","","","","","","","","","","","","750","","",""
"html-keyboard-response","163","330153","0.0-67.0-3.0","","null","<div style='margin:auto;width: auto; font-size: 150%'><span style='font-weight: bold; font-size: 100px; color: green;'>+10 points!</span><br><br></div>","null","delaylearn","learning","feedback_image_window","59d6165050f88f000161e951","6kIWV1LxsNQA8jNoRleif5qEORC2","","","","","","","","","","","","","","","","","","","","",""
"html-keyboard-response","164","332292","0.0-68.0","","null","<div style=""font-size:100px;"">+</div>","null","delaylearn","learning","ITI","59d6165050f88f000161e951","6kIWV1LxsNQA8jNoRleif5qEORC2","","","","","","","","","","","","","","","","","","","2128","",""
"html-keyboard-response","165","334875","0.0-69.0-0.0","","2578.7999999523163","<div style=""display: flex; flex-direction: column; align-items: center; margin-top: -40px;""><img src=""images/pattern_6.png"" style=""width: 234px; height: 230px; margin-top: -50px;""><div style=""display: flex; justify-content: space-between; margin-top: 33px;""><img src=""images/choice_trial_9.png"" style=""width: 408px; height: 417px; margin-right: 200px;""><img src=""images/choice_trial_14.png"" style=""width: 408px; height: 417px;""></div></div>","j","delaylearn","learning","trial","59d6165050f88f000161e951","6kIWV1LxsNQA8jNoRleif5qEORC2","5","images/choice_trial_9.png","images/choice_trial_14.png","images/pattern_6.png","j","j","750","9","14","5","1","30","1","1","14","210","","","","",""
"html-keyboard-response","166","335881","0.0-69.0-1.0","","null","<div style=""display: flex; flex-direction: column; align-items: center; margin-top: -40px;""><img src=""images/pattern_6.png"" style=""width: 234px; height: 230px; margin-top: -50px;""><div style=""display: flex; justify-content: space-between; margin-top: 33px;""><img src=""images/choice_trial_14.png"" style=""width: 408px; height: 417px; margin-left:608px;""></div></div>","null","delaylearn","learning","display_response","59d6165050f88f000161e951","6kIWV1LxsNQA8jNoRleif5qEORC2","","","","","","","","","","","","","","","","","chosen stimuli: images/choice_trial_14.png","","","",""
"html-keyboard-response","167","336637","0.0-69.0-2.0","","null","","null","delaylearn","learning","feedback_duration_window","59d6165050f88f000161e951","6kIWV1LxsNQA8jNoRleif5qEORC2","","","","","","","","","","","","","","","","","","750","","",""
"html-keyboard-response","168","338146","0.0-69.0-3.0","","null","<div style='margin:auto;width: auto; font-size: 150%'><span style='font-weight: bold; font-size: 100px; color: green;'>+10 points!</span><br><br></div>","null","delaylearn","learning","feedback_image_window","59d6165050f88f000161e951","6kIWV1LxsNQA8jNoRleif5qEORC2","","","","","","","","","","","","","","","","","","","","",""
"html-keyboard-response","169","338653","0.0-70.0-0.0","","null","","null","","","mood_trial_fixation","","","","","","","","","","","","","","","","","","","","","","",""
"lmdlab-html-vas-response","170","342685","0.0-70.0-1.0","","3025","How happy are you right now?","0.5926166655638582","delaylearn","learning","mood_trial","59d6165050f88f000161e951","6kIWV1LxsNQA8jNoRleif5qEORC2","","","","","","","","","","","","","","","","","","","","[""Very unhappy"",""Very happy""]",""
"html-keyboard-response","171","344417","0.0-71.0","","null","<div style=""font-size:100px;"">+</div>","null","delaylearn","learning","ITI","59d6165050f88f000161e951","6kIWV1LxsNQA8jNoRleif5qEORC2","","","","","","","","","","","","","","","","","","","1726","",""
"html-keyboard-response","172","345743","0.0-72.0-0.0","","1322.5","<div style=""display: flex; flex-direction: column; align-items: center; margin-top: -40px;""><img src=""images/pattern_4.png"" style=""width: 234px; height: 230px; margin-top: -50px;""><div style=""display: flex; justify-content: space-between; margin-top: 33px;""><img src=""images/choice_trial_4.png"" style=""width: 408px; height: 417px; margin-right: 200px;""><img src=""images/choice_trial_11.png"" style=""width: 408px; height: 417px;""></div></div>","f","delaylearn","learning","trial","59d6165050f88f000161e951","6kIWV1LxsNQA8jNoRleif5qEORC2","5","images/choice_trial_4.png","images/choice_trial_11.png","images/pattern_4.png","j","j","7000","4","11","3","1","31","0","0","4","210","","","","",""
"html-keyboard-response","173","346751","0.0-72.0-1.0","","null","<div style=""display: flex; flex-direction: column; align-items: center; margin-top: -40px;""><img src=""images/pattern_4.png"" style=""width: 234px; height: 230px; margin-top: -50px;""><div style=""display: flex; justify-content: space-between; margin-top: 33px;""><img src=""images/choice_trial_4.png"" style=""width: 408px; height: 417px; margin-right: 608px;""></div></div>","null","delaylearn","learning","display_response","59d6165050f88f000161e951","6kIWV1LxsNQA8jNoRleif5qEORC2","","","","","","","","","","","","","","","","","chosen stimuli: images/choice_trial_4.png","","","",""
"html-keyboard-response","174","353760","0.0-72.0-2.0","","null","","null","delaylearn","learning","feedback_duration_window","59d6165050f88f000161e951","6kIWV1LxsNQA8jNoRleif5qEORC2","","","","","","","","","","","","","","","","","","7000","","",""
"html-keyboard-response","175","355266","0.0-72.0-3.0","","null","<div style='margin:auto;width: auto; font-size: 150%'><span style='font-weight: bold; font-size: 100px; color: red;'>0 points!</span><br><br></div>","null","delaylearn","learning","feedback_image_window","59d6165050f88f000161e951","6kIWV1LxsNQA8jNoRleif5qEORC2","","","","","","","","","","","","","","","","","","","","",""
"html-keyboard-response","176","357213","0.0-73.0","","null","<div style=""font-size:100px;"">+</div>","null","delaylearn","learning","ITI","59d6165050f88f000161e951","6kIWV1LxsNQA8jNoRleif5qEORC2","","","","","","","","","","","","","","","","","","","1940","",""
"html-keyboard-response","177","358849","0.0-74.0-0.0","","1631.3999999761581","<div style=""display: flex; flex-direction: column; align-items: center; margin-top: -40px;""><img src=""images/pattern_3.png"" style=""width: 234px; height: 230px; margin-top: -50px;""><div style=""display: flex; justify-content: space-between; margin-top: 33px;""><img src=""images/choice_trial_2.png"" style=""width: 408px; height: 417px; margin-right: 200px;""><img src=""images/choice_trial_16.png"" style=""width: 408px; height: 417px;""></div></div>","j","delaylearn","learning","trial","59d6165050f88f000161e951","6kIWV1LxsNQA8jNoRleif5qEORC2","5","images/choice_trial_2.png","images/choice_trial_16.png","images/pattern_3.png","j","j","7000","2","16","2","1","32","1","1","16","220","","","","",""
"html-keyboard-response","178","359866","0.0-74.0-1.0","","null","<div style=""display: flex; flex-direction: column; align-items: center; margin-top: -40px;""><img src=""images/pattern_3.png"" style=""width: 234px; height: 230px; margin-top: -50px;""><div style=""display: flex; justify-content: space-between; margin-top: 33px;""><img src=""images/choice_trial_16.png"" style=""width: 408px; height: 417px; margin-left:608px;""></div></div>","null","delaylearn","learning","display_response","59d6165050f88f000161e951","6kIWV1LxsNQA8jNoRleif5qEORC2","","","","","","","","","","","","","","","","","chosen stimuli: images/choice_trial_16.png","","","",""
"html-keyboard-response","179","366869","0.0-74.0-2.0","","null","","null","delaylearn","learning","feedback_duration_window","59d6165050f88f000161e951","6kIWV1LxsNQA8jNoRleif5qEORC2","","","","","","","","","","","","","","","","","","7000","","",""
"html-keyboard-response","180","368374","0.0-74.0-3.0","","null","<div style='margin:auto;width: auto; font-size: 150%'><span style='font-weight: bold; font-size: 100px; color: green;'>+10 points!</span><br><br></div>","null","delaylearn","learning","feedback_image_window","59d6165050f88f000161e951","6kIWV1LxsNQA8jNoRleif5qEORC2","","","","","","","","","","","","","","","","","","","","",""
"html-keyboard-response","181","370793","0.0-75.0","","null","<div style=""font-size:100px;"">+</div>","null","delaylearn","learning","ITI","59d6165050f88f000161e951","6kIWV1LxsNQA8jNoRleif5qEORC2","","","","","","","","","","","","","","","","","","","2412","",""
"html-keyboard-response","182","372091","0.0-76.0-0.0","","1293","<div style=""display: flex; flex-direction: column; align-items: center; margin-top: -40px;""><img src=""images/pattern_5.png"" style=""width: 234px; height: 230px; margin-top: -50px;""><div style=""display: flex; justify-content: space-between; margin-top: 33px;""><img src=""images/choice_trial_7.png"" style=""width: 408px; height: 417px; margin-right: 200px;""><img src=""images/choice_trial_13.png"" style=""width: 408px; height: 417px;""></div></div>","f","delaylearn","learning","trial","59d6165050f88f000161e951","6kIWV1LxsNQA8jNoRleif5qEORC2","5","images/choice_trial_7.png","images/choice_trial_13.png","images/pattern_5.png","j","f","750","7","13","4","0","33","1","0","7","220","","","","",""
"html-keyboard-response","183","373108","0.0-76.0-1.0","","null","<div style=""display: flex; flex-direction: column; align-items: center; margin-top: -40px;""><img src=""images/pattern_5.png"" style=""width: 234px; height: 230px; margin-top: -50px;""><div style=""display: flex; justify-content: space-between; margin-top: 33px;""><img src=""images/choice_trial_7.png"" style=""width: 408px; height: 417px; margin-right: 608px;""></div></div>","null","delaylearn","learning","display_response","59d6165050f88f000161e951","6kIWV1LxsNQA8jNoRleif5qEORC2","","","","","","","","","","","","","","","","","chosen stimuli: images/choice_trial_7.png","","","",""
"html-keyboard-response","184","373870","0.0-76.0-2.0","","null","","null","delaylearn","learning","feedback_duration_window","59d6165050f88f000161e951","6kIWV1LxsNQA8jNoRleif5qEORC2","","","","","","","","","","","","","","","","","","750","","",""
"html-keyboard-response","185","375374","0.0-76.0-3.0","","null","<div style='margin:auto;width: auto; font-size: 150%'><span style='font-weight: bold; font-size: 100px; color: red;'>0 points!</span><br><br></div>","null","delaylearn","learning","feedback_image_window","59d6165050f88f000161e951","6kIWV1LxsNQA8jNoRleif5qEORC2","","","","","","","","","","","","","","","","","","","","",""
"html-keyboard-response","186","377116","0.0-77.0","","null","<div style=""font-size:100px;"">+</div>","null","delaylearn","learning","ITI","59d6165050f88f000161e951","6kIWV1LxsNQA8jNoRleif5qEORC2","","","","","","","","","","","","","","","","","","","1739","",""
"html-keyboard-response","187","378586","0.0-78.0-0.0","","1464.3999999761581","<div style=""display: flex; flex-direction: column; align-items: center; margin-top: -40px;""><img src=""images/pattern_1.png"" style=""width: 234px; height: 230px; margin-top: -50px;""><div style=""display: flex; justify-content: space-between; margin-top: 33px;""><img src=""images/choice_trial_6.png"" style=""width: 408px; height: 417px; margin-right: 200px;""><img src=""images/choice_trial_15.png"" style=""width: 408px; height: 417px;""></div></div>","f","delaylearn","learning","trial","59d6165050f88f000161e951","6kIWV1LxsNQA8jNoRleif5qEORC2","5","images/choice_trial_6.png","images/choice_trial_15.png","images/pattern_1.png","f","f","7000","6","15","1","0","34","1","1","6","230","","","","",""
"html-keyboard-response","188","379591","0.0-78.0-1.0","","null","<div style=""display: flex; flex-direction: column; align-items: center; margin-top: -40px;""><img src=""images/pattern_1.png"" style=""width: 234px; height: 230px; margin-top: -50px;""><div style=""display: flex; justify-content: space-between; margin-top: 33px;""><img src=""images/choice_trial_6.png"" style=""width: 408px; height: 417px; margin-right: 608px;""></div></div>","null","delaylearn","learning","display_response","59d6165050f88f000161e951","6kIWV1LxsNQA8jNoRleif5qEORC2","","","","","","","","","","","","","","","","","chosen stimuli: images/choice_trial_6.png","","","",""
"html-keyboard-response","189","386595","0.0-78.0-2.0","","null","","null","delaylearn","learning","feedback_duration_window","59d6165050f88f000161e951","6kIWV1LxsNQA8jNoRleif5qEORC2","","","","","","","","","","","","","","","","","","7000","","",""
"html-keyboard-response","190","388111","0.0-78.0-3.0","","null","<div style='margin:auto;width: auto; font-size: 150%'><span style='font-weight: bold; font-size: 100px; color: green;'>+10 points!</span><br><br></div>","null","delaylearn","learning","feedback_image_window","59d6165050f88f000161e951","6kIWV1LxsNQA8jNoRleif5qEORC2","","","","","","","","","","","","","","","","","","","","",""
"html-keyboard-response","191","388614","0.0-79.0-0.0","","null","","null","","","mood_trial_fixation","","","","","","","","","","","","","","","","","","","","","","",""
"lmdlab-html-vas-response","192","393376","0.0-79.0-1.0","","3753","How happy are you right now?","0.407431489099974","delaylearn","learning","mood_trial","59d6165050f88f000161e951","6kIWV1LxsNQA8jNoRleif5qEORC2","","","","","","","","","","","","","","","","","","","","[""Very unhappy"",""Very happy""]",""
"html-keyboard-response","193","395015","0.0-80.0","","null","<div style=""font-size:100px;"">+</div>","null","delaylearn","learning","ITI","59d6165050f88f000161e951","6kIWV1LxsNQA8jNoRleif5qEORC2","","","","","","","","","","","","","","","","","","","1636","",""
"html-keyboard-response","194","396369","0.0-81.0-0.0","","1349.8000000715256","<div style=""display: flex; flex-direction: column; align-items: center; margin-top: -40px;""><img src=""images/pattern_6.png"" style=""width: 234px; height: 230px; margin-top: -50px;""><div style=""display: flex; justify-content: space-between; margin-top: 33px;""><img src=""images/choice_trial_14.png"" style=""width: 408px; height: 417px; margin-right: 200px;""><img src=""images/choice_trial_9.png"" style=""width: 408px; height: 417px;""></div></div>","f","delaylearn","learning","trial","59d6165050f88f000161e951","6kIWV1LxsNQA8jNoRleif5qEORC2","5","images/choice_trial_14.png","images/choice_trial_9.png","images/pattern_6.png","j","f","750","14","9","5","0","35","1","0","14","230","","","","",""
"html-keyboard-response","195","397386","0.0-81.0-1.0","","null","<div style=""display: flex; flex-direction: column; align-items: center; margin-top: -40px;""><img src=""images/pattern_6.png"" style=""width: 234px; height: 230px; margin-top: -50px;""><div style=""display: flex; justify-content: space-between; margin-top: 33px;""><img src=""images/choice_trial_14.png"" style=""width: 408px; height: 417px; margin-right: 608px;""></div></div>","null","delaylearn","learning","display_response","59d6165050f88f000161e951","6kIWV1LxsNQA8jNoRleif5qEORC2","","","","","","","","","","","","","","","","","chosen stimuli: images/choice_trial_14.png","","","",""
"html-keyboard-response","196","398139","0.0-81.0-2.0","","null","","null","delaylearn","learning","feedback_duration_window","59d6165050f88f000161e951","6kIWV1LxsNQA8jNoRleif5qEORC2","","","","","","","","","","","","","","","","","","750","","",""
"html-keyboard-response","197","399647","0.0-81.0-3.0","","null","<div style='margin:auto;width: auto; font-size: 150%'><span style='font-weight: bold; font-size: 100px; color: red;'>0 points!</span><br><br></div>","null","delaylearn","learning","feedback_image_window","59d6165050f88f000161e951","6kIWV1LxsNQA8jNoRleif5qEORC2","","","","","","","","","","","","","","","","","","","","",""
"html-keyboard-response","198","401754","0.0-82.0","","null","<div style=""font-size:100px;"">+</div>","null","delaylearn","learning","ITI","59d6165050f88f000161e951","6kIWV1LxsNQA8jNoRleif5qEORC2","","","","","","","","","","","","","","","","","","","2097","",""
"html-keyboard-response","199","402888","0.0-83.0-0.0","","1129.8999999761581","<div style=""display: flex; flex-direction: column; align-items: center; margin-top: -40px;""><img src=""images/pattern_3.png"" style=""width: 234px; height: 230px; margin-top: -50px;""><div style=""display: flex; justify-content: space-between; margin-top: 33px;""><img src=""images/choice_trial_2.png"" style=""width: 408px; height: 417px; margin-right: 200px;""><img src=""images/choice_trial_16.png"" style=""width: 408px; height: 417px;""></div></div>","j","delaylearn","learning","trial","59d6165050f88f000161e951","6kIWV1LxsNQA8jNoRleif5qEORC2","5","images/choice_trial_2.png","images/choice_trial_16.png","images/pattern_3.png","j","j","7000","2","16","2","1","36","1","1","16","240","","","","",""
"html-keyboard-response","200","403900","0.0-83.0-1.0","","null","<div style=""display: flex; flex-direction: column; align-items: center; margin-top: -40px;""><img src=""images/pattern_3.png"" style=""width: 234px; height: 230px; margin-top: -50px;""><div style=""display: flex; justify-content: space-between; margin-top: 33px;""><img src=""images/choice_trial_16.png"" style=""width: 408px; height: 417px; margin-left:608px;""></div></div>","null","delaylearn","learning","display_response","59d6165050f88f000161e951","6kIWV1LxsNQA8jNoRleif5qEORC2","","","","","","","","","","","","","","","","","chosen stimuli: images/choice_trial_16.png","","","",""
"html-keyboard-response","201","410905","0.0-83.0-2.0","","null","","null","delaylearn","learning","feedback_duration_window","59d6165050f88f000161e951","6kIWV1LxsNQA8jNoRleif5qEORC2","","","","","","","","","","","","","","","","","","7000","","",""
"html-keyboard-response","202","412414","0.0-83.0-3.0","","null","<div style='margin:auto;width: auto; font-size: 150%'><span style='font-weight: bold; font-size: 100px; color: green;'>+10 points!</span><br><br></div>","null","delaylearn","learning","feedback_image_window","59d6165050f88f000161e951","6kIWV1LxsNQA8jNoRleif5qEORC2","","","","","","","","","","","","","","","","","","","","",""
"html-keyboard-response","203","414523","0.0-84.0","","null","<div style=""font-size:100px;"">+</div>","null","delaylearn","learning","ITI","59d6165050f88f000161e951","6kIWV1LxsNQA8jNoRleif5qEORC2","","","","","","","","","","","","","","","","","","","2105","",""
"html-keyboard-response","204","415759","0.0-85.0-0.0","","1230.3999999761581","<div style=""display: flex; flex-direction: column; align-items: center; margin-top: -40px;""><img src=""images/pattern_4.png"" style=""width: 234px; height: 230px; margin-top: -50px;""><div style=""display: flex; justify-content: space-between; margin-top: 33px;""><img src=""images/choice_trial_4.png"" style=""width: 408px; height: 417px; margin-right: 200px;""><img src=""images/choice_trial_11.png"" style=""width: 408px; height: 417px;""></div></div>","f","delaylearn","learning","trial","59d6165050f88f000161e951","6kIWV1LxsNQA8jNoRleif5qEORC2","5","images/choice_trial_4.png","images/choice_trial_11.png","images/pattern_4.png","f","j","7000","4","11","3","1","37","0","1","4","250","","","","",""
"html-keyboard-response","205","416777","0.0-85.0-1.0","","null","<div style=""display: flex; flex-direction: column; align-items: center; margin-top: -40px;""><img src=""images/pattern_4.png"" style=""width: 234px; height: 230px; margin-top: -50px;""><div style=""display: flex; justify-content: space-between; margin-top: 33px;""><img src=""images/choice_trial_4.png"" style=""width: 408px; height: 417px; margin-right: 608px;""></div></div>","null","delaylearn","learning","display_response","59d6165050f88f000161e951","6kIWV1LxsNQA8jNoRleif5qEORC2","","","","","","","","","","","","","","","","","chosen stimuli: images/choice_trial_4.png","","","",""
"html-keyboard-response","206","423780","0.0-85.0-2.0","","null","","null","delaylearn","learning","feedback_duration_window","59d6165050f88f000161e951","6kIWV1LxsNQA8jNoRleif5qEORC2","","","","","","","","","","","","","","","","","","7000","","",""
"html-keyboard-response","207","425284","0.0-85.0-3.0","","null","<div style='margin:auto;width: auto; font-size: 150%'><span style='font-weight: bold; font-size: 100px; color: green;'>+10 points!</span><br><br></div>","null","delaylearn","learning","feedback_image_window","59d6165050f88f000161e951","6kIWV1LxsNQA8jNoRleif5qEORC2","","","","","","","","","","","","","","","","","","","","",""
"html-keyboard-response","208","427251","0.0-86.0","","null","<div style=""font-size:100px;"">+</div>","null","delaylearn","learning","ITI","59d6165050f88f000161e951","6kIWV1LxsNQA8jNoRleif5qEORC2","","","","","","","","","","","","","","","","","","","1959","",""
"html-keyboard-response","209","428489","0.0-87.0-0.0","","1234","<div style=""display: flex; flex-direction: column; align-items: center; margin-top: -40px;""><img src=""images/pattern_7.png"" style=""width: 234px; height: 230px; margin-top: -50px;""><div style=""display: flex; justify-content: space-between; margin-top: 33px;""><img src=""images/choice_trial_8.png"" style=""width: 408px; height: 417px; margin-right: 200px;""><img src=""images/choice_trial_10.png"" style=""width: 408px; height: 417px;""></div></div>","f","delaylearn","learning","trial","59d6165050f88f000161e951","6kIWV1LxsNQA8jNoRleif5qEORC2","5","images/choice_trial_8.png","images/choice_trial_10.png","images/pattern_7.png","f","f","750","8","10","6","0","38","1","1","8","260","","","","",""
"html-keyboard-response","210","429503","0.0-87.0-1.0","","null","<div style=""display: flex; flex-direction: column; align-items: center; margin-top: -40px;""><img src=""images/pattern_7.png"" style=""width: 234px; height: 230px; margin-top: -50px;""><div style=""display: flex; justify-content: space-between; margin-top: 33px;""><img src=""images/choice_trial_8.png"" style=""width: 408px; height: 417px; margin-right: 608px;""></div></div>","null","delaylearn","learning","display_response","59d6165050f88f000161e951","6kIWV1LxsNQA8jNoRleif5qEORC2","","","","","","","","","","","","","","","","","chosen stimuli: images/choice_trial_8.png","","","",""
"html-keyboard-response","211","430264","0.0-87.0-2.0","","null","","null","delaylearn","learning","feedback_duration_window","59d6165050f88f000161e951","6kIWV1LxsNQA8jNoRleif5qEORC2","","","","","","","","","","","","","","","","","","750","","",""
"html-keyboard-response","212","431772","0.0-87.0-3.0","","null","<div style='margin:auto;width: auto; font-size: 150%'><span style='font-weight: bold; font-size: 100px; color: green;'>+10 points!</span><br><br></div>","null","delaylearn","learning","feedback_image_window","59d6165050f88f000161e951","6kIWV1LxsNQA8jNoRleif5qEORC2","","","","","","","","","","","","","","","","","","","","",""
"html-keyboard-response","213","433355","0.0-88.0","","null","<div style=""font-size:100px;"">+</div>","null","delaylearn","learning","ITI","59d6165050f88f000161e951","6kIWV1LxsNQA8jNoRleif5qEORC2","","","","","","","","","","","","","","","","","","","1573","",""
"html-keyboard-response","214","434785","0.0-89.0-0.0","","1424.1000000238419","<div style=""display: flex; flex-direction: column; align-items: center; margin-top: -40px;""><img src=""images/pattern_1.png"" style=""width: 234px; height: 230px; margin-top: -50px;""><div style=""display: flex; justify-content: space-between; margin-top: 33px;""><img src=""images/choice_trial_6.png"" style=""width: 408px; height: 417px; margin-right: 200px;""><img src=""images/choice_trial_15.png"" style=""width: 408px; height: 417px;""></div></div>","j","delaylearn","learning","trial","59d6165050f88f000161e951","6kIWV1LxsNQA8jNoRleif5qEORC2","5","images/choice_trial_6.png","images/choice_trial_15.png","images/pattern_1.png","f","f","7000","6","15","1","0","39","0","0","15","260","","","","",""
"html-keyboard-response","215","435790","0.0-89.0-1.0","","null","<div style=""display: flex; flex-direction: column; align-items: center; margin-top: -40px;""><img src=""images/pattern_1.png"" style=""width: 234px; height: 230px; margin-top: -50px;""><div style=""display: flex; justify-content: space-between; margin-top: 33px;""><img src=""images/choice_trial_15.png"" style=""width: 408px; height: 417px; margin-left:608px;""></div></div>","null","delaylearn","learning","display_response","59d6165050f88f000161e951","6kIWV1LxsNQA8jNoRleif5qEORC2","","","","","","","","","","","","","","","","","chosen stimuli: images/choice_trial_15.png","","","",""
"html-keyboard-response","216","442806","0.0-89.0-2.0","","null","","null","delaylearn","learning","feedback_duration_window","59d6165050f88f000161e951","6kIWV1LxsNQA8jNoRleif5qEORC2","","","","","","","","","","","","","","","","","","7000","","",""
"html-keyboard-response","217","444316","0.0-89.0-3.0","","null","<div style='margin:auto;width: auto; font-size: 150%'><span style='font-weight: bold; font-size: 100px; color: red;'>0 points!</span><br><br></div>","null","delaylearn","learning","feedback_image_window","59d6165050f88f000161e951","6kIWV1LxsNQA8jNoRleif5qEORC2","","","","","","","","","","","","","","","","","","","","",""
"html-keyboard-response","218","444826","0.0-90.0-0.0","","null","","null","","","mood_trial_fixation","","","","","","","","","","","","","","","","","","","","","","",""
"lmdlab-html-vas-response","219","448951","0.0-90.0-1.0","","3111","How happy are you right now?","0.3977864278258134","delaylearn","learning","mood_trial","59d6165050f88f000161e951","6kIWV1LxsNQA8jNoRleif5qEORC2","","","","","","","","","","","","","","","","","","","","[""Very unhappy"",""Very happy""]",""
"html-keyboard-response","220","451048","0.0-91.0","","null","<div style=""font-size:100px;"">+</div>","null","delaylearn","learning","ITI","59d6165050f88f000161e951","6kIWV1LxsNQA8jNoRleif5qEORC2","","","","","","","","","","","","","","","","","","","2091","",""
