"trial_type","trial_index","time_elapsed","internal_node_id","participant","rt","stimulus","response","exp_name","exp_stage","test_part","subjectID","databaseID","counterbal","choice_stimuli_1","choice_stimuli_2","pattern_stimuli","rewarded_answer","correct_answer","feedback_duration_times","stim_left","stim_right","pair","leftright_counter","trial","response_correct","response_rewarded","chosen_stim","counter","displayed_choice","feedback_durations","ITI_duration","labels","rest_warning"
"pavlovia","0","443","0.0-0.0","","","","","","","","","","","","","","","","","","","","","","","","","","","","","",""
"html-keyboard-response","1","3447","0.0-1.0","","null","<div style=""font-size:100px;"">+</div>","null","delaylearn","learning","pre_fixation","657868411a3b07f7123686cf","","","","","","","","","","","","","","","","","","","","","",""
"html-keyboard-response","2","4373","0.0-2.0-0.0","","921.5999999046326","<div style=""display: flex; flex-direction: column; align-items: center; margin-top: -40px;""><img src=""images/demo_images/pattern_1.png"" style=""width: 234px; height: 230px; margin-top: -50px;""><div style=""display: flex; justify-content: space-between; margin-top: 33px;""><img src=""images/demo_images/choice_trial_2.png"" style=""width: 408px; height: 417px; margin-right: 200px;""><img src=""images/demo_images/choice_trial_1.png"" style=""width: 408px; height: 417px;""></div></div>","j","delaylearn","learning","trial","657868411a3b07f7123686cf","DjPbuBrcTmZ5SMfUDNNuQkfTjFt2","3","images/demo_images/choice_trial_2.png","images/demo_images/choice_trial_1.png","images/demo_images/pattern_1.png","j","j","3000","2","1","20","1","1","1","1","1","10","","","","",""
"html-keyboard-response","3","5380","0.0-2.0-1.0","","null","<div style=""display: flex; flex-direction: column; align-items: center; margin-top: -40px;""><img src=""images/demo_images/pattern_1.png"" style=""width: 234px; height: 230px; margin-top: -50px;""><div style=""display: flex; justify-content: space-between; margin-top: 33px;""><img src=""images/demo_images/choice_trial_1.png"" style=""width: 408px; height: 417px; margin-left:608px;""></div></div>","null","delaylearn","learning","display_response","657868411a3b07f7123686cf","DjPbuBrcTmZ5SMfUDNNuQkfTjFt2","","","","","","","","","","","","","","","","","chosen stimuli: images/demo_images/choice_trial_1.png","","","",""
"html-keyboard-response","4","8394","0.0-2.0-2.0","","null","","null","delaylearn","learning","feedback_duration_window","657868411a3b07f7123686cf","DjPbuBrcTmZ5SMfUDNNuQkfTjFt2","","","","","","","","","","","","","","","","","","3000","","",""
"html-keyboard-response","5","9907","0.0-2.0-3.0","","null","<div style='margin:auto;width: auto; font-size: 150%'><span style='font-weight: bold; font-size: 100px; color: green;'>+10 points!</span><br><br></div>","null","delaylearn","learning","feedback_image_window","657868411a3b07f7123686cf","DjPbuBrcTmZ5SMfUDNNuQkfTjFt2","","","","","","","","","","","","","","","","","","","","",""
"html-keyboard-response","6","11574","0.0-3.0","","null","<div style=""font-size:100px;"">+</div>","null","delaylearn","learning","ITI","657868411a3b07f7123686cf","DjPbuBrcTmZ5SMfUDNNuQkfTjFt2","","","","","","","","","","","","","","","","","","","1656","",""
"html-keyboard-response","7","12018","0.0-4.0-0.0","","439.7999997138977","<div style=""display: flex; flex-direction: column; align-items: center; margin-top: -40px;""><img src=""images/demo_images/pattern_1.png"" style=""width: 234px; height: 230px; margin-top: -50px;""><div style=""display: flex; justify-content: space-between; margin-top: 33px;""><img src=""images/demo_images/choice_trial_2.png"" style=""width: 408px; height: 417px; margin-right: 200px;""><img src=""images/demo_images/choice_trial_1.png"" style=""width: 408px; height: 417px;""></div></div>","j","delaylearn","learning","trial","657868411a3b07f7123686cf","DjPbuBrcTmZ5SMfUDNNuQkfTjFt2","3","images/demo_images/choice_trial_2.png","images/demo_images/choice_trial_1.png","images/demo_images/pattern_1.png","j","j","3000","2","1","20","1","2","1","1","1","20","","","","",""
"html-keyboard-response","8","13025","0.0-4.0-1.0","","null","<div style=""display: flex; flex-direction: column; align-items: center; margin-top: -40px;""><img src=""images/demo_images/pattern_1.png"" style=""width: 234px; height: 230px; margin-top: -50px;""><div style=""display: flex; justify-content: space-between; margin-top: 33px;""><img src=""images/demo_images/choice_trial_1.png"" style=""width: 408px; height: 417px; margin-left:608px;""></div></div>","null","delaylearn","learning","display_response","657868411a3b07f7123686cf","DjPbuBrcTmZ5SMfUDNNuQkfTjFt2","","","","","","","","","","","","","","","","","chosen stimuli: images/demo_images/choice_trial_1.png","","","",""
"html-keyboard-response","9","16030","0.0-4.0-2.0","","null","","null","delaylearn","learning","feedback_duration_window","657868411a3b07f7123686cf","DjPbuBrcTmZ5SMfUDNNuQkfTjFt2","","","","","","","","","","","","","","","","","","3000","","",""
"html-keyboard-response","10","17544","0.0-4.0-3.0","","null","<div style='margin:auto;width: auto; font-size: 150%'><span style='font-weight: bold; font-size: 100px; color: green;'>+10 points!</span><br><br></div>","null","delaylearn","learning","feedback_image_window","657868411a3b07f7123686cf","DjPbuBrcTmZ5SMfUDNNuQkfTjFt2","","","","","","","","","","","","","","","","","","","","",""
"html-keyboard-response","11","20049","0.0-5.0","","null","<div style=""font-size:100px;"">+</div>","null","delaylearn","learning","ITI","657868411a3b07f7123686cf","DjPbuBrcTmZ5SMfUDNNuQkfTjFt2","","","","","","","","","","","","","","","","","","","2486","",""
"html-keyboard-response","12","20725","0.0-6.0-0.0","","673.6999998092651","<div style=""display: flex; flex-direction: column; align-items: center; margin-top: -40px;""><img src=""images/demo_images/pattern_1.png"" style=""width: 234px; height: 230px; margin-top: -50px;""><div style=""display: flex; justify-content: space-between; margin-top: 33px;""><img src=""images/demo_images/choice_trial_1.png"" style=""width: 408px; height: 417px; margin-right: 200px;""><img src=""images/demo_images/choice_trial_2.png"" style=""width: 408px; height: 417px;""></div></div>","f","delaylearn","learning","trial","657868411a3b07f7123686cf","DjPbuBrcTmZ5SMfUDNNuQkfTjFt2","3","images/demo_images/choice_trial_1.png","images/demo_images/choice_trial_2.png","images/demo_images/pattern_1.png","j","f","3000","1","2","20","0","3","1","0","1","20","","","","",""
"html-keyboard-response","13","21737","0.0-6.0-1.0","","null","<div style=""display: flex; flex-direction: column; align-items: center; margin-top: -40px;""><img src=""images/demo_images/pattern_1.png"" style=""width: 234px; height: 230px; margin-top: -50px;""><div style=""display: flex; justify-content: space-between; margin-top: 33px;""><img src=""images/demo_images/choice_trial_1.png"" style=""width: 408px; height: 417px; margin-right: 608px;""></div></div>","null","delaylearn","learning","display_response","657868411a3b07f7123686cf","DjPbuBrcTmZ5SMfUDNNuQkfTjFt2","","","","","","","","","","","","","","","","","chosen stimuli: images/demo_images/choice_trial_1.png","","","",""
"html-keyboard-response","14","24744","0.0-6.0-2.0","","null","","null","delaylearn","learning","feedback_duration_window","657868411a3b07f7123686cf","DjPbuBrcTmZ5SMfUDNNuQkfTjFt2","","","","","","","","","","","","","","","","","","3000","","",""
"html-keyboard-response","15","26251","0.0-6.0-3.0","","null","<div style='margin:auto;width: auto; font-size: 150%'><span style='font-weight: bold; font-size: 100px; color: red;'>0 points!</span><br><br></div>","null","delaylearn","learning","feedback_image_window","657868411a3b07f7123686cf","DjPbuBrcTmZ5SMfUDNNuQkfTjFt2","","","","","","","","","","","","","","","","","","","","",""
"html-keyboard-response","16","28510","0.0-7.0","","null","<div style=""font-size:100px;"">+</div>","null","delaylearn","learning","ITI","657868411a3b07f7123686cf","DjPbuBrcTmZ5SMfUDNNuQkfTjFt2","","","","","","","","","","","","","","","","","","","2253","",""
"html-keyboard-response","17","29105","0.0-8.0-0.0","","592.5","<div style=""display: flex; flex-direction: column; align-items: center; margin-top: -40px;""><img src=""images/demo_images/pattern_1.png"" style=""width: 234px; height: 230px; margin-top: -50px;""><div style=""display: flex; justify-content: space-between; margin-top: 33px;""><img src=""images/demo_images/choice_trial_1.png"" style=""width: 408px; height: 417px; margin-right: 200px;""><img src=""images/demo_images/choice_trial_2.png"" style=""width: 408px; height: 417px;""></div></div>","j","delaylearn","learning","trial","657868411a3b07f7123686cf","DjPbuBrcTmZ5SMfUDNNuQkfTjFt2","3","images/demo_images/choice_trial_1.png","images/demo_images/choice_trial_2.png","images/demo_images/pattern_1.png","f","f","3000","1","2","20","0","4","0","0","2","20","","","","",""
"html-keyboard-response","18","30115","0.0-8.0-1.0","","null","<div style=""display: flex; flex-direction: column; align-items: center; margin-top: -40px;""><img src=""images/demo_images/pattern_1.png"" style=""width: 234px; height: 230px; margin-top: -50px;""><div style=""display: flex; justify-content: space-between; margin-top: 33px;""><img src=""images/demo_images/choice_trial_2.png"" style=""width: 408px; height: 417px; margin-left:608px;""></div></div>","null","delaylearn","learning","display_response","657868411a3b07f7123686cf","DjPbuBrcTmZ5SMfUDNNuQkfTjFt2","","","","","","","","","","","","","","","","","chosen stimuli: images/demo_images/choice_trial_2.png","","","",""
"html-keyboard-response","19","33129","0.0-8.0-2.0","","null","","null","delaylearn","learning","feedback_duration_window","657868411a3b07f7123686cf","DjPbuBrcTmZ5SMfUDNNuQkfTjFt2","","","","","","","","","","","","","","","","","","3000","","",""
"html-keyboard-response","20","34632","0.0-8.0-3.0","","null","<div style='margin:auto;width: auto; font-size: 150%'><span style='font-weight: bold; font-size: 100px; color: red;'>0 points!</span><br><br></div>","null","delaylearn","learning","feedback_image_window","657868411a3b07f7123686cf","DjPbuBrcTmZ5SMfUDNNuQkfTjFt2","","","","","","","","","","","","","","","","","","","","",""
"html-keyboard-response","21","35141","0.0-9.0-0.0","","null","","null","","","mood_trial_fixation","","","","","","","","","","","","","","","","","","","","","","",""
"lmdlab-html-vas-response","22","39767","0.0-9.0-1.0","","3604","How happy are you right now?","0.19727372142112357","delaylearn","learning","mood_trial","657868411a3b07f7123686cf","DjPbuBrcTmZ5SMfUDNNuQkfTjFt2","","","","","","","","","","","","","","","","","","","","[""Very unhappy"",""Very happy""]",""
"html-keyboard-response","23","41995","0.0-10.0","","null","<div style=""font-size:100px;"">+</div>","null","delaylearn","learning","ITI","657868411a3b07f7123686cf","DjPbuBrcTmZ5SMfUDNNuQkfTjFt2","","","","","","","","","","","","","","","","","","","2222","",""
"html-keyboard-response","24","42588","0.0-11.0-0.0","","589.3999996185303","<div style=""display: flex; flex-direction: column; align-items: center; margin-top: -40px;""><img src=""images/demo_images/pattern_1.png"" style=""width: 234px; height: 230px; margin-top: -50px;""><div style=""display: flex; justify-content: space-between; margin-top: 33px;""><img src=""images/demo_images/choice_trial_2.png"" style=""width: 408px; height: 417px; margin-right: 200px;""><img src=""images/demo_images/choice_trial_1.png"" style=""width: 408px; height: 417px;""></div></div>","f","delaylearn","learning","trial","657868411a3b07f7123686cf","DjPbuBrcTmZ5SMfUDNNuQkfTjFt2","3","images/demo_images/choice_trial_2.png","images/demo_images/choice_trial_1.png","images/demo_images/pattern_1.png","j","j","3000","2","1","20","1","5","0","0","2","20","","","","",""
"html-keyboard-response","25","43600","0.0-11.0-1.0","","null","<div style=""display: flex; flex-direction: column; align-items: center; margin-top: -40px;""><img src=""images/demo_images/pattern_1.png"" style=""width: 234px; height: 230px; margin-top: -50px;""><div style=""display: flex; justify-content: space-between; margin-top: 33px;""><img src=""images/demo_images/choice_trial_2.png"" style=""width: 408px; height: 417px; margin-right: 608px;""></div></div>","null","delaylearn","learning","display_response","657868411a3b07f7123686cf","DjPbuBrcTmZ5SMfUDNNuQkfTjFt2","","","","","","","","","","","","","","","","","chosen stimuli: images/demo_images/choice_trial_2.png","","","",""
"html-keyboard-response","26","46612","0.0-11.0-2.0","","null","","null","delaylearn","learning","feedback_duration_window","657868411a3b07f7123686cf","DjPbuBrcTmZ5SMfUDNNuQkfTjFt2","","","","","","","","","","","","","","","","","","3000","","",""
"html-keyboard-response","27","48119","0.0-11.0-3.0","","null","<div style='margin:auto;width: auto; font-size: 150%'><span style='font-weight: bold; font-size: 100px; color: red;'>0 points!</span><br><br></div>","null","delaylearn","learning","feedback_image_window","657868411a3b07f7123686cf","DjPbuBrcTmZ5SMfUDNNuQkfTjFt2","","","","","","","","","","","","","","","","","","","","",""
"html-keyboard-response","28","50130","0.0-12.0","","null","<div style=""font-size:100px;"">+</div>","null","delaylearn","learning","ITI","657868411a3b07f7123686cf","DjPbuBrcTmZ5SMfUDNNuQkfTjFt2","","","","","","","","","","","","","","","","","","","2003","",""
"html-keyboard-response","29","50677","0.0-13.0-0.0","","542.5","<div style=""display: flex; flex-direction: column; align-items: center; margin-top: -40px;""><img src=""images/demo_images/pattern_1.png"" style=""width: 234px; height: 230px; margin-top: -50px;""><div style=""display: flex; justify-content: space-between; margin-top: 33px;""><img src=""images/demo_images/choice_trial_1.png"" style=""width: 408px; height: 417px; margin-right: 200px;""><img src=""images/demo_images/choice_trial_2.png"" style=""width: 408px; height: 417px;""></div></div>","j","delaylearn","learning","trial","657868411a3b07f7123686cf","DjPbuBrcTmZ5SMfUDNNuQkfTjFt2","3","images/demo_images/choice_trial_1.png","images/demo_images/choice_trial_2.png","images/demo_images/pattern_1.png","f","f","3000","1","2","20","0","6","0","0","2","20","","","","",""
"html-keyboard-response","30","51696","0.0-13.0-1.0","","null","<div style=""display: flex; flex-direction: column; align-items: center; margin-top: -40px;""><img src=""images/demo_images/pattern_1.png"" style=""width: 234px; height: 230px; margin-top: -50px;""><div style=""display: flex; justify-content: space-between; margin-top: 33px;""><img src=""images/demo_images/choice_trial_2.png"" style=""width: 408px; height: 417px; margin-left:608px;""></div></div>","null","delaylearn","learning","display_response","657868411a3b07f7123686cf","DjPbuBrcTmZ5SMfUDNNuQkfTjFt2","","","","","","","","","","","","","","","","","chosen stimuli: images/demo_images/choice_trial_2.png","","","",""
"html-keyboard-response","31","54713","0.0-13.0-2.0","","null","","null","delaylearn","learning","feedback_duration_window","657868411a3b07f7123686cf","DjPbuBrcTmZ5SMfUDNNuQkfTjFt2","","","","","","","","","","","","","","","","","","3000","","",""
"html-keyboard-response","32","56221","0.0-13.0-3.0","","null","<div style='margin:auto;width: auto; font-size: 150%'><span style='font-weight: bold; font-size: 100px; color: red;'>0 points!</span><br><br></div>","null","delaylearn","learning","feedback_image_window","657868411a3b07f7123686cf","DjPbuBrcTmZ5SMfUDNNuQkfTjFt2","","","","","","","","","","","","","","","","","","","","",""
"html-keyboard-response","33","58493","0.0-14.0","","null","<div style=""font-size:100px;"">+</div>","null","delaylearn","learning","ITI","657868411a3b07f7123686cf","DjPbuBrcTmZ5SMfUDNNuQkfTjFt2","","","","","","","","","","","","","","","","","","","2268","",""
"html-keyboard-response","34","59005","0.0-15.0-0.0","","509.09999990463257","<div style=""display: flex; flex-direction: column; align-items: center; margin-top: -40px;""><img src=""images/demo_images/pattern_1.png"" style=""width: 234px; height: 230px; margin-top: -50px;""><div style=""display: flex; justify-content: space-between; margin-top: 33px;""><img src=""images/demo_images/choice_trial_2.png"" style=""width: 408px; height: 417px; margin-right: 200px;""><img src=""images/demo_images/choice_trial_1.png"" style=""width: 408px; height: 417px;""></div></div>","j","delaylearn","learning","trial","657868411a3b07f7123686cf","DjPbuBrcTmZ5SMfUDNNuQkfTjFt2","3","images/demo_images/choice_trial_2.png","images/demo_images/choice_trial_1.png","images/demo_images/pattern_1.png","j","j","3000","2","1","20","1","7","1","1","1","30","","","","",""
"html-keyboard-response","35","60019","0.0-15.0-1.0","","null","<div style=""display: flex; flex-direction: column; align-items: center; margin-top: -40px;""><img src=""images/demo_images/pattern_1.png"" style=""width: 234px; height: 230px; margin-top: -50px;""><div style=""display: flex; justify-content: space-between; margin-top: 33px;""><img src=""images/demo_images/choice_trial_1.png"" style=""width: 408px; height: 417px; margin-left:608px;""></div></div>","null","delaylearn","learning","display_response","657868411a3b07f7123686cf","DjPbuBrcTmZ5SMfUDNNuQkfTjFt2","","","","","","","","","","","","","","","","","chosen stimuli: images/demo_images/choice_trial_1.png","","","",""
"html-keyboard-response","36","63021","0.0-15.0-2.0","","null","","null","delaylearn","learning","feedback_duration_window","657868411a3b07f7123686cf","DjPbuBrcTmZ5SMfUDNNuQkfTjFt2","","","","","","","","","","","","","","","","","","3000","","",""
"html-keyboard-response","37","64536","0.0-15.0-3.0","","null","<div style='margin:auto;width: auto; font-size: 150%'><span style='font-weight: bold; font-size: 100px; color: green;'>+10 points!</span><br><br></div>","null","delaylearn","learning","feedback_image_window","657868411a3b07f7123686cf","DjPbuBrcTmZ5SMfUDNNuQkfTjFt2","","","","","","","","","","","","","","","","","","","","",""
"html-keyboard-response","38","66261","0.0-16.0","","null","<div style=""font-size:100px;"">+</div>","null","delaylearn","learning","ITI","657868411a3b07f7123686cf","DjPbuBrcTmZ5SMfUDNNuQkfTjFt2","","","","","","","","","","","","","","","","","","","1721","",""
"html-keyboard-response","39","68205","0.0-17.0-0.0","","1939.3000001907349","<div style=""display: flex; flex-direction: column; align-items: center; margin-top: -40px;""><img src=""images/demo_images/pattern_1.png"" style=""width: 234px; height: 230px; margin-top: -50px;""><div style=""display: flex; justify-content: space-between; margin-top: 33px;""><img src=""images/demo_images/choice_trial_1.png"" style=""width: 408px; height: 417px; margin-right: 200px;""><img src=""images/demo_images/choice_trial_2.png"" style=""width: 408px; height: 417px;""></div></div>","j","delaylearn","learning","trial","657868411a3b07f7123686cf","DjPbuBrcTmZ5SMfUDNNuQkfTjFt2","3","images/demo_images/choice_trial_1.png","images/demo_images/choice_trial_2.png","images/demo_images/pattern_1.png","f","f","3000","1","2","20","0","8","0","0","2","30","","","","",""
"html-keyboard-response","40","69222","0.0-17.0-1.0","","null","<div style=""display: flex; flex-direction: column; align-items: center; margin-top: -40px;""><img src=""images/demo_images/pattern_1.png"" style=""width: 234px; height: 230px; margin-top: -50px;""><div style=""display: flex; justify-content: space-between; margin-top: 33px;""><img src=""images/demo_images/choice_trial_2.png"" style=""width: 408px; height: 417px; margin-left:608px;""></div></div>","null","delaylearn","learning","display_response","657868411a3b07f7123686cf","DjPbuBrcTmZ5SMfUDNNuQkfTjFt2","","","","","","","","","","","","","","","","","chosen stimuli: images/demo_images/choice_trial_2.png","","","",""
"html-keyboard-response","41","72233","0.0-17.0-2.0","","null","","null","delaylearn","learning","feedback_duration_window","657868411a3b07f7123686cf","DjPbuBrcTmZ5SMfUDNNuQkfTjFt2","","","","","","","","","","","","","","","","","","3000","","",""
"html-keyboard-response","42","73738","0.0-17.0-3.0","","null","<div style='margin:auto;width: auto; font-size: 150%'><span style='font-weight: bold; font-size: 100px; color: red;'>0 points!</span><br><br></div>","null","delaylearn","learning","feedback_image_window","657868411a3b07f7123686cf","DjPbuBrcTmZ5SMfUDNNuQkfTjFt2","","","","","","","","","","","","","","","","","","","","",""
"html-button-response","43","76820","0.0-18.0","","3079","
  <div style=""display: flex; align-items: center; justify-content: center; height: 80vh;"">
  <div>
          <img src=""images/inst_demo_finish.png"" style=""width: 80vw; height:auto;"">
          <br><br>
      </div>
      <br><br>
  </div>","0","","","","","","","","","","","","","","","","","","","","","","","","","",""
"html-keyboard-response","44","80585","0.0-19.0","","3763.199999809265","
  <div style=""display: flex; align-items: center; justify-content: center; height: 80vh;"">
  <div>
          <img src=""images/inst_6.png"" style=""width: 80vw; height:auto;"">
          <br><br>
      </div>
      <br><br>
  </div>","f","","","","","","","","","","","","","","","","","","","","","","","","","",""
"html-keyboard-response","45","83590","0.0-20.0","","null","<div style=""font-size:100px;"">+</div>","null","delaylearn","learning","pre_fixation","657868411a3b07f7123686cf","","","","","","","","","","","","","","","","","","","","","",""
"html-keyboard-response","46","86095","0.0-21.0","","null","<div style=""font-size:100px;"">+</div>","null","delaylearn","learning","ITI","657868411a3b07f7123686cf","DjPbuBrcTmZ5SMfUDNNuQkfTjFt2","","","","","","","","","","","","","","","","","","","2492","",""
"html-keyboard-response","47","88989","0.0-22.0-0.0","","2890.5999999046326","<div style=""display: flex; flex-direction: column; align-items: center; margin-top: -40px;""><img src=""images/pattern_3.png"" style=""width: 234px; height: 230px; margin-top: -50px;""><div style=""display: flex; justify-content: space-between; margin-top: 33px;""><img src=""images/choice_trial_13.png"" style=""width: 408px; height: 417px; margin-right: 200px;""><img src=""images/choice_trial_10.png"" style=""width: 408px; height: 417px;""></div></div>","j","delaylearn","learning","trial","657868411a3b07f7123686cf","DjPbuBrcTmZ5SMfUDNNuQkfTjFt2","3","images/choice_trial_13.png","images/choice_trial_10.png","images/pattern_3.png","f","f","7000","13","10","2","0","9","0","0","10","30","","","","",""
"html-keyboard-response","48","90001","0.0-22.0-1.0","","null","<div style=""display: flex; flex-direction: column; align-items: center; margin-top: -40px;""><img src=""images/pattern_3.png"" style=""width: 234px; height: 230px; margin-top: -50px;""><div style=""display: flex; justify-content: space-between; margin-top: 33px;""><img src=""images/choice_trial_10.png"" style=""width: 408px; height: 417px; margin-left:608px;""></div></div>","null","delaylearn","learning","display_response","657868411a3b07f7123686cf","DjPbuBrcTmZ5SMfUDNNuQkfTjFt2","","","","","","","","","","","","","","","","","chosen stimuli: images/choice_trial_10.png","","","",""
"html-keyboard-response","49","97009","0.0-22.0-2.0","","null","","null","delaylearn","learning","feedback_duration_window","657868411a3b07f7123686cf","DjPbuBrcTmZ5SMfUDNNuQkfTjFt2","","","","","","","","","","","","","","","","","","7000","","",""
"html-keyboard-response","50","98519","0.0-22.0-3.0","","null","<div style='margin:auto;width: auto; font-size: 150%'><span style='font-weight: bold; font-size: 100px; color: red;'>0 points!</span><br><br></div>","null","delaylearn","learning","feedback_image_window","657868411a3b07f7123686cf","DjPbuBrcTmZ5SMfUDNNuQkfTjFt2","","","","","","","","","","","","","","","","","","","","",""
"html-keyboard-response","51","100462","0.0-23.0","","null","<div style=""font-size:100px;"">+</div>","null","delaylearn","learning","ITI","657868411a3b07f7123686cf","DjPbuBrcTmZ5SMfUDNNuQkfTjFt2","","","","","","","","","","","","","","","","","","","1931","",""
"html-keyboard-response","52","101387","0.0-24.0-0.0","","921.6999998092651","<div style=""display: flex; flex-direction: column; align-items: center; margin-top: -40px;""><img src=""images/pattern_7.png"" style=""width: 234px; height: 230px; margin-top: -50px;""><div style=""display: flex; justify-content: space-between; margin-top: 33px;""><img src=""images/choice_trial_12.png"" style=""width: 408px; height: 417px; margin-right: 200px;""><img src=""images/choice_trial_6.png"" style=""width: 408px; height: 417px;""></div></div>","f","delaylearn","learning","trial","657868411a3b07f7123686cf","DjPbuBrcTmZ5SMfUDNNuQkfTjFt2","3","images/choice_trial_12.png","images/choice_trial_6.png","images/pattern_7.png","j","j","750","12","6","6","1","10","0","0","12","30","","","","",""
"html-keyboard-response","53","102400","0.0-24.0-1.0","","null","<div style=""display: flex; flex-direction: column; align-items: center; margin-top: -40px;""><img src=""images/pattern_7.png"" style=""width: 234px; height: 230px; margin-top: -50px;""><div style=""display: flex; justify-content: space-between; margin-top: 33px;""><img src=""images/choice_trial_12.png"" style=""width: 408px; height: 417px; margin-right: 608px;""></div></div>","null","delaylearn","learning","display_response","657868411a3b07f7123686cf","DjPbuBrcTmZ5SMfUDNNuQkfTjFt2","","","","","","","","","","","","","","","","","chosen stimuli: images/choice_trial_12.png","","","",""
"html-keyboard-response","54","103163","0.0-24.0-2.0","","null","","null","delaylearn","learning","feedback_duration_window","657868411a3b07f7123686cf","DjPbuBrcTmZ5SMfUDNNuQkfTjFt2","","","","","","","","","","","","","","","","","","750","","",""
"html-keyboard-response","55","104676","0.0-24.0-3.0","","null","<div style='margin:auto;width: auto; font-size: 150%'><span style='font-weight: bold; font-size: 100px; color: red;'>0 points!</span><br><br></div>","null","delaylearn","learning","feedback_image_window","657868411a3b07f7123686cf","DjPbuBrcTmZ5SMfUDNNuQkfTjFt2","","","","","","","","","","","","","","","","","","","","",""
"html-keyboard-response","56","106427","0.0-25.0","","null","<div style=""font-size:100px;"">+</div>","null","delaylearn","learning","ITI","657868411a3b07f7123686cf","DjPbuBrcTmZ5SMfUDNNuQkfTjFt2","","","","","","","","","","","","","","","","","","","1744","",""
"html-keyboard-response","57","108652","0.0-26.0-0.0","","2220.7000002861023","<div style=""display: flex; flex-direction: column; align-items: center; margin-top: -40px;""><img src=""images/pattern_4.png"" style=""width: 234px; height: 230px; margin-top: -50px;""><div style=""display: flex; justify-content: space-between; margin-top: 33px;""><img src=""images/choice_trial_15.png"" style=""width: 408px; height: 417px; margin-right: 200px;""><img src=""images/choice_trial_9.png"" style=""width: 408px; height: 417px;""></div></div>","f","delaylearn","learning","trial","657868411a3b07f7123686cf","DjPbuBrcTmZ5SMfUDNNuQkfTjFt2","3","images/choice_trial_15.png","images/choice_trial_9.png","images/pattern_4.png","f","f","7000","15","9","3","0","11","1","1","15","40","","","","",""
"html-keyboard-response","58","109664","0.0-26.0-1.0","","null","<div style=""display: flex; flex-direction: column; align-items: center; margin-top: -40px;""><img src=""images/pattern_4.png"" style=""width: 234px; height: 230px; margin-top: -50px;""><div style=""display: flex; justify-content: space-between; margin-top: 33px;""><img src=""images/choice_trial_15.png"" style=""width: 408px; height: 417px; margin-right: 608px;""></div></div>","null","delaylearn","learning","display_response","657868411a3b07f7123686cf","DjPbuBrcTmZ5SMfUDNNuQkfTjFt2","","","","","","","","","","","","","","","","","chosen stimuli: images/choice_trial_15.png","","","",""
"html-keyboard-response","59","116673","0.0-26.0-2.0","","null","","null","delaylearn","learning","feedback_duration_window","657868411a3b07f7123686cf","DjPbuBrcTmZ5SMfUDNNuQkfTjFt2","","","","","","","","","","","","","","","","","","7000","","",""
"html-keyboard-response","60","118179","0.0-26.0-3.0","","null","<div style='margin:auto;width: auto; font-size: 150%'><span style='font-weight: bold; font-size: 100px; color: green;'>+10 points!</span><br><br></div>","null","delaylearn","learning","feedback_image_window","657868411a3b07f7123686cf","DjPbuBrcTmZ5SMfUDNNuQkfTjFt2","","","","","","","","","","","","","","","","","","","","",""
"html-keyboard-response","61","120178","0.0-27.0","","null","<div style=""font-size:100px;"">+</div>","null","delaylearn","learning","ITI","657868411a3b07f7123686cf","DjPbuBrcTmZ5SMfUDNNuQkfTjFt2","","","","","","","","","","","","","","","","","","","1994","",""
"html-keyboard-response","62","121435","0.0-28.0-0.0","","1253.4000000953674","<div style=""display: flex; flex-direction: column; align-items: center; margin-top: -40px;""><img src=""images/pattern_5.png"" style=""width: 234px; height: 230px; margin-top: -50px;""><div style=""display: flex; justify-content: space-between; margin-top: 33px;""><img src=""images/choice_trial_2.png"" style=""width: 408px; height: 417px; margin-right: 200px;""><img src=""images/choice_trial_11.png"" style=""width: 408px; height: 417px;""></div></div>","f","delaylearn","learning","trial","657868411a3b07f7123686cf","DjPbuBrcTmZ5SMfUDNNuQkfTjFt2","3","images/choice_trial_2.png","images/choice_trial_11.png","images/pattern_5.png","j","j","750","2","11","4","1","12","0","0","2","40","","","","",""
"html-keyboard-response","63","122451","0.0-28.0-1.0","","null","<div style=""display: flex; flex-direction: column; align-items: center; margin-top: -40px;""><img src=""images/pattern_5.png"" style=""width: 234px; height: 230px; margin-top: -50px;""><div style=""display: flex; justify-content: space-between; margin-top: 33px;""><img src=""images/choice_trial_2.png"" style=""width: 408px; height: 417px; margin-right: 608px;""></div></div>","null","delaylearn","learning","display_response","657868411a3b07f7123686cf","DjPbuBrcTmZ5SMfUDNNuQkfTjFt2","","","","","","","","","","","","","","","","","chosen stimuli: images/choice_trial_2.png","","","",""
"html-keyboard-response","64","123213","0.0-28.0-2.0","","null","","null","delaylearn","learning","feedback_duration_window","657868411a3b07f7123686cf","DjPbuBrcTmZ5SMfUDNNuQkfTjFt2","","","","","","","","","","","","","","","","","","750","","",""
"html-keyboard-response","65","124724","0.0-28.0-3.0","","null","<div style='margin:auto;width: auto; font-size: 150%'><span style='font-weight: bold; font-size: 100px; color: red;'>0 points!</span><br><br></div>","null","delaylearn","learning","feedback_image_window","657868411a3b07f7123686cf","DjPbuBrcTmZ5SMfUDNNuQkfTjFt2","","","","","","","","","","","","","","","","","","","","",""
"html-keyboard-response","66","126456","0.0-29.0","","null","<div style=""font-size:100px;"">+</div>","null","delaylearn","learning","ITI","657868411a3b07f7123686cf","DjPbuBrcTmZ5SMfUDNNuQkfTjFt2","","","","","","","","","","","","","","","","","","","1727","",""
"html-keyboard-response","67","129211","0.0-30.0-0.0","","2752","<div style=""display: flex; flex-direction: column; align-items: center; margin-top: -40px;""><img src=""images/pattern_6.png"" style=""width: 234px; height: 230px; margin-top: -50px;""><div style=""display: flex; justify-content: space-between; margin-top: 33px;""><img src=""images/choice_trial_16.png"" style=""width: 408px; height: 417px; margin-right: 200px;""><img src=""images/choice_trial_3.png"" style=""width: 408px; height: 417px;""></div></div>","j","delaylearn","learning","trial","657868411a3b07f7123686cf","DjPbuBrcTmZ5SMfUDNNuQkfTjFt2","3","images/choice_trial_16.png","images/choice_trial_3.png","images/pattern_6.png","j","f","750","16","3","5","0","13","0","1","3","50","","","","",""
"html-keyboard-response","68","130218","0.0-30.0-1.0","","null","<div style=""display: flex; flex-direction: column; align-items: center; margin-top: -40px;""><img src=""images/pattern_6.png"" style=""width: 234px; height: 230px; margin-top: -50px;""><div style=""display: flex; justify-content: space-between; margin-top: 33px;""><img src=""images/choice_trial_3.png"" style=""width: 408px; height: 417px; margin-left:608px;""></div></div>","null","delaylearn","learning","display_response","657868411a3b07f7123686cf","DjPbuBrcTmZ5SMfUDNNuQkfTjFt2","","","","","","","","","","","","","","","","","chosen stimuli: images/choice_trial_3.png","","","",""
"html-keyboard-response","69","130982","0.0-30.0-2.0","","null","","null","delaylearn","learning","feedback_duration_window","657868411a3b07f7123686cf","DjPbuBrcTmZ5SMfUDNNuQkfTjFt2","","","","","","","","","","","","","","","","","","750","","",""
"html-keyboard-response","70","132497","0.0-30.0-3.0","","null","<div style='margin:auto;width: auto; font-size: 150%'><span style='font-weight: bold; font-size: 100px; color: green;'>+10 points!</span><br><br></div>","null","delaylearn","learning","feedback_image_window","657868411a3b07f7123686cf","DjPbuBrcTmZ5SMfUDNNuQkfTjFt2","","","","","","","","","","","","","","","","","","","","",""
"html-keyboard-response","71","133010","0.0-31.0-0.0","","null","","null","","","mood_trial_fixation","","","","","","","","","","","","","","","","","","","","","","",""
"lmdlab-html-vas-response","72","138076","0.0-31.0-1.0","","4045","How happy are you right now?","0.05729762722209506","delaylearn","learning","mood_trial","657868411a3b07f7123686cf","DjPbuBrcTmZ5SMfUDNNuQkfTjFt2","","","","","","","","","","","","","","","","","","","","[""Very unhappy"",""Very happy""]",""
"html-keyboard-response","73","139930","0.0-32.0","","null","<div style=""font-size:100px;"">+</div>","null","delaylearn","learning","ITI","657868411a3b07f7123686cf","DjPbuBrcTmZ5SMfUDNNuQkfTjFt2","","","","","","","","","","","","","","","","","","","1840","",""
"html-keyboard-response","74","140995","0.0-33.0-0.0","","1061.5","<div style=""display: flex; flex-direction: column; align-items: center; margin-top: -40px;""><img src=""images/pattern_1.png"" style=""width: 234px; height: 230px; margin-top: -50px;""><div style=""display: flex; justify-content: space-between; margin-top: 33px;""><img src=""images/choice_trial_8.png"" style=""width: 408px; height: 417px; margin-right: 200px;""><img src=""images/choice_trial_14.png"" style=""width: 408px; height: 417px;""></div></div>","j","delaylearn","learning","trial","657868411a3b07f7123686cf","DjPbuBrcTmZ5SMfUDNNuQkfTjFt2","3","images/choice_trial_8.png","images/choice_trial_14.png","images/pattern_1.png","j","j","7000","8","14","1","1","14","1","1","14","60","","","","",""
"html-keyboard-response","75","142001","0.0-33.0-1.0","","null","<div style=""display: flex; flex-direction: column; align-items: center; margin-top: -40px;""><img src=""images/pattern_1.png"" style=""width: 234px; height: 230px; margin-top: -50px;""><div style=""display: flex; justify-content: space-between; margin-top: 33px;""><img src=""images/choice_trial_14.png"" style=""width: 408px; height: 417px; margin-left:608px;""></div></div>","null","delaylearn","learning","display_response","657868411a3b07f7123686cf","DjPbuBrcTmZ5SMfUDNNuQkfTjFt2","","","","","","","","","","","","","","","","","chosen stimuli: images/choice_trial_14.png","","","",""
"html-keyboard-response","76","149011","0.0-33.0-2.0","","null","","null","delaylearn","learning","feedback_duration_window","657868411a3b07f7123686cf","DjPbuBrcTmZ5SMfUDNNuQkfTjFt2","","","","","","","","","","","","","","","","","","7000","","",""
"html-keyboard-response","77","150516","0.0-33.0-3.0","","null","<div style='margin:auto;width: auto; font-size: 150%'><span style='font-weight: bold; font-size: 100px; color: green;'>+10 points!</span><br><br></div>","null","delaylearn","learning","feedback_image_window","657868411a3b07f7123686cf","DjPbuBrcTmZ5SMfUDNNuQkfTjFt2","","","","","","","","","","","","","","","","","","","","",""
"html-keyboard-response","78","152842","0.0-34.0","","null","<div style=""font-size:100px;"">+</div>","null","delaylearn","learning","ITI","657868411a3b07f7123686cf","DjPbuBrcTmZ5SMfUDNNuQkfTjFt2","","","","","","","","","","","","","","","","","","","2323","",""
"html-keyboard-response","79","154842","0.0-35.0-0.0","","1996.1000003814697","<div style=""display: flex; flex-direction: column; align-items: center; margin-top: -40px;""><img src=""images/pattern_3.png"" style=""width: 234px; height: 230px; margin-top: -50px;""><div style=""display: flex; justify-content: space-between; margin-top: 33px;""><img src=""images/choice_trial_10.png"" style=""width: 408px; height: 417px; margin-right: 200px;""><img src=""images/choice_trial_13.png"" style=""width: 408px; height: 417px;""></div></div>","f","delaylearn","learning","trial","657868411a3b07f7123686cf","DjPbuBrcTmZ5SMfUDNNuQkfTjFt2","3","images/choice_trial_10.png","images/choice_trial_13.png","images/pattern_3.png","f","j","7000","10","13","2","1","15","0","1","10","70","","","","",""
"html-keyboard-response","80","155847","0.0-35.0-1.0","","null","<div style=""display: flex; flex-direction: column; align-items: center; margin-top: -40px;""><img src=""images/pattern_3.png"" style=""width: 234px; height: 230px; margin-top: -50px;""><div style=""display: flex; justify-content: space-between; margin-top: 33px;""><img src=""images/choice_trial_10.png"" style=""width: 408px; height: 417px; margin-right: 608px;""></div></div>","null","delaylearn","learning","display_response","657868411a3b07f7123686cf","DjPbuBrcTmZ5SMfUDNNuQkfTjFt2","","","","","","","","","","","","","","","","","chosen stimuli: images/choice_trial_10.png","","","",""
"html-keyboard-response","81","162852","0.0-35.0-2.0","","null","","null","delaylearn","learning","feedback_duration_window","657868411a3b07f7123686cf","DjPbuBrcTmZ5SMfUDNNuQkfTjFt2","","","","","","","","","","","","","","","","","","7000","","",""
"html-keyboard-response","82","164369","0.0-35.0-3.0","","null","<div style='margin:auto;width: auto; font-size: 150%'><span style='font-weight: bold; font-size: 100px; color: green;'>+10 points!</span><br><br></div>","null","delaylearn","learning","feedback_image_window","657868411a3b07f7123686cf","DjPbuBrcTmZ5SMfUDNNuQkfTjFt2","","","","","","","","","","","","","","","","","","","","",""
"html-keyboard-response","83","166436","0.0-36.0","","null","<div style=""font-size:100px;"">+</div>","null","delaylearn","learning","ITI","657868411a3b07f7123686cf","DjPbuBrcTmZ5SMfUDNNuQkfTjFt2","","","","","","","","","","","","","","","","","","","2064","",""
"html-keyboard-response","84","166810","0.0-37.0-0.0","","370.59999990463257","<div style=""display: flex; flex-direction: column; align-items: center; margin-top: -40px;""><img src=""images/pattern_5.png"" style=""width: 234px; height: 230px; margin-top: -50px;""><div style=""display: flex; justify-content: space-between; margin-top: 33px;""><img src=""images/choice_trial_11.png"" style=""width: 408px; height: 417px; margin-right: 200px;""><img src=""images/choice_trial_2.png"" style=""width: 408px; height: 417px;""></div></div>","f","delaylearn","learning","trial","657868411a3b07f7123686cf","DjPbuBrcTmZ5SMfUDNNuQkfTjFt2","3","images/choice_trial_11.png","images/choice_trial_2.png","images/pattern_5.png","f","f","750","11","2","4","0","16","1","1","11","80","","","","",""
"html-keyboard-response","85","167826","0.0-37.0-1.0","","null","<div style=""display: flex; flex-direction: column; align-items: center; margin-top: -40px;""><img src=""images/pattern_5.png"" style=""width: 234px; height: 230px; margin-top: -50px;""><div style=""display: flex; justify-content: space-between; margin-top: 33px;""><img src=""images/choice_trial_11.png"" style=""width: 408px; height: 417px; margin-right: 608px;""></div></div>","null","delaylearn","learning","display_response","657868411a3b07f7123686cf","DjPbuBrcTmZ5SMfUDNNuQkfTjFt2","","","","","","","","","","","","","","","","","chosen stimuli: images/choice_trial_11.png","","","",""
"html-keyboard-response","86","168586","0.0-37.0-2.0","","null","","null","delaylearn","learning","feedback_duration_window","657868411a3b07f7123686cf","DjPbuBrcTmZ5SMfUDNNuQkfTjFt2","","","","","","","","","","","","","","","","","","750","","",""
"html-keyboard-response","87","170095","0.0-37.0-3.0","","null","<div style='margin:auto;width: auto; font-size: 150%'><span style='font-weight: bold; font-size: 100px; color: green;'>+10 points!</span><br><br></div>","null","delaylearn","learning","feedback_image_window","657868411a3b07f7123686cf","DjPbuBrcTmZ5SMfUDNNuQkfTjFt2","","","","","","","","","","","","","","","","","","","","",""
"html-keyboard-response","88","170596","0.0-38.0-0.0","","null","","null","","","mood_trial_fixation","","","","","","","","","","","","","","","","","","","","","","",""
"lmdlab-html-vas-response","89","173819","0.0-38.0-1.0","","2209","How happy are you right now?","0.3063248645761807","delaylearn","learning","mood_trial","657868411a3b07f7123686cf","DjPbuBrcTmZ5SMfUDNNuQkfTjFt2","","","","","","","","","","","","","","","","","","","","[""Very unhappy"",""Very happy""]",""
"html-keyboard-response","90","175536","0.0-39.0","","null","<div style=""font-size:100px;"">+</div>","null","delaylearn","learning","ITI","657868411a3b07f7123686cf","DjPbuBrcTmZ5SMfUDNNuQkfTjFt2","","","","","","","","","","","","","","","","","","","1705","",""
"html-keyboard-response","91","176457","0.0-40.0-0.0","","916.4000000953674","<div style=""display: flex; flex-direction: column; align-items: center; margin-top: -40px;""><img src=""images/pattern_6.png"" style=""width: 234px; height: 230px; margin-top: -50px;""><div style=""display: flex; justify-content: space-between; margin-top: 33px;""><img src=""images/choice_trial_16.png"" style=""width: 408px; height: 417px; margin-right: 200px;""><img src=""images/choice_trial_3.png"" style=""width: 408px; height: 417px;""></div></div>","f","delaylearn","learning","trial","657868411a3b07f7123686cf","DjPbuBrcTmZ5SMfUDNNuQkfTjFt2","3","images/choice_trial_16.png","images/choice_trial_3.png","images/pattern_6.png","f","f","750","16","3","5","0","17","1","1","16","90","","","","",""
"html-keyboard-response","92","177468","0.0-40.0-1.0","","null","<div style=""display: flex; flex-direction: column; align-items: center; margin-top: -40px;""><img src=""images/pattern_6.png"" style=""width: 234px; height: 230px; margin-top: -50px;""><div style=""display: flex; justify-content: space-between; margin-top: 33px;""><img src=""images/choice_trial_16.png"" style=""width: 408px; height: 417px; margin-right: 608px;""></div></div>","null","delaylearn","learning","display_response","657868411a3b07f7123686cf","DjPbuBrcTmZ5SMfUDNNuQkfTjFt2","","","","","","","","","","","","","","","","","chosen stimuli: images/choice_trial_16.png","","","",""
"html-keyboard-response","93","178232","0.0-40.0-2.0","","null","","null","delaylearn","learning","feedback_duration_window","657868411a3b07f7123686cf","DjPbuBrcTmZ5SMfUDNNuQkfTjFt2","","","","","","","","","","","","","","","","","","750","","",""
"html-keyboard-response","94","179740","0.0-40.0-3.0","","null","<div style='margin:auto;width: auto; font-size: 150%'><span style='font-weight: bold; font-size: 100px; color: green;'>+10 points!</span><br><br></div>","null","delaylearn","learning","feedback_image_window","657868411a3b07f7123686cf","DjPbuBrcTmZ5SMfUDNNuQkfTjFt2","","","","","","","","","","","","","","","","","","","","",""
"html-keyboard-response","95","181461","0.0-41.0","","null","<div style=""font-size:100px;"">+</div>","null","delaylearn","learning","ITI","657868411a3b07f7123686cf","DjPbuBrcTmZ5SMfUDNNuQkfTjFt2","","","","","","","","","","","","","","","","","","","1710","",""
"html-keyboard-response","96","181890","0.0-42.0-0.0","","425.69999980926514","<div style=""display: flex; flex-direction: column; align-items: center; margin-top: -40px;""><img src=""images/pattern_4.png"" style=""width: 234px; height: 230px; margin-top: -50px;""><div style=""display: flex; justify-content: space-between; margin-top: 33px;""><img src=""images/choice_trial_9.png"" style=""width: 408px; height: 417px; margin-right: 200px;""><img src=""images/choice_trial_15.png"" style=""width: 408px; height: 417px;""></div></div>","f","delaylearn","learning","trial","657868411a3b07f7123686cf","DjPbuBrcTmZ5SMfUDNNuQkfTjFt2","3","images/choice_trial_9.png","images/choice_trial_15.png","images/pattern_4.png","j","j","7000","9","15","3","1","18","0","0","9","90","","","","",""
"html-keyboard-response","97","182901","0.0-42.0-1.0","","null","<div style=""display: flex; flex-direction: column; align-items: center; margin-top: -40px;""><img src=""images/pattern_4.png"" style=""width: 234px; height: 230px; margin-top: -50px;""><div style=""display: flex; justify-content: space-between; margin-top: 33px;""><img src=""images/choice_trial_9.png"" style=""width: 408px; height: 417px; margin-right: 608px;""></div></div>","null","delaylearn","learning","display_response","657868411a3b07f7123686cf","DjPbuBrcTmZ5SMfUDNNuQkfTjFt2","","","","","","","","","","","","","","","","","chosen stimuli: images/choice_trial_9.png","","","",""
"html-keyboard-response","98","189905","0.0-42.0-2.0","","null","","null","delaylearn","learning","feedback_duration_window","657868411a3b07f7123686cf","DjPbuBrcTmZ5SMfUDNNuQkfTjFt2","","","","","","","","","","","","","","","","","","7000","","",""
"html-keyboard-response","99","191410","0.0-42.0-3.0","","null","<div style='margin:auto;width: auto; font-size: 150%'><span style='font-weight: bold; font-size: 100px; color: red;'>0 points!</span><br><br></div>","null","delaylearn","learning","feedback_image_window","657868411a3b07f7123686cf","DjPbuBrcTmZ5SMfUDNNuQkfTjFt2","","","","","","","","","","","","","","","","","","","","",""
"html-keyboard-response","100","193779","0.0-43.0","","null","<div style=""font-size:100px;"">+</div>","null","delaylearn","learning","ITI","657868411a3b07f7123686cf","DjPbuBrcTmZ5SMfUDNNuQkfTjFt2","","","","","","","","","","","","","","","","","","","2360","",""
"html-keyboard-response","101","194520","0.0-44.0-0.0","","737.5","<div style=""display: flex; flex-direction: column; align-items: center; margin-top: -40px;""><img src=""images/pattern_7.png"" style=""width: 234px; height: 230px; margin-top: -50px;""><div style=""display: flex; justify-content: space-between; margin-top: 33px;""><img src=""images/choice_trial_6.png"" style=""width: 408px; height: 417px; margin-right: 200px;""><img src=""images/choice_trial_12.png"" style=""width: 408px; height: 417px;""></div></div>","j","delaylearn","learning","trial","657868411a3b07f7123686cf","DjPbuBrcTmZ5SMfUDNNuQkfTjFt2","3","images/choice_trial_6.png","images/choice_trial_12.png","images/pattern_7.png","j","f","750","6","12","6","0","19","0","1","12","100","","","","",""
"html-keyboard-response","102","195525","0.0-44.0-1.0","","null","<div style=""display: flex; flex-direction: column; align-items: center; margin-top: -40px;""><img src=""images/pattern_7.png"" style=""width: 234px; height: 230px; margin-top: -50px;""><div style=""display: flex; justify-content: space-between; margin-top: 33px;""><img src=""images/choice_trial_12.png"" style=""width: 408px; height: 417px; margin-left:608px;""></div></div>","null","delaylearn","learning","display_response","657868411a3b07f7123686cf","DjPbuBrcTmZ5SMfUDNNuQkfTjFt2","","","","","","","","","","","","","","","","","chosen stimuli: images/choice_trial_12.png","","","",""
"html-keyboard-response","103","196283","0.0-44.0-2.0","","null","","null","delaylearn","learning","feedback_duration_window","657868411a3b07f7123686cf","DjPbuBrcTmZ5SMfUDNNuQkfTjFt2","","","","","","","","","","","","","","","","","","750","","",""
"html-keyboard-response","104","197790","0.0-44.0-3.0","","null","<div style='margin:auto;width: auto; font-size: 150%'><span style='font-weight: bold; font-size: 100px; color: green;'>+10 points!</span><br><br></div>","null","delaylearn","learning","feedback_image_window","657868411a3b07f7123686cf","DjPbuBrcTmZ5SMfUDNNuQkfTjFt2","","","","","","","","","","","","","","","","","","","","",""
"html-keyboard-response","105","200117","0.0-45.0","","null","<div style=""font-size:100px;"">+</div>","null","delaylearn","learning","ITI","657868411a3b07f7123686cf","DjPbuBrcTmZ5SMfUDNNuQkfTjFt2","","","","","","","","","","","","","","","","","","","2316","",""
"html-keyboard-response","106","200751","0.0-46.0-0.0","","630","<div style=""display: flex; flex-direction: column; align-items: center; margin-top: -40px;""><img src=""images/pattern_1.png"" style=""width: 234px; height: 230px; margin-top: -50px;""><div style=""display: flex; justify-content: space-between; margin-top: 33px;""><img src=""images/choice_trial_14.png"" style=""width: 408px; height: 417px; margin-right: 200px;""><img src=""images/choice_trial_8.png"" style=""width: 408px; height: 417px;""></div></div>","j","delaylearn","learning","trial","657868411a3b07f7123686cf","DjPbuBrcTmZ5SMfUDNNuQkfTjFt2","3","images/choice_trial_14.png","images/choice_trial_8.png","images/pattern_1.png","f","f","7000","14","8","1","0","20","0","0","8","100","","","","",""
"html-keyboard-response","107","201766","0.0-46.0-1.0","","null","<div style=""display: flex; flex-direction: column; align-items: center; margin-top: -40px;""><img src=""images/pattern_1.png"" style=""width: 234px; height: 230px; margin-top: -50px;""><div style=""display: flex; justify-content: space-between; margin-top: 33px;""><img src=""images/choice_trial_8.png"" style=""width: 408px; height: 417px; margin-left:608px;""></div></div>","null","delaylearn","learning","display_response","657868411a3b07f7123686cf","DjPbuBrcTmZ5SMfUDNNuQkfTjFt2","","","","","","","","","","","","","","","","","chosen stimuli: images/choice_trial_8.png","","","",""
"html-keyboard-response","108","208771","0.0-46.0-2.0","","null","","null","delaylearn","learning","feedback_duration_window","657868411a3b07f7123686cf","DjPbuBrcTmZ5SMfUDNNuQkfTjFt2","","","","","","","","","","","","","","","","","","7000","","",""
"html-keyboard-response","109","210275","0.0-46.0-3.0","","null","<div style='margin:auto;width: auto; font-size: 150%'><span style='font-weight: bold; font-size: 100px; color: red;'>0 points!</span><br><br></div>","null","delaylearn","learning","feedback_image_window","657868411a3b07f7123686cf","DjPbuBrcTmZ5SMfUDNNuQkfTjFt2","","","","","","","","","","","","","","","","","","","","",""
"html-keyboard-response","110","212314","0.0-47.0","","null","<div style=""font-size:100px;"">+</div>","null","delaylearn","learning","ITI","657868411a3b07f7123686cf","DjPbuBrcTmZ5SMfUDNNuQkfTjFt2","","","","","","","","","","","","","","","","","","","2036","",""
"html-keyboard-response","111","213112","0.0-48.0-0.0","","794.3000001907349","<div style=""display: flex; flex-direction: column; align-items: center; margin-top: -40px;""><img src=""images/pattern_6.png"" style=""width: 234px; height: 230px; margin-top: -50px;""><div style=""display: flex; justify-content: space-between; margin-top: 33px;""><img src=""images/choice_trial_3.png"" style=""width: 408px; height: 417px; margin-right: 200px;""><img src=""images/choice_trial_16.png"" style=""width: 408px; height: 417px;""></div></div>","f","delaylearn","learning","trial","657868411a3b07f7123686cf","DjPbuBrcTmZ5SMfUDNNuQkfTjFt2","3","images/choice_trial_3.png","images/choice_trial_16.png","images/pattern_6.png","j","j","750","3","16","5","1","21","0","0","3","100","","","","",""
"html-keyboard-response","112","214120","0.0-48.0-1.0","","null","<div style=""display: flex; flex-direction: column; align-items: center; margin-top: -40px;""><img src=""images/pattern_6.png"" style=""width: 234px; height: 230px; margin-top: -50px;""><div style=""display: flex; justify-content: space-between; margin-top: 33px;""><img src=""images/choice_trial_3.png"" style=""width: 408px; height: 417px; margin-right: 608px;""></div></div>","null","delaylearn","learning","display_response","657868411a3b07f7123686cf","DjPbuBrcTmZ5SMfUDNNuQkfTjFt2","","","","","","","","","","","","","","","","","chosen stimuli: images/choice_trial_3.png","","","",""
"html-keyboard-response","113","214880","0.0-48.0-2.0","","null","","null","delaylearn","learning","feedback_duration_window","657868411a3b07f7123686cf","DjPbuBrcTmZ5SMfUDNNuQkfTjFt2","","","","","","","","","","","","","","","","","","750","","",""
"html-keyboard-response","114","216383","0.0-48.0-3.0","","null","<div style='margin:auto;width: auto; font-size: 150%'><span style='font-weight: bold; font-size: 100px; color: red;'>0 points!</span><br><br></div>","null","delaylearn","learning","feedback_image_window","657868411a3b07f7123686cf","DjPbuBrcTmZ5SMfUDNNuQkfTjFt2","","","","","","","","","","","","","","","","","","","","",""
"html-keyboard-response","115","218783","0.0-49.0","","null","<div style=""font-size:100px;"">+</div>","null","delaylearn","learning","ITI","657868411a3b07f7123686cf","DjPbuBrcTmZ5SMfUDNNuQkfTjFt2","","","","","","","","","","","","","","","","","","","2396","",""
"html-keyboard-response","116","220635","0.0-50.0-0.0","","1848.6999998092651","<div style=""display: flex; flex-direction: column; align-items: center; margin-top: -40px;""><img src=""images/pattern_4.png"" style=""width: 234px; height: 230px; margin-top: -50px;""><div style=""display: flex; justify-content: space-between; margin-top: 33px;""><img src=""images/choice_trial_15.png"" style=""width: 408px; height: 417px; margin-right: 200px;""><img src=""images/choice_trial_9.png"" style=""width: 408px; height: 417px;""></div></div>","f","delaylearn","learning","trial","657868411a3b07f7123686cf","DjPbuBrcTmZ5SMfUDNNuQkfTjFt2","3","images/choice_trial_15.png","images/choice_trial_9.png","images/pattern_4.png","f","f","7000","15","9","3","0","22","1","1","15","110","","","","",""
"html-keyboard-response","117","221649","0.0-50.0-1.0","","null","<div style=""display: flex; flex-direction: column; align-items: center; margin-top: -40px;""><img src=""images/pattern_4.png"" style=""width: 234px; height: 230px; margin-top: -50px;""><div style=""display: flex; justify-content: space-between; margin-top: 33px;""><img src=""images/choice_trial_15.png"" style=""width: 408px; height: 417px; margin-right: 608px;""></div></div>","null","delaylearn","learning","display_response","657868411a3b07f7123686cf","DjPbuBrcTmZ5SMfUDNNuQkfTjFt2","","","","","","","","","","","","","","","","","chosen stimuli: images/choice_trial_15.png","","","",""
"html-keyboard-response","118","228651","0.0-50.0-2.0","","null","","null","delaylearn","learning","feedback_duration_window","657868411a3b07f7123686cf","DjPbuBrcTmZ5SMfUDNNuQkfTjFt2","","","","","","","","","","","","","","","","","","7000","","",""
"html-keyboard-response","119","230169","0.0-50.0-3.0","","null","<div style='margin:auto;width: auto; font-size: 150%'><span style='font-weight: bold; font-size: 100px; color: green;'>+10 points!</span><br><br></div>","null","delaylearn","learning","feedback_image_window","657868411a3b07f7123686cf","DjPbuBrcTmZ5SMfUDNNuQkfTjFt2","","","","","","","","","","","","","","","","","","","","",""
"html-keyboard-response","120","230676","0.0-51.0-0.0","","null","","null","","","mood_trial_fixation","","","","","","","","","","","","","","","","","","","","","","",""
"lmdlab-html-vas-response","121","234827","0.0-51.0-1.0","","3144","How happy are you right now?","0.08985020726838076","delaylearn","learning","mood_trial","657868411a3b07f7123686cf","DjPbuBrcTmZ5SMfUDNNuQkfTjFt2","","","","","","","","","","","","","","","","","","","","[""Very unhappy"",""Very happy""]",""
"html-keyboard-response","122","236822","0.0-52.0","","null","<div style=""font-size:100px;"">+</div>","null","delaylearn","learning","ITI","657868411a3b07f7123686cf","DjPbuBrcTmZ5SMfUDNNuQkfTjFt2","","","","","","","","","","","","","","","","","","","1989","",""
"html-keyboard-response","123","238388","0.0-53.0-0.0","","1560.9000000953674","<div style=""display: flex; flex-direction: column; align-items: center; margin-top: -40px;""><img src=""images/pattern_7.png"" style=""width: 234px; height: 230px; margin-top: -50px;""><div style=""display: flex; justify-content: space-between; margin-top: 33px;""><img src=""images/choice_trial_12.png"" style=""width: 408px; height: 417px; margin-right: 200px;""><img src=""images/choice_trial_6.png"" style=""width: 408px; height: 417px;""></div></div>","j","delaylearn","learning","trial","657868411a3b07f7123686cf","DjPbuBrcTmZ5SMfUDNNuQkfTjFt2","3","images/choice_trial_12.png","images/choice_trial_6.png","images/pattern_7.png","j","j","750","12","6","6","1","23","1","1","6","120","","","","",""
"html-keyboard-response","124","239398","0.0-53.0-1.0","","null","<div style=""display: flex; flex-direction: column; align-items: center; margin-top: -40px;""><img src=""images/pattern_7.png"" style=""width: 234px; height: 230px; margin-top: -50px;""><div style=""display: flex; justify-content: space-between; margin-top: 33px;""><img src=""images/choice_trial_6.png"" style=""width: 408px; height: 417px; margin-left:608px;""></div></div>","null","delaylearn","learning","display_response","657868411a3b07f7123686cf","DjPbuBrcTmZ5SMfUDNNuQkfTjFt2","","","","","","","","","","","","","","","","","chosen stimuli: images/choice_trial_6.png","","","",""
"html-keyboard-response","125","240154","0.0-53.0-2.0","","null","","null","delaylearn","learning","feedback_duration_window","657868411a3b07f7123686cf","DjPbuBrcTmZ5SMfUDNNuQkfTjFt2","","","","","","","","","","","","","","","","","","750","","",""
"html-keyboard-response","126","241663","0.0-53.0-3.0","","null","<div style='margin:auto;width: auto; font-size: 150%'><span style='font-weight: bold; font-size: 100px; color: green;'>+10 points!</span><br><br></div>","null","delaylearn","learning","feedback_image_window","657868411a3b07f7123686cf","DjPbuBrcTmZ5SMfUDNNuQkfTjFt2","","","","","","","","","","","","","","","","","","","","",""
"html-keyboard-response","127","243223","0.0-54.0","","null","<div style=""font-size:100px;"">+</div>","null","delaylearn","learning","ITI","657868411a3b07f7123686cf","DjPbuBrcTmZ5SMfUDNNuQkfTjFt2","","","","","","","","","","","","","","","","","","","1549","",""
"html-keyboard-response","128","244117","0.0-55.0-0.0","","890.7000002861023","<div style=""display: flex; flex-direction: column; align-items: center; margin-top: -40px;""><img src=""images/pattern_1.png"" style=""width: 234px; height: 230px; margin-top: -50px;""><div style=""display: flex; justify-content: space-between; margin-top: 33px;""><img src=""images/choice_trial_8.png"" style=""width: 408px; height: 417px; margin-right: 200px;""><img src=""images/choice_trial_14.png"" style=""width: 408px; height: 417px;""></div></div>","f","delaylearn","learning","trial","657868411a3b07f7123686cf","DjPbuBrcTmZ5SMfUDNNuQkfTjFt2","3","images/choice_trial_8.png","images/choice_trial_14.png","images/pattern_1.png","f","j","7000","8","14","1","1","24","0","1","8","130","","","","",""
"html-keyboard-response","129","245123","0.0-55.0-1.0","","null","<div style=""display: flex; flex-direction: column; align-items: center; margin-top: -40px;""><img src=""images/pattern_1.png"" style=""width: 234px; height: 230px; margin-top: -50px;""><div style=""display: flex; justify-content: space-between; margin-top: 33px;""><img src=""images/choice_trial_8.png"" style=""width: 408px; height: 417px; margin-right: 608px;""></div></div>","null","delaylearn","learning","display_response","657868411a3b07f7123686cf","DjPbuBrcTmZ5SMfUDNNuQkfTjFt2","","","","","","","","","","","","","","","","","chosen stimuli: images/choice_trial_8.png","","","",""
"html-keyboard-response","130","252132","0.0-55.0-2.0","","null","","null","delaylearn","learning","feedback_duration_window","657868411a3b07f7123686cf","DjPbuBrcTmZ5SMfUDNNuQkfTjFt2","","","","","","","","","","","","","","","","","","7000","","",""
"html-keyboard-response","131","253645","0.0-55.0-3.0","","null","<div style='margin:auto;width: auto; font-size: 150%'><span style='font-weight: bold; font-size: 100px; color: green;'>+10 points!</span><br><br></div>","null","delaylearn","learning","feedback_image_window","657868411a3b07f7123686cf","DjPbuBrcTmZ5SMfUDNNuQkfTjFt2","","","","","","","","","","","","","","","","","","","","",""
"html-keyboard-response","132","255646","0.0-56.0","","null","<div style=""font-size:100px;"">+</div>","null","delaylearn","learning","ITI","657868411a3b07f7123686cf","DjPbuBrcTmZ5SMfUDNNuQkfTjFt2","","","","","","","","","","","","","","","","","","","1993","",""
"html-keyboard-response","133","256420","0.0-57.0-0.0","","768.9000000953674","<div style=""display: flex; flex-direction: column; align-items: center; margin-top: -40px;""><img src=""images/pattern_5.png"" style=""width: 234px; height: 230px; margin-top: -50px;""><div style=""display: flex; justify-content: space-between; margin-top: 33px;""><img src=""images/choice_trial_2.png"" style=""width: 408px; height: 417px; margin-right: 200px;""><img src=""images/choice_trial_11.png"" style=""width: 408px; height: 417px;""></div></div>","j","delaylearn","learning","trial","657868411a3b07f7123686cf","DjPbuBrcTmZ5SMfUDNNuQkfTjFt2","3","images/choice_trial_2.png","images/choice_trial_11.png","images/pattern_5.png","j","j","750","2","11","4","1","25","1","1","11","140","","","","",""
"html-keyboard-response","134","257437","0.0-57.0-1.0","","null","<div style=""display: flex; flex-direction: column; align-items: center; margin-top: -40px;""><img src=""images/pattern_5.png"" style=""width: 234px; height: 230px; margin-top: -50px;""><div style=""display: flex; justify-content: space-between; margin-top: 33px;""><img src=""images/choice_trial_11.png"" style=""width: 408px; height: 417px; margin-left:608px;""></div></div>","null","delaylearn","learning","display_response","657868411a3b07f7123686cf","DjPbuBrcTmZ5SMfUDNNuQkfTjFt2","","","","","","","","","","","","","","","","","chosen stimuli: images/choice_trial_11.png","","","",""
"html-keyboard-response","135","258201","0.0-57.0-2.0","","null","","null","delaylearn","learning","feedback_duration_window","657868411a3b07f7123686cf","DjPbuBrcTmZ5SMfUDNNuQkfTjFt2","","","","","","","","","","","","","","","","","","750","","",""
"html-keyboard-response","136","259718","0.0-57.0-3.0","","null","<div style='margin:auto;width: auto; font-size: 150%'><span style='font-weight: bold; font-size: 100px; color: green;'>+10 points!</span><br><br></div>","null","delaylearn","learning","feedback_image_window","657868411a3b07f7123686cf","DjPbuBrcTmZ5SMfUDNNuQkfTjFt2","","","","","","","","","","","","","","","","","","","","",""
"html-keyboard-response","137","261377","0.0-58.0","","null","<div style=""font-size:100px;"">+</div>","null","delaylearn","learning","ITI","657868411a3b07f7123686cf","DjPbuBrcTmZ5SMfUDNNuQkfTjFt2","","","","","","","","","","","","","","","","","","","1644","",""
"html-keyboard-response","138","263106","0.0-59.0-0.0","","1725.1999998092651","<div style=""display: flex; flex-direction: column; align-items: center; margin-top: -40px;""><img src=""images/pattern_3.png"" style=""width: 234px; height: 230px; margin-top: -50px;""><div style=""display: flex; justify-content: space-between; margin-top: 33px;""><img src=""images/choice_trial_10.png"" style=""width: 408px; height: 417px; margin-right: 200px;""><img src=""images/choice_trial_13.png"" style=""width: 408px; height: 417px;""></div></div>","j","delaylearn","learning","trial","657868411a3b07f7123686cf","DjPbuBrcTmZ5SMfUDNNuQkfTjFt2","3","images/choice_trial_10.png","images/choice_trial_13.png","images/pattern_3.png","j","j","7000","10","13","2","1","26","1","1","13","150","","","","",""
"html-keyboard-response","139","264110","0.0-59.0-1.0","","null","<div style=""display: flex; flex-direction: column; align-items: center; margin-top: -40px;""><img src=""images/pattern_3.png"" style=""width: 234px; height: 230px; margin-top: -50px;""><div style=""display: flex; justify-content: space-between; margin-top: 33px;""><img src=""images/choice_trial_13.png"" style=""width: 408px; height: 417px; margin-left:608px;""></div></div>","null","delaylearn","learning","display_response","657868411a3b07f7123686cf","DjPbuBrcTmZ5SMfUDNNuQkfTjFt2","","","","","","","","","","","","","","","","","chosen stimuli: images/choice_trial_13.png","","","",""
"html-keyboard-response","140","271113","0.0-59.0-2.0","","null","","null","delaylearn","learning","feedback_duration_window","657868411a3b07f7123686cf","DjPbuBrcTmZ5SMfUDNNuQkfTjFt2","","","","","","","","","","","","","","","","","","7000","","",""
"html-keyboard-response","141","272619","0.0-59.0-3.0","","null","<div style='margin:auto;width: auto; font-size: 150%'><span style='font-weight: bold; font-size: 100px; color: green;'>+10 points!</span><br><br></div>","null","delaylearn","learning","feedback_image_window","657868411a3b07f7123686cf","DjPbuBrcTmZ5SMfUDNNuQkfTjFt2","","","","","","","","","","","","","","","","","","","","",""
"lmdlab-html-vas-response","142","279269","0.0-60.0-0.0","","5127","*How <b><u>confident</u></b> are you feeling about your answers at this moment?*","0.13542381933318073","rewlearn","rate_confidence","","657868411a3b07f7123686cf","DjPbuBrcTmZ5SMfUDNNuQkfTjFt2","","","","","","","","","","","","","","","","","","","","[""No confidence"",""Complete confidence""]",""
"lmdlab-rest-trial-limit","143","289235","0.0-60.0-1.0","","8457.800000190735","<div style=""font-size:40px;""><b>Please take a break!</b><br><br><br><br><p>Great work: you earned 150 points.<br><br><br><p>You have completed part(s) 1 of 5.<br><br><br><br>When you are ready to continue<br><br><br>please click the button.</p><br><br>","0","delaylearn","learning","break","657868411a3b07f7123686cf","DjPbuBrcTmZ5SMfUDNNuQkfTjFt2","","","","","","","","","","","","","","","","","","","","","0"
"html-keyboard-response","144","292254","0.0-60.0-2.0","","null","<div style=""font-size:100px;"">+</div>","null","delaylearn","learning","pre_fixation","657868411a3b07f7123686cf","","","","","","","","","","","","","","","","","","","","","",""
"lmdlab-html-vas-response","145","296414","0.0-60.0-3.0-0.0","","3154","How happy are you right now?","0.00033061214109508916","delaylearn","learning","mood_baseline","657868411a3b07f7123686cf","DjPbuBrcTmZ5SMfUDNNuQkfTjFt2","","","","","","","","","","","","","","","","","","","","[""Very unhappy"",""Very happy""]",""
"html-keyboard-response","146","297918","0.0-60.0-3.0-1.0","","null","","null","","","mood_baseline_fixation","","","","","","","","","","","","","","","","","","","","","","",""
"html-keyboard-response","147","300360","0.0-61.0","","null","<div style=""font-size:100px;"">+</div>","null","delaylearn","learning","ITI","657868411a3b07f7123686cf","DjPbuBrcTmZ5SMfUDNNuQkfTjFt2","","","","","","","","","","","","","","","","","","","2428","",""
"html-keyboard-response","148","301108","0.0-62.0-0.0","","744","<div style=""display: flex; flex-direction: column; align-items: center; margin-top: -40px;""><img src=""images/pattern_7.png"" style=""width: 234px; height: 230px; margin-top: -50px;""><div style=""display: flex; justify-content: space-between; margin-top: 33px;""><img src=""images/choice_trial_12.png"" style=""width: 408px; height: 417px; margin-right: 200px;""><img src=""images/choice_trial_6.png"" style=""width: 408px; height: 417px;""></div></div>","j","delaylearn","learning","trial","657868411a3b07f7123686cf","DjPbuBrcTmZ5SMfUDNNuQkfTjFt2","3","images/choice_trial_12.png","images/choice_trial_6.png","images/pattern_7.png","j","j","750","12","6","6","1","27","1","1","6","160","","","","",""
"html-keyboard-response","149","302112","0.0-62.0-1.0","","null","<div style=""display: flex; flex-direction: column; align-items: center; margin-top: -40px;""><img src=""images/pattern_7.png"" style=""width: 234px; height: 230px; margin-top: -50px;""><div style=""display: flex; justify-content: space-between; margin-top: 33px;""><img src=""images/choice_trial_6.png"" style=""width: 408px; height: 417px; margin-left:608px;""></div></div>","null","delaylearn","learning","display_response","657868411a3b07f7123686cf","DjPbuBrcTmZ5SMfUDNNuQkfTjFt2","","","","","","","","","","","","","","","","","chosen stimuli: images/choice_trial_6.png","","","",""
"html-keyboard-response","150","302872","0.0-62.0-2.0","","null","","null","delaylearn","learning","feedback_duration_window","657868411a3b07f7123686cf","DjPbuBrcTmZ5SMfUDNNuQkfTjFt2","","","","","","","","","","","","","","","","","","750","","",""
"html-keyboard-response","151","304380","0.0-62.0-3.0","","null","<div style='margin:auto;width: auto; font-size: 150%'><span style='font-weight: bold; font-size: 100px; color: green;'>+10 points!</span><br><br></div>","null","delaylearn","learning","feedback_image_window","657868411a3b07f7123686cf","DjPbuBrcTmZ5SMfUDNNuQkfTjFt2","","","","","","","","","","","","","","","","","","","","",""
"html-keyboard-response","152","304883","0.0-63.0-0.0","","null","","null","","","mood_trial_fixation","","","","","","","","","","","","","","","","","","","","","","",""
"lmdlab-html-vas-response","153","308633","0.0-63.0-1.0","","2744","How happy are you right now?","0.14356196434475216","delaylearn","learning","mood_trial","657868411a3b07f7123686cf","DjPbuBrcTmZ5SMfUDNNuQkfTjFt2","","","","","","","","","","","","","","","","","","","","[""Very unhappy"",""Very happy""]",""
"html-keyboard-response","154","310884","0.0-64.0","","null","<div style=""font-size:100px;"">+</div>","null","delaylearn","learning","ITI","657868411a3b07f7123686cf","DjPbuBrcTmZ5SMfUDNNuQkfTjFt2","","","","","","","","","","","","","","","","","","","2237","",""
"html-keyboard-response","155","311822","0.0-65.0-0.0","","933.2999997138977","<div style=""display: flex; flex-direction: column; align-items: center; margin-top: -40px;""><img src=""images/pattern_1.png"" style=""width: 234px; height: 230px; margin-top: -50px;""><div style=""display: flex; justify-content: space-between; margin-top: 33px;""><img src=""images/choice_trial_14.png"" style=""width: 408px; height: 417px; margin-right: 200px;""><img src=""images/choice_trial_8.png"" style=""width: 408px; height: 417px;""></div></div>","j","delaylearn","learning","trial","657868411a3b07f7123686cf","DjPbuBrcTmZ5SMfUDNNuQkfTjFt2","3","images/choice_trial_14.png","images/choice_trial_8.png","images/pattern_1.png","f","f","7000","14","8","1","0","28","0","0","8","160","","","","",""
"html-keyboard-response","156","312839","0.0-65.0-1.0","","null","<div style=""display: flex; flex-direction: column; align-items: center; margin-top: -40px;""><img src=""images/pattern_1.png"" style=""width: 234px; height: 230px; margin-top: -50px;""><div style=""display: flex; justify-content: space-between; margin-top: 33px;""><img src=""images/choice_trial_8.png"" style=""width: 408px; height: 417px; margin-left:608px;""></div></div>","null","delaylearn","learning","display_response","657868411a3b07f7123686cf","DjPbuBrcTmZ5SMfUDNNuQkfTjFt2","","","","","","","","","","","","","","","","","chosen stimuli: images/choice_trial_8.png","","","",""
"html-keyboard-response","157","319856","0.0-65.0-2.0","","null","","null","delaylearn","learning","feedback_duration_window","657868411a3b07f7123686cf","DjPbuBrcTmZ5SMfUDNNuQkfTjFt2","","","","","","","","","","","","","","","","","","7000","","",""
"html-keyboard-response","158","321365","0.0-65.0-3.0","","null","<div style='margin:auto;width: auto; font-size: 150%'><span style='font-weight: bold; font-size: 100px; color: red;'>0 points!</span><br><br></div>","null","delaylearn","learning","feedback_image_window","657868411a3b07f7123686cf","DjPbuBrcTmZ5SMfUDNNuQkfTjFt2","","","","","","","","","","","","","","","","","","","","",""
"html-keyboard-response","159","323259","0.0-66.0","","null","<div style=""font-size:100px;"">+</div>","null","delaylearn","learning","ITI","657868411a3b07f7123686cf","DjPbuBrcTmZ5SMfUDNNuQkfTjFt2","","","","","","","","","","","","","","","","","","","1883","",""
"html-keyboard-response","160","324031","0.0-67.0-0.0","","767.9000000953674","<div style=""display: flex; flex-direction: column; align-items: center; margin-top: -40px;""><img src=""images/pattern_5.png"" style=""width: 234px; height: 230px; margin-top: -50px;""><div style=""display: flex; justify-content: space-between; margin-top: 33px;""><img src=""images/choice_trial_11.png"" style=""width: 408px; height: 417px; margin-right: 200px;""><img src=""images/choice_trial_2.png"" style=""width: 408px; height: 417px;""></div></div>","f","delaylearn","learning","trial","657868411a3b07f7123686cf","DjPbuBrcTmZ5SMfUDNNuQkfTjFt2","3","images/choice_trial_11.png","images/choice_trial_2.png","images/pattern_5.png","f","f","750","11","2","4","0","29","1","1","11","170","","","","",""
"html-keyboard-response","161","325041","0.0-67.0-1.0","","null","<div style=""display: flex; flex-direction: column; align-items: center; margin-top: -40px;""><img src=""images/pattern_5.png"" style=""width: 234px; height: 230px; margin-top: -50px;""><div style=""display: flex; justify-content: space-between; margin-top: 33px;""><img src=""images/choice_trial_11.png"" style=""width: 408px; height: 417px; margin-right: 608px;""></div></div>","null","delaylearn","learning","display_response","657868411a3b07f7123686cf","DjPbuBrcTmZ5SMfUDNNuQkfTjFt2","","","","","","","","","","","","","","","","","chosen stimuli: images/choice_trial_11.png","","","",""
"html-keyboard-response","162","325796","0.0-67.0-2.0","","null","","null","delaylearn","learning","feedback_duration_window","657868411a3b07f7123686cf","DjPbuBrcTmZ5SMfUDNNuQkfTjFt2","","","","","","","","","","","","","","","","","","750","","",""
"html-keyboard-response","163","327303","0.0-67.0-3.0","","null","<div style='margin:auto;width: auto; font-size: 150%'><span style='font-weight: bold; font-size: 100px; color: green;'>+10 points!</span><br><br></div>","null","delaylearn","learning","feedback_image_window","657868411a3b07f7123686cf","DjPbuBrcTmZ5SMfUDNNuQkfTjFt2","","","","","","","","","","","","","","","","","","","","",""
"html-keyboard-response","164","329141","0.0-68.0","","null","<div style=""font-size:100px;"">+</div>","null","delaylearn","learning","ITI","657868411a3b07f7123686cf","DjPbuBrcTmZ5SMfUDNNuQkfTjFt2","","","","","","","","","","","","","","","","","","","1836","",""
"html-keyboard-response","165","330821","0.0-69.0-0.0","","1675.3999996185303","<div style=""display: flex; flex-direction: column; align-items: center; margin-top: -40px;""><img src=""images/pattern_6.png"" style=""width: 234px; height: 230px; margin-top: -50px;""><div style=""display: flex; justify-content: space-between; margin-top: 33px;""><img src=""images/choice_trial_3.png"" style=""width: 408px; height: 417px; margin-right: 200px;""><img src=""images/choice_trial_16.png"" style=""width: 408px; height: 417px;""></div></div>","f","delaylearn","learning","trial","657868411a3b07f7123686cf","DjPbuBrcTmZ5SMfUDNNuQkfTjFt2","3","images/choice_trial_3.png","images/choice_trial_16.png","images/pattern_6.png","j","j","750","3","16","5","1","30","0","0","3","170","","","","",""
"html-keyboard-response","166","331831","0.0-69.0-1.0","","null","<div style=""display: flex; flex-direction: column; align-items: center; margin-top: -40px;""><img src=""images/pattern_6.png"" style=""width: 234px; height: 230px; margin-top: -50px;""><div style=""display: flex; justify-content: space-between; margin-top: 33px;""><img src=""images/choice_trial_3.png"" style=""width: 408px; height: 417px; margin-right: 608px;""></div></div>","null","delaylearn","learning","display_response","657868411a3b07f7123686cf","DjPbuBrcTmZ5SMfUDNNuQkfTjFt2","","","","","","","","","","","","","","","","","chosen stimuli: images/choice_trial_3.png","","","",""
"html-keyboard-response","167","332596","0.0-69.0-2.0","","null","","null","delaylearn","learning","feedback_duration_window","657868411a3b07f7123686cf","DjPbuBrcTmZ5SMfUDNNuQkfTjFt2","","","","","","","","","","","","","","","","","","750","","",""
"html-keyboard-response","168","334101","0.0-69.0-3.0","","null","<div style='margin:auto;width: auto; font-size: 150%'><span style='font-weight: bold; font-size: 100px; color: red;'>0 points!</span><br><br></div>","null","delaylearn","learning","feedback_image_window","657868411a3b07f7123686cf","DjPbuBrcTmZ5SMfUDNNuQkfTjFt2","","","","","","","","","","","","","","","","","","","","",""
"html-keyboard-response","169","334605","0.0-70.0-0.0","","null","","null","","","mood_trial_fixation","","","","","","","","","","","","","","","","","","","","","","",""
"lmdlab-html-vas-response","170","338019","0.0-70.0-1.0","","2399","How happy are you right now?","0.08659494926375219","delaylearn","learning","mood_trial","657868411a3b07f7123686cf","DjPbuBrcTmZ5SMfUDNNuQkfTjFt2","","","","","","","","","","","","","","","","","","","","[""Very unhappy"",""Very happy""]",""
"html-keyboard-response","171","339628","0.0-71.0","","null","<div style=""font-size:100px;"">+</div>","null","delaylearn","learning","ITI","657868411a3b07f7123686cf","DjPbuBrcTmZ5SMfUDNNuQkfTjFt2","","","","","","","","","","","","","","","","","","","1599","",""
"html-keyboard-response","172","341821","0.0-72.0-0.0","","2189.5","<div style=""display: flex; flex-direction: column; align-items: center; margin-top: -40px;""><img src=""images/pattern_4.png"" style=""width: 234px; height: 230px; margin-top: -50px;""><div style=""display: flex; justify-content: space-between; margin-top: 33px;""><img src=""images/choice_trial_9.png"" style=""width: 408px; height: 417px; margin-right: 200px;""><img src=""images/choice_trial_15.png"" style=""width: 408px; height: 417px;""></div></div>","j","delaylearn","learning","trial","657868411a3b07f7123686cf","DjPbuBrcTmZ5SMfUDNNuQkfTjFt2","3","images/choice_trial_9.png","images/choice_trial_15.png","images/pattern_4.png","j","j","7000","9","15","3","1","31","1","1","15","180","","","","",""
"html-keyboard-response","173","342828","0.0-72.0-1.0","","null","<div style=""display: flex; flex-direction: column; align-items: center; margin-top: -40px;""><img src=""images/pattern_4.png"" style=""width: 234px; height: 230px; margin-top: -50px;""><div style=""display: flex; justify-content: space-between; margin-top: 33px;""><img src=""images/choice_trial_15.png"" style=""width: 408px; height: 417px; margin-left:608px;""></div></div>","null","delaylearn","learning","display_response","657868411a3b07f7123686cf","DjPbuBrcTmZ5SMfUDNNuQkfTjFt2","","","","","","","","","","","","","","","","","chosen stimuli: images/choice_trial_15.png","","","",""
"html-keyboard-response","174","349838","0.0-72.0-2.0","","null","","null","delaylearn","learning","feedback_duration_window","657868411a3b07f7123686cf","DjPbuBrcTmZ5SMfUDNNuQkfTjFt2","","","","","","","","","","","","","","","","","","7000","","",""
"html-keyboard-response","175","351348","0.0-72.0-3.0","","null","<div style='margin:auto;width: auto; font-size: 150%'><span style='font-weight: bold; font-size: 100px; color: green;'>+10 points!</span><br><br></div>","null","delaylearn","learning","feedback_image_window","657868411a3b07f7123686cf","DjPbuBrcTmZ5SMfUDNNuQkfTjFt2","","","","","","","","","","","","","","","","","","","","",""
"html-keyboard-response","176","353014","0.0-73.0","","null","<div style=""font-size:100px;"">+</div>","null","delaylearn","learning","ITI","657868411a3b07f7123686cf","DjPbuBrcTmZ5SMfUDNNuQkfTjFt2","","","","","","","","","","","","","","","","","","","1664","",""
"html-keyboard-response","177","356023","0.0-74.0-0.0","","null","<div style=""display: flex; flex-direction: column; align-items: center; margin-top: -40px;""><img src=""images/pattern_3.png"" style=""width: 234px; height: 230px; margin-top: -50px;""><div style=""display: flex; justify-content: space-between; margin-top: 33px;""><img src=""images/choice_trial_10.png"" style=""width: 408px; height: 417px; margin-right: 200px;""><img src=""images/choice_trial_13.png"" style=""width: 408px; height: 417px;""></div></div>","null","delaylearn","learning","trial","657868411a3b07f7123686cf","DjPbuBrcTmZ5SMfUDNNuQkfTjFt2","3","images/choice_trial_10.png","images/choice_trial_13.png","images/pattern_3.png","j","j","7000","10","13","2","1","32","0","0","0","180","","","","",""
"html-keyboard-response","178","357032","0.0-74.0-1.0","","null","<div style='font-weight: bold; font-size: 75px; color: red;'>Missed Trial <br><br><br><br> Please respond faster</div>","null","delaylearn","learning","display_response","657868411a3b07f7123686cf","DjPbuBrcTmZ5SMfUDNNuQkfTjFt2","","","","","","","","","","","","","","","","","Missed trial","","","",""
"html-keyboard-response","179","357038","0.0-74.0-2.0","","null","","null","delaylearn","learning","feedback_duration_window","657868411a3b07f7123686cf","DjPbuBrcTmZ5SMfUDNNuQkfTjFt2","","","","","","","","","","","","","","","","","","0","","",""
"html-keyboard-response","180","357045","0.0-74.0-3.0","","null","","null","delaylearn","learning","feedback_image_window","657868411a3b07f7123686cf","DjPbuBrcTmZ5SMfUDNNuQkfTjFt2","","","","","","","","","","","","","","","","","","","","",""
"html-keyboard-response","181","359329","0.0-75.0","","null","<div style=""font-size:100px;"">+</div>","null","delaylearn","learning","ITI","657868411a3b07f7123686cf","DjPbuBrcTmZ5SMfUDNNuQkfTjFt2","","","","","","","","","","","","","","","","","","","2273","",""
"html-keyboard-response","182","362334","0.0-76.0-0.0","","null","<div style=""display: flex; flex-direction: column; align-items: center; margin-top: -40px;""><img src=""images/pattern_5.png"" style=""width: 234px; height: 230px; margin-top: -50px;""><div style=""display: flex; justify-content: space-between; margin-top: 33px;""><img src=""images/choice_trial_11.png"" style=""width: 408px; height: 417px; margin-right: 200px;""><img src=""images/choice_trial_2.png"" style=""width: 408px; height: 417px;""></div></div>","null","delaylearn","learning","trial","657868411a3b07f7123686cf","DjPbuBrcTmZ5SMfUDNNuQkfTjFt2","3","images/choice_trial_11.png","images/choice_trial_2.png","images/pattern_5.png","j","f","750","11","2","4","0","33","0","0","0","180","","","","",""
"html-keyboard-response","183","363346","0.0-76.0-1.0","","null","<div style='font-weight: bold; font-size: 75px; color: red;'>Missed Trial <br><br><br><br> Please respond faster</div>","null","delaylearn","learning","display_response","657868411a3b07f7123686cf","DjPbuBrcTmZ5SMfUDNNuQkfTjFt2","","","","","","","","","","","","","","","","","Missed trial","","","",""
"html-keyboard-response","184","363352","0.0-76.0-2.0","","null","","null","delaylearn","learning","feedback_duration_window","657868411a3b07f7123686cf","DjPbuBrcTmZ5SMfUDNNuQkfTjFt2","","","","","","","","","","","","","","","","","","0","","",""
"html-keyboard-response","185","363358","0.0-76.0-3.0","","null","","null","delaylearn","learning","feedback_image_window","657868411a3b07f7123686cf","DjPbuBrcTmZ5SMfUDNNuQkfTjFt2","","","","","","","","","","","","","","","","","","","","",""
"html-keyboard-response","186","365613","0.0-77.0","","null","<div style=""font-size:100px;"">+</div>","null","delaylearn","learning","ITI","657868411a3b07f7123686cf","DjPbuBrcTmZ5SMfUDNNuQkfTjFt2","","","","","","","","","","","","","","","","","","","2238","",""
"html-keyboard-response","187","366193","0.0-78.0-0.0","","574.5","<div style=""display: flex; flex-direction: column; align-items: center; margin-top: -40px;""><img src=""images/pattern_1.png"" style=""width: 234px; height: 230px; margin-top: -50px;""><div style=""display: flex; justify-content: space-between; margin-top: 33px;""><img src=""images/choice_trial_14.png"" style=""width: 408px; height: 417px; margin-right: 200px;""><img src=""images/choice_trial_8.png"" style=""width: 408px; height: 417px;""></div></div>","f","delaylearn","learning","trial","657868411a3b07f7123686cf","DjPbuBrcTmZ5SMfUDNNuQkfTjFt2","3","images/choice_trial_14.png","images/choice_trial_8.png","images/pattern_1.png","f","f","7000","14","8","1","0","34","1","1","14","190","","","","",""
"html-keyboard-response","188","367208","0.0-78.0-1.0","","null","<div style=""display: flex; flex-direction: column; align-items: center; margin-top: -40px;""><img src=""images/pattern_1.png"" style=""width: 234px; height: 230px; margin-top: -50px;""><div style=""display: flex; justify-content: space-between; margin-top: 33px;""><img src=""images/choice_trial_14.png"" style=""width: 408px; height: 417px; margin-right: 608px;""></div></div>","null","delaylearn","learning","display_response","657868411a3b07f7123686cf","DjPbuBrcTmZ5SMfUDNNuQkfTjFt2","","","","","","","","","","","","","","","","","chosen stimuli: images/choice_trial_14.png","","","",""
"html-keyboard-response","189","374217","0.0-78.0-2.0","","null","","null","delaylearn","learning","feedback_duration_window","657868411a3b07f7123686cf","DjPbuBrcTmZ5SMfUDNNuQkfTjFt2","","","","","","","","","","","","","","","","","","7000","","",""
"html-keyboard-response","190","375725","0.0-78.0-3.0","","null","<div style='margin:auto;width: auto; font-size: 150%'><span style='font-weight: bold; font-size: 100px; color: green;'>+10 points!</span><br><br></div>","null","delaylearn","learning","feedback_image_window","657868411a3b07f7123686cf","DjPbuBrcTmZ5SMfUDNNuQkfTjFt2","","","","","","","","","","","","","","","","","","","","",""
"html-keyboard-response","191","376238","0.0-79.0-0.0","","null","","null","","","mood_trial_fixation","","","","","","","","","","","","","","","","","","","","","","",""
"lmdlab-html-vas-response","192","382237","0.0-79.0-1.0","","4983","How happy are you right now?","0.19239083441418073","delaylearn","learning","mood_trial","657868411a3b07f7123686cf","DjPbuBrcTmZ5SMfUDNNuQkfTjFt2","","","","","","","","","","","","","","","","","","","","[""Very unhappy"",""Very happy""]",""
"html-keyboard-response","193","384108","0.0-80.0","","null","<div style=""font-size:100px;"">+</div>","null","delaylearn","learning","ITI","657868411a3b07f7123686cf","DjPbuBrcTmZ5SMfUDNNuQkfTjFt2","","","","","","","","","","","","","","","","","","","1863","",""
"html-keyboard-response","194","384963","0.0-81.0-0.0","","850.0999999046326","<div style=""display: flex; flex-direction: column; align-items: center; margin-top: -40px;""><img src=""images/pattern_6.png"" style=""width: 234px; height: 230px; margin-top: -50px;""><div style=""display: flex; justify-content: space-between; margin-top: 33px;""><img src=""images/choice_trial_16.png"" style=""width: 408px; height: 417px; margin-right: 200px;""><img src=""images/choice_trial_3.png"" style=""width: 408px; height: 417px;""></div></div>","j","delaylearn","learning","trial","657868411a3b07f7123686cf","DjPbuBrcTmZ5SMfUDNNuQkfTjFt2","3","images/choice_trial_16.png","images/choice_trial_3.png","images/pattern_6.png","j","f","750","16","3","5","0","35","0","1","3","200","","","","",""
"html-keyboard-response","195","385979","0.0-81.0-1.0","","null","<div style=""display: flex; flex-direction: column; align-items: center; margin-top: -40px;""><img src=""images/pattern_6.png"" style=""width: 234px; height: 230px; margin-top: -50px;""><div style=""display: flex; justify-content: space-between; margin-top: 33px;""><img src=""images/choice_trial_3.png"" style=""width: 408px; height: 417px; margin-left:608px;""></div></div>","null","delaylearn","learning","display_response","657868411a3b07f7123686cf","DjPbuBrcTmZ5SMfUDNNuQkfTjFt2","","","","","","","","","","","","","","","","","chosen stimuli: images/choice_trial_3.png","","","",""
"html-keyboard-response","196","386741","0.0-81.0-2.0","","null","","null","delaylearn","learning","feedback_duration_window","657868411a3b07f7123686cf","DjPbuBrcTmZ5SMfUDNNuQkfTjFt2","","","","","","","","","","","","","","","","","","750","","",""
"html-keyboard-response","197","388245","0.0-81.0-3.0","","null","<div style='margin:auto;width: auto; font-size: 150%'><span style='font-weight: bold; font-size: 100px; color: green;'>+10 points!</span><br><br></div>","null","delaylearn","learning","feedback_image_window","657868411a3b07f7123686cf","DjPbuBrcTmZ5SMfUDNNuQkfTjFt2","","","","","","","","","","","","","","","","","","","","",""
"html-keyboard-response","198","390375","0.0-82.0","","null","<div style=""font-size:100px;"">+</div>","null","delaylearn","learning","ITI","657868411a3b07f7123686cf","DjPbuBrcTmZ5SMfUDNNuQkfTjFt2","","","","","","","","","","","","","","","","","","","2115","",""
"html-keyboard-response","199","391398","0.0-83.0-0.0","","1018.3999996185303","<div style=""display: flex; flex-direction: column; align-items: center; margin-top: -40px;""><img src=""images/pattern_3.png"" style=""width: 234px; height: 230px; margin-top: -50px;""><div style=""display: flex; justify-content: space-between; margin-top: 33px;""><img src=""images/choice_trial_10.png"" style=""width: 408px; height: 417px; margin-right: 200px;""><img src=""images/choice_trial_13.png"" style=""width: 408px; height: 417px;""></div></div>","j","delaylearn","learning","trial","657868411a3b07f7123686cf","DjPbuBrcTmZ5SMfUDNNuQkfTjFt2","3","images/choice_trial_10.png","images/choice_trial_13.png","images/pattern_3.png","j","j","7000","10","13","2","1","36","1","1","13","210","","","","",""
"html-keyboard-response","200","392403","0.0-83.0-1.0","","null","<div style=""display: flex; flex-direction: column; align-items: center; margin-top: -40px;""><img src=""images/pattern_3.png"" style=""width: 234px; height: 230px; margin-top: -50px;""><div style=""display: flex; justify-content: space-between; margin-top: 33px;""><img src=""images/choice_trial_13.png"" style=""width: 408px; height: 417px; margin-left:608px;""></div></div>","null","delaylearn","learning","display_response","657868411a3b07f7123686cf","DjPbuBrcTmZ5SMfUDNNuQkfTjFt2","","","","","","","","","","","","","","","","","chosen stimuli: images/choice_trial_13.png","","","",""
"html-keyboard-response","201","399413","0.0-83.0-2.0","","null","","null","delaylearn","learning","feedback_duration_window","657868411a3b07f7123686cf","DjPbuBrcTmZ5SMfUDNNuQkfTjFt2","","","","","","","","","","","","","","","","","","7000","","",""
"html-keyboard-response","202","400916","0.0-83.0-3.0","","null","<div style='margin:auto;width: auto; font-size: 150%'><span style='font-weight: bold; font-size: 100px; color: green;'>+10 points!</span><br><br></div>","null","delaylearn","learning","feedback_image_window","657868411a3b07f7123686cf","DjPbuBrcTmZ5SMfUDNNuQkfTjFt2","","","","","","","","","","","","","","","","","","","","",""
"html-keyboard-response","203","402715","0.0-84.0","","null","<div style=""font-size:100px;"">+</div>","null","delaylearn","learning","ITI","657868411a3b07f7123686cf","DjPbuBrcTmZ5SMfUDNNuQkfTjFt2","","","","","","","","","","","","","","","","","","","1798","",""
"html-keyboard-response","204","403717","0.0-85.0-0.0","","997.3000001907349","<div style=""display: flex; flex-direction: column; align-items: center; margin-top: -40px;""><img src=""images/pattern_4.png"" style=""width: 234px; height: 230px; margin-top: -50px;""><div style=""display: flex; justify-content: space-between; margin-top: 33px;""><img src=""images/choice_trial_9.png"" style=""width: 408px; height: 417px; margin-right: 200px;""><img src=""images/choice_trial_15.png"" style=""width: 408px; height: 417px;""></div></div>","f","delaylearn","learning","trial","657868411a3b07f7123686cf","DjPbuBrcTmZ5SMfUDNNuQkfTjFt2","3","images/choice_trial_9.png","images/choice_trial_15.png","images/pattern_4.png","f","j","7000","9","15","3","1","37","0","1","9","220","","","","",""
"html-keyboard-response","205","404729","0.0-85.0-1.0","","null","<div style=""display: flex; flex-direction: column; align-items: center; margin-top: -40px;""><img src=""images/pattern_4.png"" style=""width: 234px; height: 230px; margin-top: -50px;""><div style=""display: flex; justify-content: space-between; margin-top: 33px;""><img src=""images/choice_trial_9.png"" style=""width: 408px; height: 417px; margin-right: 608px;""></div></div>","null","delaylearn","learning","display_response","657868411a3b07f7123686cf","DjPbuBrcTmZ5SMfUDNNuQkfTjFt2","","","","","","","","","","","","","","","","","chosen stimuli: images/choice_trial_9.png","","","",""
"html-keyboard-response","206","411741","0.0-85.0-2.0","","null","","null","delaylearn","learning","feedback_duration_window","657868411a3b07f7123686cf","DjPbuBrcTmZ5SMfUDNNuQkfTjFt2","","","","","","","","","","","","","","","","","","7000","","",""
"html-keyboard-response","207","413257","0.0-85.0-3.0","","null","<div style='margin:auto;width: auto; font-size: 150%'><span style='font-weight: bold; font-size: 100px; color: green;'>+10 points!</span><br><br></div>","null","delaylearn","learning","feedback_image_window","657868411a3b07f7123686cf","DjPbuBrcTmZ5SMfUDNNuQkfTjFt2","","","","","","","","","","","","","","","","","","","","",""
"html-keyboard-response","208","415154","0.0-86.0","","null","<div style=""font-size:100px;"">+</div>","null","delaylearn","learning","ITI","657868411a3b07f7123686cf","DjPbuBrcTmZ5SMfUDNNuQkfTjFt2","","","","","","","","","","","","","","","","","","","1886","",""
"html-keyboard-response","209","416784","0.0-87.0-0.0","","1625.2000002861023","<div style=""display: flex; flex-direction: column; align-items: center; margin-top: -40px;""><img src=""images/pattern_7.png"" style=""width: 234px; height: 230px; margin-top: -50px;""><div style=""display: flex; justify-content: space-between; margin-top: 33px;""><img src=""images/choice_trial_6.png"" style=""width: 408px; height: 417px; margin-right: 200px;""><img src=""images/choice_trial_12.png"" style=""width: 408px; height: 417px;""></div></div>","f","delaylearn","learning","trial","657868411a3b07f7123686cf","DjPbuBrcTmZ5SMfUDNNuQkfTjFt2","3","images/choice_trial_6.png","images/choice_trial_12.png","images/pattern_7.png","f","f","750","6","12","6","0","38","1","1","6","230","","","","",""
"html-keyboard-response","210","417798","0.0-87.0-1.0","","null","<div style=""display: flex; flex-direction: column; align-items: center; margin-top: -40px;""><img src=""images/pattern_7.png"" style=""width: 234px; height: 230px; margin-top: -50px;""><div style=""display: flex; justify-content: space-between; margin-top: 33px;""><img src=""images/choice_trial_6.png"" style=""width: 408px; height: 417px; margin-right: 608px;""></div></div>","null","delaylearn","learning","display_response","657868411a3b07f7123686cf","DjPbuBrcTmZ5SMfUDNNuQkfTjFt2","","","","","","","","","","","","","","","","","chosen stimuli: images/choice_trial_6.png","","","",""
"html-keyboard-response","211","418565","0.0-87.0-2.0","","null","","null","delaylearn","learning","feedback_duration_window","657868411a3b07f7123686cf","DjPbuBrcTmZ5SMfUDNNuQkfTjFt2","","","","","","","","","","","","","","","","","","750","","",""
"html-keyboard-response","212","420080","0.0-87.0-3.0","","null","<div style='margin:auto;width: auto; font-size: 150%'><span style='font-weight: bold; font-size: 100px; color: green;'>+10 points!</span><br><br></div>","null","delaylearn","learning","feedback_image_window","657868411a3b07f7123686cf","DjPbuBrcTmZ5SMfUDNNuQkfTjFt2","","","","","","","","","","","","","","","","","","","","",""
"html-keyboard-response","213","422114","0.0-88.0","","null","<div style=""font-size:100px;"">+</div>","null","delaylearn","learning","ITI","657868411a3b07f7123686cf","DjPbuBrcTmZ5SMfUDNNuQkfTjFt2","","","","","","","","","","","","","","","","","","","2016","",""
"html-keyboard-response","214","422791","0.0-89.0-0.0","","671.8999996185303","<div style=""display: flex; flex-direction: column; align-items: center; margin-top: -40px;""><img src=""images/pattern_1.png"" style=""width: 234px; height: 230px; margin-top: -50px;""><div style=""display: flex; justify-content: space-between; margin-top: 33px;""><img src=""images/choice_trial_14.png"" style=""width: 408px; height: 417px; margin-right: 200px;""><img src=""images/choice_trial_8.png"" style=""width: 408px; height: 417px;""></div></div>","f","delaylearn","learning","trial","657868411a3b07f7123686cf","DjPbuBrcTmZ5SMfUDNNuQkfTjFt2","3","images/choice_trial_14.png","images/choice_trial_8.png","images/pattern_1.png","f","f","7000","14","8","1","0","39","1","1","14","240","","","","",""
"html-keyboard-response","215","423793","0.0-89.0-1.0","","null","<div style=""display: flex; flex-direction: column; align-items: center; margin-top: -40px;""><img src=""images/pattern_1.png"" style=""width: 234px; height: 230px; margin-top: -50px;""><div style=""display: flex; justify-content: space-between; margin-top: 33px;""><img src=""images/choice_trial_14.png"" style=""width: 408px; height: 417px; margin-right: 608px;""></div></div>","null","delaylearn","learning","display_response","657868411a3b07f7123686cf","DjPbuBrcTmZ5SMfUDNNuQkfTjFt2","","","","","","","","","","","","","","","","","chosen stimuli: images/choice_trial_14.png","","","",""
"html-keyboard-response","216","430807","0.0-89.0-2.0","","null","","null","delaylearn","learning","feedback_duration_window","657868411a3b07f7123686cf","DjPbuBrcTmZ5SMfUDNNuQkfTjFt2","","","","","","","","","","","","","","","","","","7000","","",""
"html-keyboard-response","217","432320","0.0-89.0-3.0","","null","<div style='margin:auto;width: auto; font-size: 150%'><span style='font-weight: bold; font-size: 100px; color: green;'>+10 points!</span><br><br></div>","null","delaylearn","learning","feedback_image_window","657868411a3b07f7123686cf","DjPbuBrcTmZ5SMfUDNNuQkfTjFt2","","","","","","","","","","","","","","","","","","","","",""
"html-keyboard-response","218","432828","0.0-90.0-0.0","","null","","null","","","mood_trial_fixation","","","","","","","","","","","","","","","","","","","","","","",""
"lmdlab-html-vas-response","219","440109","0.0-90.0-1.0","","6264","How happy are you right now?","0.10124361028458076","delaylearn","learning","mood_trial","657868411a3b07f7123686cf","DjPbuBrcTmZ5SMfUDNNuQkfTjFt2","","","","","","","","","","","","","","","","","","","","[""Very unhappy"",""Very happy""]",""
"html-keyboard-response","220","442276","0.0-91.0","","null","<div style=""font-size:100px;"">+</div>","null","delaylearn","learning","ITI","657868411a3b07f7123686cf","DjPbuBrcTmZ5SMfUDNNuQkfTjFt2","","","","","","","","","","","","","","","","","","","2159","",""
"html-keyboard-response","221","442883","0.0-92.0-0.0","","603.7000002861023","<div style=""display: flex; flex-direction: column; align-items: center; margin-top: -40px;""><img src=""images/pattern_3.png"" style=""width: 234px; height: 230px; margin-top: -50px;""><div style=""display: flex; justify-content: space-between; margin-top: 33px;""><img src=""images/choice_trial_13.png"" style=""width: 408px; height: 417px; margin-right: 200px;""><img src=""images/choice_trial_10.png"" style=""width: 408px; height: 417px;""></div></div>","f","delaylearn","learning","trial","657868411a3b07f7123686cf","DjPbuBrcTmZ5SMfUDNNuQkfTjFt2","3","images/choice_trial_13.png","images/choice_trial_10.png","images/pattern_3.png","j","f","7000","13","10","2","0","40","1","0","13","240","","","","",""
