"trial_type","trial_index","time_elapsed","internal_node_id","participant","rt","stimulus","response","exp_name","exp_stage","test_part","subjectID","databaseID","counterbal","choice_stimuli_1","choice_stimuli_2","pattern_stimuli","rewarded_answer","correct_answer","feedback_duration_times","stim_left","stim_right","pair","leftright_counter","trial","response_correct","response_rewarded","chosen_stim","counter","displayed_choice","feedback_durations","ITI_duration","labels","rest_warning"
"pavlovia","0","549","0.0-0.0","","","","","","","","","","","","","","","","","","","","","","","","","","","","","",""
"html-keyboard-response","1","3560","0.0-1.0","","null","<div style=""font-size:100px;"">+</div>","null","delaylearn","learning","pre_fixation","5c3205407e0559000172f153","","","","","","","","","","","","","","","","","","","","","",""
"html-keyboard-response","2","4726","0.0-2.0-0.0","","1162.0999999940395","<div style=""display: flex; flex-direction: column; align-items: center; margin-top: -40px;""><img src=""images/demo_images/pattern_1.png"" style=""width: 234px; height: 230px; margin-top: -50px;""><div style=""display: flex; justify-content: space-between; margin-top: 33px;""><img src=""images/demo_images/choice_trial_2.png"" style=""width: 408px; height: 417px; margin-right: 200px;""><img src=""images/demo_images/choice_trial_1.png"" style=""width: 408px; height: 417px;""></div></div>","f","delaylearn","learning","trial","5c3205407e0559000172f153","SuV98d5162cH7XkpLKAowCIyrM22","2","images/demo_images/choice_trial_2.png","images/demo_images/choice_trial_1.png","images/demo_images/pattern_1.png","j","j","3000","2","1","20","1","1","0","0","2","0","","","","",""
"html-keyboard-response","3","5735","0.0-2.0-1.0","","null","<div style=""display: flex; flex-direction: column; align-items: center; margin-top: -40px;""><img src=""images/demo_images/pattern_1.png"" style=""width: 234px; height: 230px; margin-top: -50px;""><div style=""display: flex; justify-content: space-between; margin-top: 33px;""><img src=""images/demo_images/choice_trial_2.png"" style=""width: 408px; height: 417px; margin-right: 608px;""></div></div>","null","delaylearn","learning","display_response","5c3205407e0559000172f153","SuV98d5162cH7XkpLKAowCIyrM22","","","","","","","","","","","","","","","","","chosen stimuli: images/demo_images/choice_trial_2.png","","","",""
"html-keyboard-response","4","8739","0.0-2.0-2.0","","null","","null","delaylearn","learning","feedback_duration_window","5c3205407e0559000172f153","SuV98d5162cH7XkpLKAowCIyrM22","","","","","","","","","","","","","","","","","","3000","","",""
"html-keyboard-response","5","10253","0.0-2.0-3.0","","null","<div style='margin:auto;width: auto; font-size: 150%'><span style='font-weight: bold; font-size: 100px; color: red;'>0 points!</span><br><br></div>","null","delaylearn","learning","feedback_image_window","5c3205407e0559000172f153","SuV98d5162cH7XkpLKAowCIyrM22","","","","","","","","","","","","","","","","","","","","",""
"html-keyboard-response","6","12370","0.0-3.0","","null","<div style=""font-size:100px;"">+</div>","null","delaylearn","learning","ITI","5c3205407e0559000172f153","SuV98d5162cH7XkpLKAowCIyrM22","","","","","","","","","","","","","","","","","","","2101","",""
"html-keyboard-response","7","13255","0.0-4.0-0.0","","882","<div style=""display: flex; flex-direction: column; align-items: center; margin-top: -40px;""><img src=""images/demo_images/pattern_1.png"" style=""width: 234px; height: 230px; margin-top: -50px;""><div style=""display: flex; justify-content: space-between; margin-top: 33px;""><img src=""images/demo_images/choice_trial_2.png"" style=""width: 408px; height: 417px; margin-right: 200px;""><img src=""images/demo_images/choice_trial_1.png"" style=""width: 408px; height: 417px;""></div></div>","j","delaylearn","learning","trial","5c3205407e0559000172f153","SuV98d5162cH7XkpLKAowCIyrM22","2","images/demo_images/choice_trial_2.png","images/demo_images/choice_trial_1.png","images/demo_images/pattern_1.png","j","j","3000","2","1","20","1","2","1","1","1","10","","","","",""
"html-keyboard-response","8","14266","0.0-4.0-1.0","","null","<div style=""display: flex; flex-direction: column; align-items: center; margin-top: -40px;""><img src=""images/demo_images/pattern_1.png"" style=""width: 234px; height: 230px; margin-top: -50px;""><div style=""display: flex; justify-content: space-between; margin-top: 33px;""><img src=""images/demo_images/choice_trial_1.png"" style=""width: 408px; height: 417px; margin-left:608px;""></div></div>","null","delaylearn","learning","display_response","5c3205407e0559000172f153","SuV98d5162cH7XkpLKAowCIyrM22","","","","","","","","","","","","","","","","","chosen stimuli: images/demo_images/choice_trial_1.png","","","",""
"html-keyboard-response","9","17277","0.0-4.0-2.0","","null","","null","delaylearn","learning","feedback_duration_window","5c3205407e0559000172f153","SuV98d5162cH7XkpLKAowCIyrM22","","","","","","","","","","","","","","","","","","3000","","",""
"html-keyboard-response","10","18794","0.0-4.0-3.0","","null","<div style='margin:auto;width: auto; font-size: 150%'><span style='font-weight: bold; font-size: 100px; color: green;'>+10 points!</span><br><br></div>","null","delaylearn","learning","feedback_image_window","5c3205407e0559000172f153","SuV98d5162cH7XkpLKAowCIyrM22","","","","","","","","","","","","","","","","","","","","",""
"html-keyboard-response","11","20464","0.0-5.0","","null","<div style=""font-size:100px;"">+</div>","null","delaylearn","learning","ITI","5c3205407e0559000172f153","SuV98d5162cH7XkpLKAowCIyrM22","","","","","","","","","","","","","","","","","","","1657","",""
"html-keyboard-response","12","21668","0.0-6.0-0.0","","1199.9000000059605","<div style=""display: flex; flex-direction: column; align-items: center; margin-top: -40px;""><img src=""images/demo_images/pattern_1.png"" style=""width: 234px; height: 230px; margin-top: -50px;""><div style=""display: flex; justify-content: space-between; margin-top: 33px;""><img src=""images/demo_images/choice_trial_1.png"" style=""width: 408px; height: 417px; margin-right: 200px;""><img src=""images/demo_images/choice_trial_2.png"" style=""width: 408px; height: 417px;""></div></div>","f","delaylearn","learning","trial","5c3205407e0559000172f153","SuV98d5162cH7XkpLKAowCIyrM22","2","images/demo_images/choice_trial_1.png","images/demo_images/choice_trial_2.png","images/demo_images/pattern_1.png","j","f","3000","1","2","20","0","3","1","0","1","10","","","","",""
"html-keyboard-response","13","22672","0.0-6.0-1.0","","null","<div style=""display: flex; flex-direction: column; align-items: center; margin-top: -40px;""><img src=""images/demo_images/pattern_1.png"" style=""width: 234px; height: 230px; margin-top: -50px;""><div style=""display: flex; justify-content: space-between; margin-top: 33px;""><img src=""images/demo_images/choice_trial_1.png"" style=""width: 408px; height: 417px; margin-right: 608px;""></div></div>","null","delaylearn","learning","display_response","5c3205407e0559000172f153","SuV98d5162cH7XkpLKAowCIyrM22","","","","","","","","","","","","","","","","","chosen stimuli: images/demo_images/choice_trial_1.png","","","",""
"html-keyboard-response","14","25689","0.0-6.0-2.0","","null","","null","delaylearn","learning","feedback_duration_window","5c3205407e0559000172f153","SuV98d5162cH7XkpLKAowCIyrM22","","","","","","","","","","","","","","","","","","3000","","",""
"html-keyboard-response","15","27199","0.0-6.0-3.0","","null","<div style='margin:auto;width: auto; font-size: 150%'><span style='font-weight: bold; font-size: 100px; color: red;'>0 points!</span><br><br></div>","null","delaylearn","learning","feedback_image_window","5c3205407e0559000172f153","SuV98d5162cH7XkpLKAowCIyrM22","","","","","","","","","","","","","","","","","","","","",""
"html-keyboard-response","16","28868","0.0-7.0","","null","<div style=""font-size:100px;"">+</div>","null","delaylearn","learning","ITI","5c3205407e0559000172f153","SuV98d5162cH7XkpLKAowCIyrM22","","","","","","","","","","","","","","","","","","","1651","",""
"html-keyboard-response","17","30626","0.0-8.0-0.0","","1754.5999999940395","<div style=""display: flex; flex-direction: column; align-items: center; margin-top: -40px;""><img src=""images/demo_images/pattern_1.png"" style=""width: 234px; height: 230px; margin-top: -50px;""><div style=""display: flex; justify-content: space-between; margin-top: 33px;""><img src=""images/demo_images/choice_trial_1.png"" style=""width: 408px; height: 417px; margin-right: 200px;""><img src=""images/demo_images/choice_trial_2.png"" style=""width: 408px; height: 417px;""></div></div>","f","delaylearn","learning","trial","5c3205407e0559000172f153","SuV98d5162cH7XkpLKAowCIyrM22","2","images/demo_images/choice_trial_1.png","images/demo_images/choice_trial_2.png","images/demo_images/pattern_1.png","f","f","3000","1","2","20","0","4","1","1","1","20","","","","",""
"html-keyboard-response","18","31642","0.0-8.0-1.0","","null","<div style=""display: flex; flex-direction: column; align-items: center; margin-top: -40px;""><img src=""images/demo_images/pattern_1.png"" style=""width: 234px; height: 230px; margin-top: -50px;""><div style=""display: flex; justify-content: space-between; margin-top: 33px;""><img src=""images/demo_images/choice_trial_1.png"" style=""width: 408px; height: 417px; margin-right: 608px;""></div></div>","null","delaylearn","learning","display_response","5c3205407e0559000172f153","SuV98d5162cH7XkpLKAowCIyrM22","","","","","","","","","","","","","","","","","chosen stimuli: images/demo_images/choice_trial_1.png","","","",""
"html-keyboard-response","19","34654","0.0-8.0-2.0","","null","","null","delaylearn","learning","feedback_duration_window","5c3205407e0559000172f153","SuV98d5162cH7XkpLKAowCIyrM22","","","","","","","","","","","","","","","","","","3000","","",""
"html-keyboard-response","20","36170","0.0-8.0-3.0","","null","<div style='margin:auto;width: auto; font-size: 150%'><span style='font-weight: bold; font-size: 100px; color: green;'>+10 points!</span><br><br></div>","null","delaylearn","learning","feedback_image_window","5c3205407e0559000172f153","SuV98d5162cH7XkpLKAowCIyrM22","","","","","","","","","","","","","","","","","","","","",""
"html-keyboard-response","21","36686","0.0-9.0-0.0","","null","","null","","","mood_trial_fixation","","","","","","","","","","","","","","","","","","","","","","",""
"lmdlab-html-vas-response","22","42513","0.0-9.0-1.0","","4784","How happy are you right now?","0.3502763554982876","delaylearn","learning","mood_trial","5c3205407e0559000172f153","SuV98d5162cH7XkpLKAowCIyrM22","","","","","","","","","","","","","","","","","","","","[""Very unhappy"",""Very happy""]",""
"html-keyboard-response","23","44339","0.0-10.0","","null","<div style=""font-size:100px;"">+</div>","null","delaylearn","learning","ITI","5c3205407e0559000172f153","SuV98d5162cH7XkpLKAowCIyrM22","","","","","","","","","","","","","","","","","","","1813","",""
"html-keyboard-response","24","45569","0.0-11.0-0.0","","1225.7999999821186","<div style=""display: flex; flex-direction: column; align-items: center; margin-top: -40px;""><img src=""images/demo_images/pattern_1.png"" style=""width: 234px; height: 230px; margin-top: -50px;""><div style=""display: flex; justify-content: space-between; margin-top: 33px;""><img src=""images/demo_images/choice_trial_2.png"" style=""width: 408px; height: 417px; margin-right: 200px;""><img src=""images/demo_images/choice_trial_1.png"" style=""width: 408px; height: 417px;""></div></div>","j","delaylearn","learning","trial","5c3205407e0559000172f153","SuV98d5162cH7XkpLKAowCIyrM22","2","images/demo_images/choice_trial_2.png","images/demo_images/choice_trial_1.png","images/demo_images/pattern_1.png","j","j","3000","2","1","20","1","5","1","1","1","30","","","","",""
"html-keyboard-response","25","46584","0.0-11.0-1.0","","null","<div style=""display: flex; flex-direction: column; align-items: center; margin-top: -40px;""><img src=""images/demo_images/pattern_1.png"" style=""width: 234px; height: 230px; margin-top: -50px;""><div style=""display: flex; justify-content: space-between; margin-top: 33px;""><img src=""images/demo_images/choice_trial_1.png"" style=""width: 408px; height: 417px; margin-left:608px;""></div></div>","null","delaylearn","learning","display_response","5c3205407e0559000172f153","SuV98d5162cH7XkpLKAowCIyrM22","","","","","","","","","","","","","","","","","chosen stimuli: images/demo_images/choice_trial_1.png","","","",""
"html-keyboard-response","26","49599","0.0-11.0-2.0","","null","","null","delaylearn","learning","feedback_duration_window","5c3205407e0559000172f153","SuV98d5162cH7XkpLKAowCIyrM22","","","","","","","","","","","","","","","","","","3000","","",""
"html-keyboard-response","27","51109","0.0-11.0-3.0","","null","<div style='margin:auto;width: auto; font-size: 150%'><span style='font-weight: bold; font-size: 100px; color: green;'>+10 points!</span><br><br></div>","null","delaylearn","learning","feedback_image_window","5c3205407e0559000172f153","SuV98d5162cH7XkpLKAowCIyrM22","","","","","","","","","","","","","","","","","","","","",""
"html-keyboard-response","28","52912","0.0-12.0","","null","<div style=""font-size:100px;"">+</div>","null","delaylearn","learning","ITI","5c3205407e0559000172f153","SuV98d5162cH7XkpLKAowCIyrM22","","","","","","","","","","","","","","","","","","","1793","",""
"html-keyboard-response","29","54499","0.0-13.0-0.0","","1583","<div style=""display: flex; flex-direction: column; align-items: center; margin-top: -40px;""><img src=""images/demo_images/pattern_1.png"" style=""width: 234px; height: 230px; margin-top: -50px;""><div style=""display: flex; justify-content: space-between; margin-top: 33px;""><img src=""images/demo_images/choice_trial_1.png"" style=""width: 408px; height: 417px; margin-right: 200px;""><img src=""images/demo_images/choice_trial_2.png"" style=""width: 408px; height: 417px;""></div></div>","f","delaylearn","learning","trial","5c3205407e0559000172f153","SuV98d5162cH7XkpLKAowCIyrM22","2","images/demo_images/choice_trial_1.png","images/demo_images/choice_trial_2.png","images/demo_images/pattern_1.png","f","f","3000","1","2","20","0","6","1","1","1","40","","","","",""
"html-keyboard-response","30","55512","0.0-13.0-1.0","","null","<div style=""display: flex; flex-direction: column; align-items: center; margin-top: -40px;""><img src=""images/demo_images/pattern_1.png"" style=""width: 234px; height: 230px; margin-top: -50px;""><div style=""display: flex; justify-content: space-between; margin-top: 33px;""><img src=""images/demo_images/choice_trial_1.png"" style=""width: 408px; height: 417px; margin-right: 608px;""></div></div>","null","delaylearn","learning","display_response","5c3205407e0559000172f153","SuV98d5162cH7XkpLKAowCIyrM22","","","","","","","","","","","","","","","","","chosen stimuli: images/demo_images/choice_trial_1.png","","","",""
"html-keyboard-response","31","58522","0.0-13.0-2.0","","null","","null","delaylearn","learning","feedback_duration_window","5c3205407e0559000172f153","SuV98d5162cH7XkpLKAowCIyrM22","","","","","","","","","","","","","","","","","","3000","","",""
"html-keyboard-response","32","60032","0.0-13.0-3.0","","null","<div style='margin:auto;width: auto; font-size: 150%'><span style='font-weight: bold; font-size: 100px; color: green;'>+10 points!</span><br><br></div>","null","delaylearn","learning","feedback_image_window","5c3205407e0559000172f153","SuV98d5162cH7XkpLKAowCIyrM22","","","","","","","","","","","","","","","","","","","","",""
"html-keyboard-response","33","62255","0.0-14.0","","null","<div style=""font-size:100px;"">+</div>","null","delaylearn","learning","ITI","5c3205407e0559000172f153","SuV98d5162cH7XkpLKAowCIyrM22","","","","","","","","","","","","","","","","","","","2221","",""
"html-keyboard-response","34","64157","0.0-15.0-0.0","","1898.2999999821186","<div style=""display: flex; flex-direction: column; align-items: center; margin-top: -40px;""><img src=""images/demo_images/pattern_1.png"" style=""width: 234px; height: 230px; margin-top: -50px;""><div style=""display: flex; justify-content: space-between; margin-top: 33px;""><img src=""images/demo_images/choice_trial_2.png"" style=""width: 408px; height: 417px; margin-right: 200px;""><img src=""images/demo_images/choice_trial_1.png"" style=""width: 408px; height: 417px;""></div></div>","f","delaylearn","learning","trial","5c3205407e0559000172f153","SuV98d5162cH7XkpLKAowCIyrM22","2","images/demo_images/choice_trial_2.png","images/demo_images/choice_trial_1.png","images/demo_images/pattern_1.png","j","j","3000","2","1","20","1","7","0","0","2","40","","","","",""
"html-keyboard-response","35","65169","0.0-15.0-1.0","","null","<div style=""display: flex; flex-direction: column; align-items: center; margin-top: -40px;""><img src=""images/demo_images/pattern_1.png"" style=""width: 234px; height: 230px; margin-top: -50px;""><div style=""display: flex; justify-content: space-between; margin-top: 33px;""><img src=""images/demo_images/choice_trial_2.png"" style=""width: 408px; height: 417px; margin-right: 608px;""></div></div>","null","delaylearn","learning","display_response","5c3205407e0559000172f153","SuV98d5162cH7XkpLKAowCIyrM22","","","","","","","","","","","","","","","","","chosen stimuli: images/demo_images/choice_trial_2.png","","","",""
"html-keyboard-response","36","68180","0.0-15.0-2.0","","null","","null","delaylearn","learning","feedback_duration_window","5c3205407e0559000172f153","SuV98d5162cH7XkpLKAowCIyrM22","","","","","","","","","","","","","","","","","","3000","","",""
"html-keyboard-response","37","69683","0.0-15.0-3.0","","null","<div style='margin:auto;width: auto; font-size: 150%'><span style='font-weight: bold; font-size: 100px; color: red;'>0 points!</span><br><br></div>","null","delaylearn","learning","feedback_image_window","5c3205407e0559000172f153","SuV98d5162cH7XkpLKAowCIyrM22","","","","","","","","","","","","","","","","","","","","",""
"html-keyboard-response","38","71644","0.0-16.0","","null","<div style=""font-size:100px;"">+</div>","null","delaylearn","learning","ITI","5c3205407e0559000172f153","SuV98d5162cH7XkpLKAowCIyrM22","","","","","","","","","","","","","","","","","","","1956","",""
"html-keyboard-response","39","73762","0.0-17.0-0.0","","2114","<div style=""display: flex; flex-direction: column; align-items: center; margin-top: -40px;""><img src=""images/demo_images/pattern_1.png"" style=""width: 234px; height: 230px; margin-top: -50px;""><div style=""display: flex; justify-content: space-between; margin-top: 33px;""><img src=""images/demo_images/choice_trial_1.png"" style=""width: 408px; height: 417px; margin-right: 200px;""><img src=""images/demo_images/choice_trial_2.png"" style=""width: 408px; height: 417px;""></div></div>","j","delaylearn","learning","trial","5c3205407e0559000172f153","SuV98d5162cH7XkpLKAowCIyrM22","2","images/demo_images/choice_trial_1.png","images/demo_images/choice_trial_2.png","images/demo_images/pattern_1.png","f","f","3000","1","2","20","0","8","0","0","2","40","","","","",""
"html-keyboard-response","40","74767","0.0-17.0-1.0","","null","<div style=""display: flex; flex-direction: column; align-items: center; margin-top: -40px;""><img src=""images/demo_images/pattern_1.png"" style=""width: 234px; height: 230px; margin-top: -50px;""><div style=""display: flex; justify-content: space-between; margin-top: 33px;""><img src=""images/demo_images/choice_trial_2.png"" style=""width: 408px; height: 417px; margin-left:608px;""></div></div>","null","delaylearn","learning","display_response","5c3205407e0559000172f153","SuV98d5162cH7XkpLKAowCIyrM22","","","","","","","","","","","","","","","","","chosen stimuli: images/demo_images/choice_trial_2.png","","","",""
"html-keyboard-response","41","77781","0.0-17.0-2.0","","null","","null","delaylearn","learning","feedback_duration_window","5c3205407e0559000172f153","SuV98d5162cH7XkpLKAowCIyrM22","","","","","","","","","","","","","","","","","","3000","","",""
"html-keyboard-response","42","79285","0.0-17.0-3.0","","null","<div style='margin:auto;width: auto; font-size: 150%'><span style='font-weight: bold; font-size: 100px; color: red;'>0 points!</span><br><br></div>","null","delaylearn","learning","feedback_image_window","5c3205407e0559000172f153","SuV98d5162cH7XkpLKAowCIyrM22","","","","","","","","","","","","","","","","","","","","",""
"html-button-response","43","82284","0.0-18.0","","2995.9000000059605","
  <div style=""display: flex; align-items: center; justify-content: center; height: 80vh;"">
  <div>
          <img src=""images/inst_demo_finish.png"" style=""width: 80vw; height:auto;"">
          <br><br>
      </div>
      <br><br>
  </div>","0","","","","","","","","","","","","","","","","","","","","","","","","","",""
"html-keyboard-response","44","90516","0.0-19.0","","8230.299999982119","
  <div style=""display: flex; align-items: center; justify-content: center; height: 80vh;"">
  <div>
          <img src=""images/inst_6.png"" style=""width: 80vw; height:auto;"">
          <br><br>
      </div>
      <br><br>
  </div>","f","","","","","","","","","","","","","","","","","","","","","","","","","",""
"html-keyboard-response","45","93524","0.0-20.0","","null","<div style=""font-size:100px;"">+</div>","null","delaylearn","learning","pre_fixation","5c3205407e0559000172f153","","","","","","","","","","","","","","","","","","","","","",""
"html-keyboard-response","46","95988","0.0-21.0","","null","<div style=""font-size:100px;"">+</div>","null","delaylearn","learning","ITI","5c3205407e0559000172f153","SuV98d5162cH7XkpLKAowCIyrM22","","","","","","","","","","","","","","","","","","","2455","",""
"html-keyboard-response","47","97495","0.0-22.0-0.0","","1502.6000000238419","<div style=""display: flex; flex-direction: column; align-items: center; margin-top: -40px;""><img src=""images/pattern_3.png"" style=""width: 234px; height: 230px; margin-top: -50px;""><div style=""display: flex; justify-content: space-between; margin-top: 33px;""><img src=""images/choice_trial_12.png"" style=""width: 408px; height: 417px; margin-right: 200px;""><img src=""images/choice_trial_14.png"" style=""width: 408px; height: 417px;""></div></div>","f","delaylearn","learning","trial","5c3205407e0559000172f153","SuV98d5162cH7XkpLKAowCIyrM22","2","images/choice_trial_12.png","images/choice_trial_14.png","images/pattern_3.png","f","f","7000","12","14","2","0","9","1","1","12","50","","","","",""
"html-keyboard-response","48","98499","0.0-22.0-1.0","","null","<div style=""display: flex; flex-direction: column; align-items: center; margin-top: -40px;""><img src=""images/pattern_3.png"" style=""width: 234px; height: 230px; margin-top: -50px;""><div style=""display: flex; justify-content: space-between; margin-top: 33px;""><img src=""images/choice_trial_12.png"" style=""width: 408px; height: 417px; margin-right: 608px;""></div></div>","null","delaylearn","learning","display_response","5c3205407e0559000172f153","SuV98d5162cH7XkpLKAowCIyrM22","","","","","","","","","","","","","","","","","chosen stimuli: images/choice_trial_12.png","","","",""
"html-keyboard-response","49","105509","0.0-22.0-2.0","","null","","null","delaylearn","learning","feedback_duration_window","5c3205407e0559000172f153","SuV98d5162cH7XkpLKAowCIyrM22","","","","","","","","","","","","","","","","","","7000","","",""
"html-keyboard-response","50","107014","0.0-22.0-3.0","","null","<div style='margin:auto;width: auto; font-size: 150%'><span style='font-weight: bold; font-size: 100px; color: green;'>+10 points!</span><br><br></div>","null","delaylearn","learning","feedback_image_window","5c3205407e0559000172f153","SuV98d5162cH7XkpLKAowCIyrM22","","","","","","","","","","","","","","","","","","","","",""
"html-keyboard-response","51","109215","0.0-23.0","","null","<div style=""font-size:100px;"">+</div>","null","delaylearn","learning","ITI","5c3205407e0559000172f153","SuV98d5162cH7XkpLKAowCIyrM22","","","","","","","","","","","","","","","","","","","2188","",""
"html-keyboard-response","52","111042","0.0-24.0-0.0","","1823.0999999940395","<div style=""display: flex; flex-direction: column; align-items: center; margin-top: -40px;""><img src=""images/pattern_7.png"" style=""width: 234px; height: 230px; margin-top: -50px;""><div style=""display: flex; justify-content: space-between; margin-top: 33px;""><img src=""images/choice_trial_15.png"" style=""width: 408px; height: 417px; margin-right: 200px;""><img src=""images/choice_trial_8.png"" style=""width: 408px; height: 417px;""></div></div>","j","delaylearn","learning","trial","5c3205407e0559000172f153","SuV98d5162cH7XkpLKAowCIyrM22","2","images/choice_trial_15.png","images/choice_trial_8.png","images/pattern_7.png","j","j","750","15","8","6","1","10","1","1","8","60","","","","",""
"html-keyboard-response","53","112049","0.0-24.0-1.0","","null","<div style=""display: flex; flex-direction: column; align-items: center; margin-top: -40px;""><img src=""images/pattern_7.png"" style=""width: 234px; height: 230px; margin-top: -50px;""><div style=""display: flex; justify-content: space-between; margin-top: 33px;""><img src=""images/choice_trial_8.png"" style=""width: 408px; height: 417px; margin-left:608px;""></div></div>","null","delaylearn","learning","display_response","5c3205407e0559000172f153","SuV98d5162cH7XkpLKAowCIyrM22","","","","","","","","","","","","","","","","","chosen stimuli: images/choice_trial_8.png","","","",""
"html-keyboard-response","54","112805","0.0-24.0-2.0","","null","","null","delaylearn","learning","feedback_duration_window","5c3205407e0559000172f153","SuV98d5162cH7XkpLKAowCIyrM22","","","","","","","","","","","","","","","","","","750","","",""
"html-keyboard-response","55","114320","0.0-24.0-3.0","","null","<div style='margin:auto;width: auto; font-size: 150%'><span style='font-weight: bold; font-size: 100px; color: green;'>+10 points!</span><br><br></div>","null","delaylearn","learning","feedback_image_window","5c3205407e0559000172f153","SuV98d5162cH7XkpLKAowCIyrM22","","","","","","","","","","","","","","","","","","","","",""
"html-keyboard-response","56","116098","0.0-25.0","","null","<div style=""font-size:100px;"">+</div>","null","delaylearn","learning","ITI","5c3205407e0559000172f153","SuV98d5162cH7XkpLKAowCIyrM22","","","","","","","","","","","","","","","","","","","1776","",""
"html-keyboard-response","57","117380","0.0-26.0-0.0","","1278.0999999940395","<div style=""display: flex; flex-direction: column; align-items: center; margin-top: -40px;""><img src=""images/pattern_4.png"" style=""width: 234px; height: 230px; margin-top: -50px;""><div style=""display: flex; justify-content: space-between; margin-top: 33px;""><img src=""images/choice_trial_4.png"" style=""width: 408px; height: 417px; margin-right: 200px;""><img src=""images/choice_trial_16.png"" style=""width: 408px; height: 417px;""></div></div>","f","delaylearn","learning","trial","5c3205407e0559000172f153","SuV98d5162cH7XkpLKAowCIyrM22","2","images/choice_trial_4.png","images/choice_trial_16.png","images/pattern_4.png","f","f","7000","4","16","3","0","11","1","1","4","70","","","","",""
"html-keyboard-response","58","118391","0.0-26.0-1.0","","null","<div style=""display: flex; flex-direction: column; align-items: center; margin-top: -40px;""><img src=""images/pattern_4.png"" style=""width: 234px; height: 230px; margin-top: -50px;""><div style=""display: flex; justify-content: space-between; margin-top: 33px;""><img src=""images/choice_trial_4.png"" style=""width: 408px; height: 417px; margin-right: 608px;""></div></div>","null","delaylearn","learning","display_response","5c3205407e0559000172f153","SuV98d5162cH7XkpLKAowCIyrM22","","","","","","","","","","","","","","","","","chosen stimuli: images/choice_trial_4.png","","","",""
"html-keyboard-response","59","125407","0.0-26.0-2.0","","null","","null","delaylearn","learning","feedback_duration_window","5c3205407e0559000172f153","SuV98d5162cH7XkpLKAowCIyrM22","","","","","","","","","","","","","","","","","","7000","","",""
"html-keyboard-response","60","126921","0.0-26.0-3.0","","null","<div style='margin:auto;width: auto; font-size: 150%'><span style='font-weight: bold; font-size: 100px; color: green;'>+10 points!</span><br><br></div>","null","delaylearn","learning","feedback_image_window","5c3205407e0559000172f153","SuV98d5162cH7XkpLKAowCIyrM22","","","","","","","","","","","","","","","","","","","","",""
"html-keyboard-response","61","129266","0.0-27.0","","null","<div style=""font-size:100px;"">+</div>","null","delaylearn","learning","ITI","5c3205407e0559000172f153","SuV98d5162cH7XkpLKAowCIyrM22","","","","","","","","","","","","","","","","","","","2342","",""
"html-keyboard-response","62","130476","0.0-28.0-0.0","","1205.2999999821186","<div style=""display: flex; flex-direction: column; align-items: center; margin-top: -40px;""><img src=""images/pattern_5.png"" style=""width: 234px; height: 230px; margin-top: -50px;""><div style=""display: flex; justify-content: space-between; margin-top: 33px;""><img src=""images/choice_trial_9.png"" style=""width: 408px; height: 417px; margin-right: 200px;""><img src=""images/choice_trial_2.png"" style=""width: 408px; height: 417px;""></div></div>","f","delaylearn","learning","trial","5c3205407e0559000172f153","SuV98d5162cH7XkpLKAowCIyrM22","2","images/choice_trial_9.png","images/choice_trial_2.png","images/pattern_5.png","j","j","750","9","2","4","1","12","0","0","9","70","","","","",""
"html-keyboard-response","63","131483","0.0-28.0-1.0","","null","<div style=""display: flex; flex-direction: column; align-items: center; margin-top: -40px;""><img src=""images/pattern_5.png"" style=""width: 234px; height: 230px; margin-top: -50px;""><div style=""display: flex; justify-content: space-between; margin-top: 33px;""><img src=""images/choice_trial_9.png"" style=""width: 408px; height: 417px; margin-right: 608px;""></div></div>","null","delaylearn","learning","display_response","5c3205407e0559000172f153","SuV98d5162cH7XkpLKAowCIyrM22","","","","","","","","","","","","","","","","","chosen stimuli: images/choice_trial_9.png","","","",""
"html-keyboard-response","64","132236","0.0-28.0-2.0","","null","","null","delaylearn","learning","feedback_duration_window","5c3205407e0559000172f153","SuV98d5162cH7XkpLKAowCIyrM22","","","","","","","","","","","","","","","","","","750","","",""
"html-keyboard-response","65","133741","0.0-28.0-3.0","","null","<div style='margin:auto;width: auto; font-size: 150%'><span style='font-weight: bold; font-size: 100px; color: red;'>0 points!</span><br><br></div>","null","delaylearn","learning","feedback_image_window","5c3205407e0559000172f153","SuV98d5162cH7XkpLKAowCIyrM22","","","","","","","","","","","","","","","","","","","","",""
"html-keyboard-response","66","135523","0.0-29.0","","null","<div style=""font-size:100px;"">+</div>","null","delaylearn","learning","ITI","5c3205407e0559000172f153","SuV98d5162cH7XkpLKAowCIyrM22","","","","","","","","","","","","","","","","","","","1768","",""
"html-keyboard-response","67","137983","0.0-30.0-0.0","","2456.300000011921","<div style=""display: flex; flex-direction: column; align-items: center; margin-top: -40px;""><img src=""images/pattern_6.png"" style=""width: 234px; height: 230px; margin-top: -50px;""><div style=""display: flex; justify-content: space-between; margin-top: 33px;""><img src=""images/choice_trial_11.png"" style=""width: 408px; height: 417px; margin-right: 200px;""><img src=""images/choice_trial_5.png"" style=""width: 408px; height: 417px;""></div></div>","j","delaylearn","learning","trial","5c3205407e0559000172f153","SuV98d5162cH7XkpLKAowCIyrM22","2","images/choice_trial_11.png","images/choice_trial_5.png","images/pattern_6.png","j","f","750","11","5","5","0","13","0","1","5","80","","","","",""
"html-keyboard-response","68","138998","0.0-30.0-1.0","","null","<div style=""display: flex; flex-direction: column; align-items: center; margin-top: -40px;""><img src=""images/pattern_6.png"" style=""width: 234px; height: 230px; margin-top: -50px;""><div style=""display: flex; justify-content: space-between; margin-top: 33px;""><img src=""images/choice_trial_5.png"" style=""width: 408px; height: 417px; margin-left:608px;""></div></div>","null","delaylearn","learning","display_response","5c3205407e0559000172f153","SuV98d5162cH7XkpLKAowCIyrM22","","","","","","","","","","","","","","","","","chosen stimuli: images/choice_trial_5.png","","","",""
"html-keyboard-response","69","139751","0.0-30.0-2.0","","null","","null","delaylearn","learning","feedback_duration_window","5c3205407e0559000172f153","SuV98d5162cH7XkpLKAowCIyrM22","","","","","","","","","","","","","","","","","","750","","",""
"html-keyboard-response","70","141269","0.0-30.0-3.0","","null","<div style='margin:auto;width: auto; font-size: 150%'><span style='font-weight: bold; font-size: 100px; color: green;'>+10 points!</span><br><br></div>","null","delaylearn","learning","feedback_image_window","5c3205407e0559000172f153","SuV98d5162cH7XkpLKAowCIyrM22","","","","","","","","","","","","","","","","","","","","",""
"html-keyboard-response","71","141783","0.0-31.0-0.0","","null","","null","","","mood_trial_fixation","","","","","","","","","","","","","","","","","","","","","","",""
"lmdlab-html-vas-response","72","146082","0.0-31.0-1.0","","3275","How happy are you right now?","0.46095418941371946","delaylearn","learning","mood_trial","5c3205407e0559000172f153","SuV98d5162cH7XkpLKAowCIyrM22","","","","","","","","","","","","","","","","","","","","[""Very unhappy"",""Very happy""]",""
"html-keyboard-response","73","148080","0.0-32.0","","null","<div style=""font-size:100px;"">+</div>","null","delaylearn","learning","ITI","5c3205407e0559000172f153","SuV98d5162cH7XkpLKAowCIyrM22","","","","","","","","","","","","","","","","","","","1983","",""
"html-keyboard-response","74","149718","0.0-33.0-0.0","","1633.8999999761581","<div style=""display: flex; flex-direction: column; align-items: center; margin-top: -40px;""><img src=""images/pattern_1.png"" style=""width: 234px; height: 230px; margin-top: -50px;""><div style=""display: flex; justify-content: space-between; margin-top: 33px;""><img src=""images/choice_trial_10.png"" style=""width: 408px; height: 417px; margin-right: 200px;""><img src=""images/choice_trial_3.png"" style=""width: 408px; height: 417px;""></div></div>","f","delaylearn","learning","trial","5c3205407e0559000172f153","SuV98d5162cH7XkpLKAowCIyrM22","2","images/choice_trial_10.png","images/choice_trial_3.png","images/pattern_1.png","j","j","7000","10","3","1","1","14","0","0","10","80","","","","",""
"html-keyboard-response","75","150734","0.0-33.0-1.0","","null","<div style=""display: flex; flex-direction: column; align-items: center; margin-top: -40px;""><img src=""images/pattern_1.png"" style=""width: 234px; height: 230px; margin-top: -50px;""><div style=""display: flex; justify-content: space-between; margin-top: 33px;""><img src=""images/choice_trial_10.png"" style=""width: 408px; height: 417px; margin-right: 608px;""></div></div>","null","delaylearn","learning","display_response","5c3205407e0559000172f153","SuV98d5162cH7XkpLKAowCIyrM22","","","","","","","","","","","","","","","","","chosen stimuli: images/choice_trial_10.png","","","",""
"html-keyboard-response","76","157736","0.0-33.0-2.0","","null","","null","delaylearn","learning","feedback_duration_window","5c3205407e0559000172f153","SuV98d5162cH7XkpLKAowCIyrM22","","","","","","","","","","","","","","","","","","7000","","",""
"html-keyboard-response","77","159250","0.0-33.0-3.0","","null","<div style='margin:auto;width: auto; font-size: 150%'><span style='font-weight: bold; font-size: 100px; color: red;'>0 points!</span><br><br></div>","null","delaylearn","learning","feedback_image_window","5c3205407e0559000172f153","SuV98d5162cH7XkpLKAowCIyrM22","","","","","","","","","","","","","","","","","","","","",""
"html-keyboard-response","78","160843","0.0-34.0","","null","<div style=""font-size:100px;"">+</div>","null","delaylearn","learning","ITI","5c3205407e0559000172f153","SuV98d5162cH7XkpLKAowCIyrM22","","","","","","","","","","","","","","","","","","","1586","",""
"html-keyboard-response","79","162658","0.0-35.0-0.0","","1811","<div style=""display: flex; flex-direction: column; align-items: center; margin-top: -40px;""><img src=""images/pattern_3.png"" style=""width: 234px; height: 230px; margin-top: -50px;""><div style=""display: flex; justify-content: space-between; margin-top: 33px;""><img src=""images/choice_trial_14.png"" style=""width: 408px; height: 417px; margin-right: 200px;""><img src=""images/choice_trial_12.png"" style=""width: 408px; height: 417px;""></div></div>","j","delaylearn","learning","trial","5c3205407e0559000172f153","SuV98d5162cH7XkpLKAowCIyrM22","2","images/choice_trial_14.png","images/choice_trial_12.png","images/pattern_3.png","f","j","7000","14","12","2","1","15","1","0","12","80","","","","",""
"html-keyboard-response","80","163667","0.0-35.0-1.0","","null","<div style=""display: flex; flex-direction: column; align-items: center; margin-top: -40px;""><img src=""images/pattern_3.png"" style=""width: 234px; height: 230px; margin-top: -50px;""><div style=""display: flex; justify-content: space-between; margin-top: 33px;""><img src=""images/choice_trial_12.png"" style=""width: 408px; height: 417px; margin-left:608px;""></div></div>","null","delaylearn","learning","display_response","5c3205407e0559000172f153","SuV98d5162cH7XkpLKAowCIyrM22","","","","","","","","","","","","","","","","","chosen stimuli: images/choice_trial_12.png","","","",""
"html-keyboard-response","81","170682","0.0-35.0-2.0","","null","","null","delaylearn","learning","feedback_duration_window","5c3205407e0559000172f153","SuV98d5162cH7XkpLKAowCIyrM22","","","","","","","","","","","","","","","","","","7000","","",""
"html-keyboard-response","82","172196","0.0-35.0-3.0","","null","<div style='margin:auto;width: auto; font-size: 150%'><span style='font-weight: bold; font-size: 100px; color: red;'>0 points!</span><br><br></div>","null","delaylearn","learning","feedback_image_window","5c3205407e0559000172f153","SuV98d5162cH7XkpLKAowCIyrM22","","","","","","","","","","","","","","","","","","","","",""
"html-keyboard-response","83","174220","0.0-36.0","","null","<div style=""font-size:100px;"">+</div>","null","delaylearn","learning","ITI","5c3205407e0559000172f153","SuV98d5162cH7XkpLKAowCIyrM22","","","","","","","","","","","","","","","","","","","2017","",""
"html-keyboard-response","84","175278","0.0-37.0-0.0","","1052.800000011921","<div style=""display: flex; flex-direction: column; align-items: center; margin-top: -40px;""><img src=""images/pattern_5.png"" style=""width: 234px; height: 230px; margin-top: -50px;""><div style=""display: flex; justify-content: space-between; margin-top: 33px;""><img src=""images/choice_trial_2.png"" style=""width: 408px; height: 417px; margin-right: 200px;""><img src=""images/choice_trial_9.png"" style=""width: 408px; height: 417px;""></div></div>","f","delaylearn","learning","trial","5c3205407e0559000172f153","SuV98d5162cH7XkpLKAowCIyrM22","2","images/choice_trial_2.png","images/choice_trial_9.png","images/pattern_5.png","f","f","750","2","9","4","0","16","1","1","2","90","","","","",""
"html-keyboard-response","85","176296","0.0-37.0-1.0","","null","<div style=""display: flex; flex-direction: column; align-items: center; margin-top: -40px;""><img src=""images/pattern_5.png"" style=""width: 234px; height: 230px; margin-top: -50px;""><div style=""display: flex; justify-content: space-between; margin-top: 33px;""><img src=""images/choice_trial_2.png"" style=""width: 408px; height: 417px; margin-right: 608px;""></div></div>","null","delaylearn","learning","display_response","5c3205407e0559000172f153","SuV98d5162cH7XkpLKAowCIyrM22","","","","","","","","","","","","","","","","","chosen stimuli: images/choice_trial_2.png","","","",""
"html-keyboard-response","86","177059","0.0-37.0-2.0","","null","","null","delaylearn","learning","feedback_duration_window","5c3205407e0559000172f153","SuV98d5162cH7XkpLKAowCIyrM22","","","","","","","","","","","","","","","","","","750","","",""
"html-keyboard-response","87","178575","0.0-37.0-3.0","","null","<div style='margin:auto;width: auto; font-size: 150%'><span style='font-weight: bold; font-size: 100px; color: green;'>+10 points!</span><br><br></div>","null","delaylearn","learning","feedback_image_window","5c3205407e0559000172f153","SuV98d5162cH7XkpLKAowCIyrM22","","","","","","","","","","","","","","","","","","","","",""
"html-keyboard-response","88","179079","0.0-38.0-0.0","","null","","null","","","mood_trial_fixation","","","","","","","","","","","","","","","","","","","","","","",""
"lmdlab-html-vas-response","89","182917","0.0-38.0-1.0","","2813","How happy are you right now?","0.406700349259096","delaylearn","learning","mood_trial","5c3205407e0559000172f153","SuV98d5162cH7XkpLKAowCIyrM22","","","","","","","","","","","","","","","","","","","","[""Very unhappy"",""Very happy""]",""
"html-keyboard-response","90","185300","0.0-39.0","","null","<div style=""font-size:100px;"">+</div>","null","delaylearn","learning","ITI","5c3205407e0559000172f153","SuV98d5162cH7XkpLKAowCIyrM22","","","","","","","","","","","","","","","","","","","2371","",""
"html-keyboard-response","91","186748","0.0-40.0-0.0","","1443.0999999940395","<div style=""display: flex; flex-direction: column; align-items: center; margin-top: -40px;""><img src=""images/pattern_6.png"" style=""width: 234px; height: 230px; margin-top: -50px;""><div style=""display: flex; justify-content: space-between; margin-top: 33px;""><img src=""images/choice_trial_11.png"" style=""width: 408px; height: 417px; margin-right: 200px;""><img src=""images/choice_trial_5.png"" style=""width: 408px; height: 417px;""></div></div>","f","delaylearn","learning","trial","5c3205407e0559000172f153","SuV98d5162cH7XkpLKAowCIyrM22","2","images/choice_trial_11.png","images/choice_trial_5.png","images/pattern_6.png","f","f","750","11","5","5","0","17","1","1","11","100","","","","",""
"html-keyboard-response","92","187756","0.0-40.0-1.0","","null","<div style=""display: flex; flex-direction: column; align-items: center; margin-top: -40px;""><img src=""images/pattern_6.png"" style=""width: 234px; height: 230px; margin-top: -50px;""><div style=""display: flex; justify-content: space-between; margin-top: 33px;""><img src=""images/choice_trial_11.png"" style=""width: 408px; height: 417px; margin-right: 608px;""></div></div>","null","delaylearn","learning","display_response","5c3205407e0559000172f153","SuV98d5162cH7XkpLKAowCIyrM22","","","","","","","","","","","","","","","","","chosen stimuli: images/choice_trial_11.png","","","",""
"html-keyboard-response","93","188523","0.0-40.0-2.0","","null","","null","delaylearn","learning","feedback_duration_window","5c3205407e0559000172f153","SuV98d5162cH7XkpLKAowCIyrM22","","","","","","","","","","","","","","","","","","750","","",""
"html-keyboard-response","94","190036","0.0-40.0-3.0","","null","<div style='margin:auto;width: auto; font-size: 150%'><span style='font-weight: bold; font-size: 100px; color: green;'>+10 points!</span><br><br></div>","null","delaylearn","learning","feedback_image_window","5c3205407e0559000172f153","SuV98d5162cH7XkpLKAowCIyrM22","","","","","","","","","","","","","","","","","","","","",""
"html-keyboard-response","95","192064","0.0-41.0","","null","<div style=""font-size:100px;"">+</div>","null","delaylearn","learning","ITI","5c3205407e0559000172f153","SuV98d5162cH7XkpLKAowCIyrM22","","","","","","","","","","","","","","","","","","","2014","",""
"html-keyboard-response","96","193335","0.0-42.0-0.0","","1267.0999999940395","<div style=""display: flex; flex-direction: column; align-items: center; margin-top: -40px;""><img src=""images/pattern_4.png"" style=""width: 234px; height: 230px; margin-top: -50px;""><div style=""display: flex; justify-content: space-between; margin-top: 33px;""><img src=""images/choice_trial_16.png"" style=""width: 408px; height: 417px; margin-right: 200px;""><img src=""images/choice_trial_4.png"" style=""width: 408px; height: 417px;""></div></div>","f","delaylearn","learning","trial","5c3205407e0559000172f153","SuV98d5162cH7XkpLKAowCIyrM22","2","images/choice_trial_16.png","images/choice_trial_4.png","images/pattern_4.png","j","j","7000","16","4","3","1","18","0","0","16","100","","","","",""
"html-keyboard-response","97","194347","0.0-42.0-1.0","","null","<div style=""display: flex; flex-direction: column; align-items: center; margin-top: -40px;""><img src=""images/pattern_4.png"" style=""width: 234px; height: 230px; margin-top: -50px;""><div style=""display: flex; justify-content: space-between; margin-top: 33px;""><img src=""images/choice_trial_16.png"" style=""width: 408px; height: 417px; margin-right: 608px;""></div></div>","null","delaylearn","learning","display_response","5c3205407e0559000172f153","SuV98d5162cH7XkpLKAowCIyrM22","","","","","","","","","","","","","","","","","chosen stimuli: images/choice_trial_16.png","","","",""
"html-keyboard-response","98","201354","0.0-42.0-2.0","","null","","null","delaylearn","learning","feedback_duration_window","5c3205407e0559000172f153","SuV98d5162cH7XkpLKAowCIyrM22","","","","","","","","","","","","","","","","","","7000","","",""
"html-keyboard-response","99","202860","0.0-42.0-3.0","","null","<div style='margin:auto;width: auto; font-size: 150%'><span style='font-weight: bold; font-size: 100px; color: red;'>0 points!</span><br><br></div>","null","delaylearn","learning","feedback_image_window","5c3205407e0559000172f153","SuV98d5162cH7XkpLKAowCIyrM22","","","","","","","","","","","","","","","","","","","","",""
"html-keyboard-response","100","204376","0.0-43.0","","null","<div style=""font-size:100px;"">+</div>","null","delaylearn","learning","ITI","5c3205407e0559000172f153","SuV98d5162cH7XkpLKAowCIyrM22","","","","","","","","","","","","","","","","","","","1506","",""
"html-keyboard-response","101","205465","0.0-44.0-0.0","","1085.300000011921","<div style=""display: flex; flex-direction: column; align-items: center; margin-top: -40px;""><img src=""images/pattern_7.png"" style=""width: 234px; height: 230px; margin-top: -50px;""><div style=""display: flex; justify-content: space-between; margin-top: 33px;""><img src=""images/choice_trial_8.png"" style=""width: 408px; height: 417px; margin-right: 200px;""><img src=""images/choice_trial_15.png"" style=""width: 408px; height: 417px;""></div></div>","f","delaylearn","learning","trial","5c3205407e0559000172f153","SuV98d5162cH7XkpLKAowCIyrM22","2","images/choice_trial_8.png","images/choice_trial_15.png","images/pattern_7.png","j","f","750","8","15","6","0","19","1","0","8","100","","","","",""
"html-keyboard-response","102","206478","0.0-44.0-1.0","","null","<div style=""display: flex; flex-direction: column; align-items: center; margin-top: -40px;""><img src=""images/pattern_7.png"" style=""width: 234px; height: 230px; margin-top: -50px;""><div style=""display: flex; justify-content: space-between; margin-top: 33px;""><img src=""images/choice_trial_8.png"" style=""width: 408px; height: 417px; margin-right: 608px;""></div></div>","null","delaylearn","learning","display_response","5c3205407e0559000172f153","SuV98d5162cH7XkpLKAowCIyrM22","","","","","","","","","","","","","","","","","chosen stimuli: images/choice_trial_8.png","","","",""
"html-keyboard-response","103","207230","0.0-44.0-2.0","","null","","null","delaylearn","learning","feedback_duration_window","5c3205407e0559000172f153","SuV98d5162cH7XkpLKAowCIyrM22","","","","","","","","","","","","","","","","","","750","","",""
"html-keyboard-response","104","208747","0.0-44.0-3.0","","null","<div style='margin:auto;width: auto; font-size: 150%'><span style='font-weight: bold; font-size: 100px; color: red;'>0 points!</span><br><br></div>","null","delaylearn","learning","feedback_image_window","5c3205407e0559000172f153","SuV98d5162cH7XkpLKAowCIyrM22","","","","","","","","","","","","","","","","","","","","",""
"html-keyboard-response","105","210855","0.0-45.0","","null","<div style=""font-size:100px;"">+</div>","null","delaylearn","learning","ITI","5c3205407e0559000172f153","SuV98d5162cH7XkpLKAowCIyrM22","","","","","","","","","","","","","","","","","","","2106","",""
"html-keyboard-response","106","212182","0.0-46.0-0.0","","1321.4000000059605","<div style=""display: flex; flex-direction: column; align-items: center; margin-top: -40px;""><img src=""images/pattern_1.png"" style=""width: 234px; height: 230px; margin-top: -50px;""><div style=""display: flex; justify-content: space-between; margin-top: 33px;""><img src=""images/choice_trial_3.png"" style=""width: 408px; height: 417px; margin-right: 200px;""><img src=""images/choice_trial_10.png"" style=""width: 408px; height: 417px;""></div></div>","f","delaylearn","learning","trial","5c3205407e0559000172f153","SuV98d5162cH7XkpLKAowCIyrM22","2","images/choice_trial_3.png","images/choice_trial_10.png","images/pattern_1.png","f","f","7000","3","10","1","0","20","1","1","3","110","","","","",""
"html-keyboard-response","107","213195","0.0-46.0-1.0","","null","<div style=""display: flex; flex-direction: column; align-items: center; margin-top: -40px;""><img src=""images/pattern_1.png"" style=""width: 234px; height: 230px; margin-top: -50px;""><div style=""display: flex; justify-content: space-between; margin-top: 33px;""><img src=""images/choice_trial_3.png"" style=""width: 408px; height: 417px; margin-right: 608px;""></div></div>","null","delaylearn","learning","display_response","5c3205407e0559000172f153","SuV98d5162cH7XkpLKAowCIyrM22","","","","","","","","","","","","","","","","","chosen stimuli: images/choice_trial_3.png","","","",""
"html-keyboard-response","108","220206","0.0-46.0-2.0","","null","","null","delaylearn","learning","feedback_duration_window","5c3205407e0559000172f153","SuV98d5162cH7XkpLKAowCIyrM22","","","","","","","","","","","","","","","","","","7000","","",""
"html-keyboard-response","109","221721","0.0-46.0-3.0","","null","<div style='margin:auto;width: auto; font-size: 150%'><span style='font-weight: bold; font-size: 100px; color: green;'>+10 points!</span><br><br></div>","null","delaylearn","learning","feedback_image_window","5c3205407e0559000172f153","SuV98d5162cH7XkpLKAowCIyrM22","","","","","","","","","","","","","","","","","","","","",""
"html-keyboard-response","110","223992","0.0-47.0","","null","<div style=""font-size:100px;"">+</div>","null","delaylearn","learning","ITI","5c3205407e0559000172f153","SuV98d5162cH7XkpLKAowCIyrM22","","","","","","","","","","","","","","","","","","","2267","",""
"html-keyboard-response","111","225433","0.0-48.0-0.0","","1436.5","<div style=""display: flex; flex-direction: column; align-items: center; margin-top: -40px;""><img src=""images/pattern_6.png"" style=""width: 234px; height: 230px; margin-top: -50px;""><div style=""display: flex; justify-content: space-between; margin-top: 33px;""><img src=""images/choice_trial_5.png"" style=""width: 408px; height: 417px; margin-right: 200px;""><img src=""images/choice_trial_11.png"" style=""width: 408px; height: 417px;""></div></div>","j","delaylearn","learning","trial","5c3205407e0559000172f153","SuV98d5162cH7XkpLKAowCIyrM22","2","images/choice_trial_5.png","images/choice_trial_11.png","images/pattern_6.png","j","j","750","5","11","5","1","21","1","1","11","120","","","","",""
"html-keyboard-response","112","226443","0.0-48.0-1.0","","null","<div style=""display: flex; flex-direction: column; align-items: center; margin-top: -40px;""><img src=""images/pattern_6.png"" style=""width: 234px; height: 230px; margin-top: -50px;""><div style=""display: flex; justify-content: space-between; margin-top: 33px;""><img src=""images/choice_trial_11.png"" style=""width: 408px; height: 417px; margin-left:608px;""></div></div>","null","delaylearn","learning","display_response","5c3205407e0559000172f153","SuV98d5162cH7XkpLKAowCIyrM22","","","","","","","","","","","","","","","","","chosen stimuli: images/choice_trial_11.png","","","",""
"html-keyboard-response","113","227198","0.0-48.0-2.0","","null","","null","delaylearn","learning","feedback_duration_window","5c3205407e0559000172f153","SuV98d5162cH7XkpLKAowCIyrM22","","","","","","","","","","","","","","","","","","750","","",""
"html-keyboard-response","114","228703","0.0-48.0-3.0","","null","<div style='margin:auto;width: auto; font-size: 150%'><span style='font-weight: bold; font-size: 100px; color: green;'>+10 points!</span><br><br></div>","null","delaylearn","learning","feedback_image_window","5c3205407e0559000172f153","SuV98d5162cH7XkpLKAowCIyrM22","","","","","","","","","","","","","","","","","","","","",""
"html-keyboard-response","115","230657","0.0-49.0","","null","<div style=""font-size:100px;"">+</div>","null","delaylearn","learning","ITI","5c3205407e0559000172f153","SuV98d5162cH7XkpLKAowCIyrM22","","","","","","","","","","","","","","","","","","","1937","",""
"html-keyboard-response","116","232761","0.0-50.0-0.0","","2099","<div style=""display: flex; flex-direction: column; align-items: center; margin-top: -40px;""><img src=""images/pattern_4.png"" style=""width: 234px; height: 230px; margin-top: -50px;""><div style=""display: flex; justify-content: space-between; margin-top: 33px;""><img src=""images/choice_trial_4.png"" style=""width: 408px; height: 417px; margin-right: 200px;""><img src=""images/choice_trial_16.png"" style=""width: 408px; height: 417px;""></div></div>","j","delaylearn","learning","trial","5c3205407e0559000172f153","SuV98d5162cH7XkpLKAowCIyrM22","2","images/choice_trial_4.png","images/choice_trial_16.png","images/pattern_4.png","f","f","7000","4","16","3","0","22","0","0","16","120","","","","",""
"html-keyboard-response","117","233777","0.0-50.0-1.0","","null","<div style=""display: flex; flex-direction: column; align-items: center; margin-top: -40px;""><img src=""images/pattern_4.png"" style=""width: 234px; height: 230px; margin-top: -50px;""><div style=""display: flex; justify-content: space-between; margin-top: 33px;""><img src=""images/choice_trial_16.png"" style=""width: 408px; height: 417px; margin-left:608px;""></div></div>","null","delaylearn","learning","display_response","5c3205407e0559000172f153","SuV98d5162cH7XkpLKAowCIyrM22","","","","","","","","","","","","","","","","","chosen stimuli: images/choice_trial_16.png","","","",""
"html-keyboard-response","118","240787","0.0-50.0-2.0","","null","","null","delaylearn","learning","feedback_duration_window","5c3205407e0559000172f153","SuV98d5162cH7XkpLKAowCIyrM22","","","","","","","","","","","","","","","","","","7000","","",""
"html-keyboard-response","119","242290","0.0-50.0-3.0","","null","<div style='margin:auto;width: auto; font-size: 150%'><span style='font-weight: bold; font-size: 100px; color: red;'>0 points!</span><br><br></div>","null","delaylearn","learning","feedback_image_window","5c3205407e0559000172f153","SuV98d5162cH7XkpLKAowCIyrM22","","","","","","","","","","","","","","","","","","","","",""
"html-keyboard-response","120","242795","0.0-51.0-0.0","","null","","null","","","mood_trial_fixation","","","","","","","","","","","","","","","","","","","","","","",""
"lmdlab-html-vas-response","121","247492","0.0-51.0-1.0","","3689","How happy are you right now?","0.40453019565291104","delaylearn","learning","mood_trial","5c3205407e0559000172f153","SuV98d5162cH7XkpLKAowCIyrM22","","","","","","","","","","","","","","","","","","","","[""Very unhappy"",""Very happy""]",""
"html-keyboard-response","122","249689","0.0-52.0","","null","<div style=""font-size:100px;"">+</div>","null","delaylearn","learning","ITI","5c3205407e0559000172f153","SuV98d5162cH7XkpLKAowCIyrM22","","","","","","","","","","","","","","","","","","","2187","",""
"html-keyboard-response","123","252195","0.0-53.0-0.0","","2502.2999999821186","<div style=""display: flex; flex-direction: column; align-items: center; margin-top: -40px;""><img src=""images/pattern_7.png"" style=""width: 234px; height: 230px; margin-top: -50px;""><div style=""display: flex; justify-content: space-between; margin-top: 33px;""><img src=""images/choice_trial_15.png"" style=""width: 408px; height: 417px; margin-right: 200px;""><img src=""images/choice_trial_8.png"" style=""width: 408px; height: 417px;""></div></div>","j","delaylearn","learning","trial","5c3205407e0559000172f153","SuV98d5162cH7XkpLKAowCIyrM22","2","images/choice_trial_15.png","images/choice_trial_8.png","images/pattern_7.png","j","j","750","15","8","6","1","23","1","1","8","130","","","","",""
"html-keyboard-response","124","253213","0.0-53.0-1.0","","null","<div style=""display: flex; flex-direction: column; align-items: center; margin-top: -40px;""><img src=""images/pattern_7.png"" style=""width: 234px; height: 230px; margin-top: -50px;""><div style=""display: flex; justify-content: space-between; margin-top: 33px;""><img src=""images/choice_trial_8.png"" style=""width: 408px; height: 417px; margin-left:608px;""></div></div>","null","delaylearn","learning","display_response","5c3205407e0559000172f153","SuV98d5162cH7XkpLKAowCIyrM22","","","","","","","","","","","","","","","","","chosen stimuli: images/choice_trial_8.png","","","",""
"html-keyboard-response","125","253980","0.0-53.0-2.0","","null","","null","delaylearn","learning","feedback_duration_window","5c3205407e0559000172f153","SuV98d5162cH7XkpLKAowCIyrM22","","","","","","","","","","","","","","","","","","750","","",""
"html-keyboard-response","126","255486","0.0-53.0-3.0","","null","<div style='margin:auto;width: auto; font-size: 150%'><span style='font-weight: bold; font-size: 100px; color: green;'>+10 points!</span><br><br></div>","null","delaylearn","learning","feedback_image_window","5c3205407e0559000172f153","SuV98d5162cH7XkpLKAowCIyrM22","","","","","","","","","","","","","","","","","","","","",""
"html-keyboard-response","127","257584","0.0-54.0","","null","<div style=""font-size:100px;"">+</div>","null","delaylearn","learning","ITI","5c3205407e0559000172f153","SuV98d5162cH7XkpLKAowCIyrM22","","","","","","","","","","","","","","","","","","","2086","",""
"html-keyboard-response","128","259593","0.0-55.0-0.0","","2005","<div style=""display: flex; flex-direction: column; align-items: center; margin-top: -40px;""><img src=""images/pattern_1.png"" style=""width: 234px; height: 230px; margin-top: -50px;""><div style=""display: flex; justify-content: space-between; margin-top: 33px;""><img src=""images/choice_trial_10.png"" style=""width: 408px; height: 417px; margin-right: 200px;""><img src=""images/choice_trial_3.png"" style=""width: 408px; height: 417px;""></div></div>","f","delaylearn","learning","trial","5c3205407e0559000172f153","SuV98d5162cH7XkpLKAowCIyrM22","2","images/choice_trial_10.png","images/choice_trial_3.png","images/pattern_1.png","f","j","7000","10","3","1","1","24","0","1","10","140","","","","",""
"html-keyboard-response","129","260600","0.0-55.0-1.0","","null","<div style=""display: flex; flex-direction: column; align-items: center; margin-top: -40px;""><img src=""images/pattern_1.png"" style=""width: 234px; height: 230px; margin-top: -50px;""><div style=""display: flex; justify-content: space-between; margin-top: 33px;""><img src=""images/choice_trial_10.png"" style=""width: 408px; height: 417px; margin-right: 608px;""></div></div>","null","delaylearn","learning","display_response","5c3205407e0559000172f153","SuV98d5162cH7XkpLKAowCIyrM22","","","","","","","","","","","","","","","","","chosen stimuli: images/choice_trial_10.png","","","",""
"html-keyboard-response","130","267614","0.0-55.0-2.0","","null","","null","delaylearn","learning","feedback_duration_window","5c3205407e0559000172f153","SuV98d5162cH7XkpLKAowCIyrM22","","","","","","","","","","","","","","","","","","7000","","",""
"html-keyboard-response","131","269118","0.0-55.0-3.0","","null","<div style='margin:auto;width: auto; font-size: 150%'><span style='font-weight: bold; font-size: 100px; color: green;'>+10 points!</span><br><br></div>","null","delaylearn","learning","feedback_image_window","5c3205407e0559000172f153","SuV98d5162cH7XkpLKAowCIyrM22","","","","","","","","","","","","","","","","","","","","",""
"html-keyboard-response","132","271283","0.0-56.0","","null","<div style=""font-size:100px;"">+</div>","null","delaylearn","learning","ITI","5c3205407e0559000172f153","SuV98d5162cH7XkpLKAowCIyrM22","","","","","","","","","","","","","","","","","","","2156","",""
"html-keyboard-response","133","272819","0.0-57.0-0.0","","1530.5","<div style=""display: flex; flex-direction: column; align-items: center; margin-top: -40px;""><img src=""images/pattern_5.png"" style=""width: 234px; height: 230px; margin-top: -50px;""><div style=""display: flex; justify-content: space-between; margin-top: 33px;""><img src=""images/choice_trial_9.png"" style=""width: 408px; height: 417px; margin-right: 200px;""><img src=""images/choice_trial_2.png"" style=""width: 408px; height: 417px;""></div></div>","f","delaylearn","learning","trial","5c3205407e0559000172f153","SuV98d5162cH7XkpLKAowCIyrM22","2","images/choice_trial_9.png","images/choice_trial_2.png","images/pattern_5.png","j","j","750","9","2","4","1","25","0","0","9","140","","","","",""
"html-keyboard-response","134","273830","0.0-57.0-1.0","","null","<div style=""display: flex; flex-direction: column; align-items: center; margin-top: -40px;""><img src=""images/pattern_5.png"" style=""width: 234px; height: 230px; margin-top: -50px;""><div style=""display: flex; justify-content: space-between; margin-top: 33px;""><img src=""images/choice_trial_9.png"" style=""width: 408px; height: 417px; margin-right: 608px;""></div></div>","null","delaylearn","learning","display_response","5c3205407e0559000172f153","SuV98d5162cH7XkpLKAowCIyrM22","","","","","","","","","","","","","","","","","chosen stimuli: images/choice_trial_9.png","","","",""
"html-keyboard-response","135","274584","0.0-57.0-2.0","","null","","null","delaylearn","learning","feedback_duration_window","5c3205407e0559000172f153","SuV98d5162cH7XkpLKAowCIyrM22","","","","","","","","","","","","","","","","","","750","","",""
"html-keyboard-response","136","276098","0.0-57.0-3.0","","null","<div style='margin:auto;width: auto; font-size: 150%'><span style='font-weight: bold; font-size: 100px; color: red;'>0 points!</span><br><br></div>","null","delaylearn","learning","feedback_image_window","5c3205407e0559000172f153","SuV98d5162cH7XkpLKAowCIyrM22","","","","","","","","","","","","","","","","","","","","",""
"html-keyboard-response","137","277961","0.0-58.0","","null","<div style=""font-size:100px;"">+</div>","null","delaylearn","learning","ITI","5c3205407e0559000172f153","SuV98d5162cH7XkpLKAowCIyrM22","","","","","","","","","","","","","","","","","","","1857","",""
"html-keyboard-response","138","279784","0.0-59.0-0.0","","1816.699999988079","<div style=""display: flex; flex-direction: column; align-items: center; margin-top: -40px;""><img src=""images/pattern_3.png"" style=""width: 234px; height: 230px; margin-top: -50px;""><div style=""display: flex; justify-content: space-between; margin-top: 33px;""><img src=""images/choice_trial_14.png"" style=""width: 408px; height: 417px; margin-right: 200px;""><img src=""images/choice_trial_12.png"" style=""width: 408px; height: 417px;""></div></div>","j","delaylearn","learning","trial","5c3205407e0559000172f153","SuV98d5162cH7XkpLKAowCIyrM22","2","images/choice_trial_14.png","images/choice_trial_12.png","images/pattern_3.png","j","j","7000","14","12","2","1","26","1","1","12","150","","","","",""
"html-keyboard-response","139","280794","0.0-59.0-1.0","","null","<div style=""display: flex; flex-direction: column; align-items: center; margin-top: -40px;""><img src=""images/pattern_3.png"" style=""width: 234px; height: 230px; margin-top: -50px;""><div style=""display: flex; justify-content: space-between; margin-top: 33px;""><img src=""images/choice_trial_12.png"" style=""width: 408px; height: 417px; margin-left:608px;""></div></div>","null","delaylearn","learning","display_response","5c3205407e0559000172f153","SuV98d5162cH7XkpLKAowCIyrM22","","","","","","","","","","","","","","","","","chosen stimuli: images/choice_trial_12.png","","","",""
"html-keyboard-response","140","287805","0.0-59.0-2.0","","null","","null","delaylearn","learning","feedback_duration_window","5c3205407e0559000172f153","SuV98d5162cH7XkpLKAowCIyrM22","","","","","","","","","","","","","","","","","","7000","","",""
"html-keyboard-response","141","289312","0.0-59.0-3.0","","null","<div style='margin:auto;width: auto; font-size: 150%'><span style='font-weight: bold; font-size: 100px; color: green;'>+10 points!</span><br><br></div>","null","delaylearn","learning","feedback_image_window","5c3205407e0559000172f153","SuV98d5162cH7XkpLKAowCIyrM22","","","","","","","","","","","","","","","","","","","","",""
"lmdlab-html-vas-response","142","294959","0.0-60.0-0.0","","4125","*How <b><u>confident</u></b> are you feeling about your answers at this moment?*","0.3763181987725069","rewlearn","rate_confidence","","5c3205407e0559000172f153","SuV98d5162cH7XkpLKAowCIyrM22","","","","","","","","","","","","","","","","","","","","[""No confidence"",""Complete confidence""]",""
"lmdlab-rest-trial-limit","143","313897","0.0-60.0-1.0","","17429.79999998212","<div style=""font-size:40px;""><b>Please take a break!</b><br><br><br><br><p>Great work: you earned 150 points.<br><br><br><p>You have completed part(s) 1 of 5.<br><br><br><br>When you are ready to continue<br><br><br>please click the button.</p><br><br>","0","delaylearn","learning","break","5c3205407e0559000172f153","SuV98d5162cH7XkpLKAowCIyrM22","","","","","","","","","","","","","","","","","","","","","0"
"html-keyboard-response","144","316904","0.0-60.0-2.0","","null","<div style=""font-size:100px;"">+</div>","null","delaylearn","learning","pre_fixation","5c3205407e0559000172f153","","","","","","","","","","","","","","","","","","","","","",""
"lmdlab-html-vas-response","145","321144","0.0-60.0-3.0-0.0","","3209","How happy are you right now?","0.41538096368383576","delaylearn","learning","mood_baseline","5c3205407e0559000172f153","SuV98d5162cH7XkpLKAowCIyrM22","","","","","","","","","","","","","","","","","","","","[""Very unhappy"",""Very happy""]",""
"html-keyboard-response","146","322649","0.0-60.0-3.0-1.0","","null","","null","","","mood_baseline_fixation","","","","","","","","","","","","","","","","","","","","","","",""
"html-keyboard-response","147","324306","0.0-61.0","","null","<div style=""font-size:100px;"">+</div>","null","delaylearn","learning","ITI","5c3205407e0559000172f153","SuV98d5162cH7XkpLKAowCIyrM22","","","","","","","","","","","","","","","","","","","1653","",""
"html-keyboard-response","148","326327","0.0-62.0-0.0","","2016.5","<div style=""display: flex; flex-direction: column; align-items: center; margin-top: -40px;""><img src=""images/pattern_7.png"" style=""width: 234px; height: 230px; margin-top: -50px;""><div style=""display: flex; justify-content: space-between; margin-top: 33px;""><img src=""images/choice_trial_15.png"" style=""width: 408px; height: 417px; margin-right: 200px;""><img src=""images/choice_trial_8.png"" style=""width: 408px; height: 417px;""></div></div>","j","delaylearn","learning","trial","5c3205407e0559000172f153","SuV98d5162cH7XkpLKAowCIyrM22","2","images/choice_trial_15.png","images/choice_trial_8.png","images/pattern_7.png","j","j","750","15","8","6","1","27","1","1","8","160","","","","",""
"html-keyboard-response","149","327341","0.0-62.0-1.0","","null","<div style=""display: flex; flex-direction: column; align-items: center; margin-top: -40px;""><img src=""images/pattern_7.png"" style=""width: 234px; height: 230px; margin-top: -50px;""><div style=""display: flex; justify-content: space-between; margin-top: 33px;""><img src=""images/choice_trial_8.png"" style=""width: 408px; height: 417px; margin-left:608px;""></div></div>","null","delaylearn","learning","display_response","5c3205407e0559000172f153","SuV98d5162cH7XkpLKAowCIyrM22","","","","","","","","","","","","","","","","","chosen stimuli: images/choice_trial_8.png","","","",""
"html-keyboard-response","150","328107","0.0-62.0-2.0","","null","","null","delaylearn","learning","feedback_duration_window","5c3205407e0559000172f153","SuV98d5162cH7XkpLKAowCIyrM22","","","","","","","","","","","","","","","","","","750","","",""
"html-keyboard-response","151","329625","0.0-62.0-3.0","","null","<div style='margin:auto;width: auto; font-size: 150%'><span style='font-weight: bold; font-size: 100px; color: green;'>+10 points!</span><br><br></div>","null","delaylearn","learning","feedback_image_window","5c3205407e0559000172f153","SuV98d5162cH7XkpLKAowCIyrM22","","","","","","","","","","","","","","","","","","","","",""
"html-keyboard-response","152","330141","0.0-63.0-0.0","","null","","null","","","mood_trial_fixation","","","","","","","","","","","","","","","","","","","","","","",""
"lmdlab-html-vas-response","153","334231","0.0-63.0-1.0","","3064","How happy are you right now?","0.4240615781085755","delaylearn","learning","mood_trial","5c3205407e0559000172f153","SuV98d5162cH7XkpLKAowCIyrM22","","","","","","","","","","","","","","","","","","","","[""Very unhappy"",""Very happy""]",""
"html-keyboard-response","154","335971","0.0-64.0","","null","<div style=""font-size:100px;"">+</div>","null","delaylearn","learning","ITI","5c3205407e0559000172f153","SuV98d5162cH7XkpLKAowCIyrM22","","","","","","","","","","","","","","","","","","","1736","",""
"html-keyboard-response","155","337495","0.0-65.0-0.0","","1515.199999988079","<div style=""display: flex; flex-direction: column; align-items: center; margin-top: -40px;""><img src=""images/pattern_1.png"" style=""width: 234px; height: 230px; margin-top: -50px;""><div style=""display: flex; justify-content: space-between; margin-top: 33px;""><img src=""images/choice_trial_3.png"" style=""width: 408px; height: 417px; margin-right: 200px;""><img src=""images/choice_trial_10.png"" style=""width: 408px; height: 417px;""></div></div>","j","delaylearn","learning","trial","5c3205407e0559000172f153","SuV98d5162cH7XkpLKAowCIyrM22","2","images/choice_trial_3.png","images/choice_trial_10.png","images/pattern_1.png","f","f","7000","3","10","1","0","28","0","0","10","160","","","","",""
"html-keyboard-response","156","338502","0.0-65.0-1.0","","null","<div style=""display: flex; flex-direction: column; align-items: center; margin-top: -40px;""><img src=""images/pattern_1.png"" style=""width: 234px; height: 230px; margin-top: -50px;""><div style=""display: flex; justify-content: space-between; margin-top: 33px;""><img src=""images/choice_trial_10.png"" style=""width: 408px; height: 417px; margin-left:608px;""></div></div>","null","delaylearn","learning","display_response","5c3205407e0559000172f153","SuV98d5162cH7XkpLKAowCIyrM22","","","","","","","","","","","","","","","","","chosen stimuli: images/choice_trial_10.png","","","",""
"html-keyboard-response","157","345517","0.0-65.0-2.0","","null","","null","delaylearn","learning","feedback_duration_window","5c3205407e0559000172f153","SuV98d5162cH7XkpLKAowCIyrM22","","","","","","","","","","","","","","","","","","7000","","",""
"html-keyboard-response","158","347023","0.0-65.0-3.0","","null","<div style='margin:auto;width: auto; font-size: 150%'><span style='font-weight: bold; font-size: 100px; color: red;'>0 points!</span><br><br></div>","null","delaylearn","learning","feedback_image_window","5c3205407e0559000172f153","SuV98d5162cH7XkpLKAowCIyrM22","","","","","","","","","","","","","","","","","","","","",""
"html-keyboard-response","159","349291","0.0-66.0","","null","<div style=""font-size:100px;"">+</div>","null","delaylearn","learning","ITI","5c3205407e0559000172f153","SuV98d5162cH7XkpLKAowCIyrM22","","","","","","","","","","","","","","","","","","","2254","",""
"html-keyboard-response","160","350746","0.0-67.0-0.0","","1450.7999999821186","<div style=""display: flex; flex-direction: column; align-items: center; margin-top: -40px;""><img src=""images/pattern_5.png"" style=""width: 234px; height: 230px; margin-top: -50px;""><div style=""display: flex; justify-content: space-between; margin-top: 33px;""><img src=""images/choice_trial_2.png"" style=""width: 408px; height: 417px; margin-right: 200px;""><img src=""images/choice_trial_9.png"" style=""width: 408px; height: 417px;""></div></div>","j","delaylearn","learning","trial","5c3205407e0559000172f153","SuV98d5162cH7XkpLKAowCIyrM22","2","images/choice_trial_2.png","images/choice_trial_9.png","images/pattern_5.png","f","f","750","2","9","4","0","29","0","0","9","160","","","","",""
"html-keyboard-response","161","351754","0.0-67.0-1.0","","null","<div style=""display: flex; flex-direction: column; align-items: center; margin-top: -40px;""><img src=""images/pattern_5.png"" style=""width: 234px; height: 230px; margin-top: -50px;""><div style=""display: flex; justify-content: space-between; margin-top: 33px;""><img src=""images/choice_trial_9.png"" style=""width: 408px; height: 417px; margin-left:608px;""></div></div>","null","delaylearn","learning","display_response","5c3205407e0559000172f153","SuV98d5162cH7XkpLKAowCIyrM22","","","","","","","","","","","","","","","","","chosen stimuli: images/choice_trial_9.png","","","",""
"html-keyboard-response","162","352521","0.0-67.0-2.0","","null","","null","delaylearn","learning","feedback_duration_window","5c3205407e0559000172f153","SuV98d5162cH7XkpLKAowCIyrM22","","","","","","","","","","","","","","","","","","750","","",""
"html-keyboard-response","163","354029","0.0-67.0-3.0","","null","<div style='margin:auto;width: auto; font-size: 150%'><span style='font-weight: bold; font-size: 100px; color: red;'>0 points!</span><br><br></div>","null","delaylearn","learning","feedback_image_window","5c3205407e0559000172f153","SuV98d5162cH7XkpLKAowCIyrM22","","","","","","","","","","","","","","","","","","","","",""
"html-keyboard-response","164","355705","0.0-68.0","","null","<div style=""font-size:100px;"">+</div>","null","delaylearn","learning","ITI","5c3205407e0559000172f153","SuV98d5162cH7XkpLKAowCIyrM22","","","","","","","","","","","","","","","","","","","1661","",""
"html-keyboard-response","165","357788","0.0-69.0-0.0","","2080.5","<div style=""display: flex; flex-direction: column; align-items: center; margin-top: -40px;""><img src=""images/pattern_6.png"" style=""width: 234px; height: 230px; margin-top: -50px;""><div style=""display: flex; justify-content: space-between; margin-top: 33px;""><img src=""images/choice_trial_5.png"" style=""width: 408px; height: 417px; margin-right: 200px;""><img src=""images/choice_trial_11.png"" style=""width: 408px; height: 417px;""></div></div>","j","delaylearn","learning","trial","5c3205407e0559000172f153","SuV98d5162cH7XkpLKAowCIyrM22","2","images/choice_trial_5.png","images/choice_trial_11.png","images/pattern_6.png","j","j","750","5","11","5","1","30","1","1","11","170","","","","",""
"html-keyboard-response","166","358803","0.0-69.0-1.0","","null","<div style=""display: flex; flex-direction: column; align-items: center; margin-top: -40px;""><img src=""images/pattern_6.png"" style=""width: 234px; height: 230px; margin-top: -50px;""><div style=""display: flex; justify-content: space-between; margin-top: 33px;""><img src=""images/choice_trial_11.png"" style=""width: 408px; height: 417px; margin-left:608px;""></div></div>","null","delaylearn","learning","display_response","5c3205407e0559000172f153","SuV98d5162cH7XkpLKAowCIyrM22","","","","","","","","","","","","","","","","","chosen stimuli: images/choice_trial_11.png","","","",""
"html-keyboard-response","167","359560","0.0-69.0-2.0","","null","","null","delaylearn","learning","feedback_duration_window","5c3205407e0559000172f153","SuV98d5162cH7XkpLKAowCIyrM22","","","","","","","","","","","","","","","","","","750","","",""
"html-keyboard-response","168","361074","0.0-69.0-3.0","","null","<div style='margin:auto;width: auto; font-size: 150%'><span style='font-weight: bold; font-size: 100px; color: green;'>+10 points!</span><br><br></div>","null","delaylearn","learning","feedback_image_window","5c3205407e0559000172f153","SuV98d5162cH7XkpLKAowCIyrM22","","","","","","","","","","","","","","","","","","","","",""
"html-keyboard-response","169","361589","0.0-70.0-0.0","","null","","null","","","mood_trial_fixation","","","","","","","","","","","","","","","","","","","","","","",""
"lmdlab-html-vas-response","170","366032","0.0-70.0-1.0","","3432","How happy are you right now?","0.3329151266488081","delaylearn","learning","mood_trial","5c3205407e0559000172f153","SuV98d5162cH7XkpLKAowCIyrM22","","","","","","","","","","","","","","","","","","","","[""Very unhappy"",""Very happy""]",""
"html-keyboard-response","171","368469","0.0-71.0","","null","<div style=""font-size:100px;"">+</div>","null","delaylearn","learning","ITI","5c3205407e0559000172f153","SuV98d5162cH7XkpLKAowCIyrM22","","","","","","","","","","","","","","","","","","","2429","",""
"html-keyboard-response","172","370893","0.0-72.0-0.0","","2417.800000011921","<div style=""display: flex; flex-direction: column; align-items: center; margin-top: -40px;""><img src=""images/pattern_4.png"" style=""width: 234px; height: 230px; margin-top: -50px;""><div style=""display: flex; justify-content: space-between; margin-top: 33px;""><img src=""images/choice_trial_16.png"" style=""width: 408px; height: 417px; margin-right: 200px;""><img src=""images/choice_trial_4.png"" style=""width: 408px; height: 417px;""></div></div>","j","delaylearn","learning","trial","5c3205407e0559000172f153","SuV98d5162cH7XkpLKAowCIyrM22","2","images/choice_trial_16.png","images/choice_trial_4.png","images/pattern_4.png","j","j","7000","16","4","3","1","31","1","1","4","180","","","","",""
"html-keyboard-response","173","371901","0.0-72.0-1.0","","null","<div style=""display: flex; flex-direction: column; align-items: center; margin-top: -40px;""><img src=""images/pattern_4.png"" style=""width: 234px; height: 230px; margin-top: -50px;""><div style=""display: flex; justify-content: space-between; margin-top: 33px;""><img src=""images/choice_trial_4.png"" style=""width: 408px; height: 417px; margin-left:608px;""></div></div>","null","delaylearn","learning","display_response","5c3205407e0559000172f153","SuV98d5162cH7XkpLKAowCIyrM22","","","","","","","","","","","","","","","","","chosen stimuli: images/choice_trial_4.png","","","",""
"html-keyboard-response","174","378916","0.0-72.0-2.0","","null","","null","delaylearn","learning","feedback_duration_window","5c3205407e0559000172f153","SuV98d5162cH7XkpLKAowCIyrM22","","","","","","","","","","","","","","","","","","7000","","",""
"html-keyboard-response","175","380429","0.0-72.0-3.0","","null","<div style='margin:auto;width: auto; font-size: 150%'><span style='font-weight: bold; font-size: 100px; color: green;'>+10 points!</span><br><br></div>","null","delaylearn","learning","feedback_image_window","5c3205407e0559000172f153","SuV98d5162cH7XkpLKAowCIyrM22","","","","","","","","","","","","","","","","","","","","",""
"html-keyboard-response","176","382230","0.0-73.0","","null","<div style=""font-size:100px;"">+</div>","null","delaylearn","learning","ITI","5c3205407e0559000172f153","SuV98d5162cH7XkpLKAowCIyrM22","","","","","","","","","","","","","","","","","","","1795","",""
"html-keyboard-response","177","383880","0.0-74.0-0.0","","1644.800000011921","<div style=""display: flex; flex-direction: column; align-items: center; margin-top: -40px;""><img src=""images/pattern_3.png"" style=""width: 234px; height: 230px; margin-top: -50px;""><div style=""display: flex; justify-content: space-between; margin-top: 33px;""><img src=""images/choice_trial_14.png"" style=""width: 408px; height: 417px; margin-right: 200px;""><img src=""images/choice_trial_12.png"" style=""width: 408px; height: 417px;""></div></div>","j","delaylearn","learning","trial","5c3205407e0559000172f153","SuV98d5162cH7XkpLKAowCIyrM22","2","images/choice_trial_14.png","images/choice_trial_12.png","images/pattern_3.png","j","j","7000","14","12","2","1","32","1","1","12","190","","","","",""
"html-keyboard-response","178","384888","0.0-74.0-1.0","","null","<div style=""display: flex; flex-direction: column; align-items: center; margin-top: -40px;""><img src=""images/pattern_3.png"" style=""width: 234px; height: 230px; margin-top: -50px;""><div style=""display: flex; justify-content: space-between; margin-top: 33px;""><img src=""images/choice_trial_12.png"" style=""width: 408px; height: 417px; margin-left:608px;""></div></div>","null","delaylearn","learning","display_response","5c3205407e0559000172f153","SuV98d5162cH7XkpLKAowCIyrM22","","","","","","","","","","","","","","","","","chosen stimuli: images/choice_trial_12.png","","","",""
"html-keyboard-response","179","391895","0.0-74.0-2.0","","null","","null","delaylearn","learning","feedback_duration_window","5c3205407e0559000172f153","SuV98d5162cH7XkpLKAowCIyrM22","","","","","","","","","","","","","","","","","","7000","","",""
"html-keyboard-response","180","393407","0.0-74.0-3.0","","null","<div style='margin:auto;width: auto; font-size: 150%'><span style='font-weight: bold; font-size: 100px; color: green;'>+10 points!</span><br><br></div>","null","delaylearn","learning","feedback_image_window","5c3205407e0559000172f153","SuV98d5162cH7XkpLKAowCIyrM22","","","","","","","","","","","","","","","","","","","","",""
"html-keyboard-response","181","395636","0.0-75.0","","null","<div style=""font-size:100px;"">+</div>","null","delaylearn","learning","ITI","5c3205407e0559000172f153","SuV98d5162cH7XkpLKAowCIyrM22","","","","","","","","","","","","","","","","","","","2213","",""
"html-keyboard-response","182","397040","0.0-76.0-0.0","","1398.5","<div style=""display: flex; flex-direction: column; align-items: center; margin-top: -40px;""><img src=""images/pattern_5.png"" style=""width: 234px; height: 230px; margin-top: -50px;""><div style=""display: flex; justify-content: space-between; margin-top: 33px;""><img src=""images/choice_trial_2.png"" style=""width: 408px; height: 417px; margin-right: 200px;""><img src=""images/choice_trial_9.png"" style=""width: 408px; height: 417px;""></div></div>","j","delaylearn","learning","trial","5c3205407e0559000172f153","SuV98d5162cH7XkpLKAowCIyrM22","2","images/choice_trial_2.png","images/choice_trial_9.png","images/pattern_5.png","j","f","750","2","9","4","0","33","0","1","9","200","","","","",""
"html-keyboard-response","183","398050","0.0-76.0-1.0","","null","<div style=""display: flex; flex-direction: column; align-items: center; margin-top: -40px;""><img src=""images/pattern_5.png"" style=""width: 234px; height: 230px; margin-top: -50px;""><div style=""display: flex; justify-content: space-between; margin-top: 33px;""><img src=""images/choice_trial_9.png"" style=""width: 408px; height: 417px; margin-left:608px;""></div></div>","null","delaylearn","learning","display_response","5c3205407e0559000172f153","SuV98d5162cH7XkpLKAowCIyrM22","","","","","","","","","","","","","","","","","chosen stimuli: images/choice_trial_9.png","","","",""
"html-keyboard-response","184","398818","0.0-76.0-2.0","","null","","null","delaylearn","learning","feedback_duration_window","5c3205407e0559000172f153","SuV98d5162cH7XkpLKAowCIyrM22","","","","","","","","","","","","","","","","","","750","","",""
"html-keyboard-response","185","400321","0.0-76.0-3.0","","null","<div style='margin:auto;width: auto; font-size: 150%'><span style='font-weight: bold; font-size: 100px; color: green;'>+10 points!</span><br><br></div>","null","delaylearn","learning","feedback_image_window","5c3205407e0559000172f153","SuV98d5162cH7XkpLKAowCIyrM22","","","","","","","","","","","","","","","","","","","","",""
"html-keyboard-response","186","402728","0.0-77.0","","null","<div style=""font-size:100px;"">+</div>","null","delaylearn","learning","ITI","5c3205407e0559000172f153","SuV98d5162cH7XkpLKAowCIyrM22","","","","","","","","","","","","","","","","","","","2403","",""
"html-keyboard-response","187","404575","0.0-78.0-0.0","","1844","<div style=""display: flex; flex-direction: column; align-items: center; margin-top: -40px;""><img src=""images/pattern_1.png"" style=""width: 234px; height: 230px; margin-top: -50px;""><div style=""display: flex; justify-content: space-between; margin-top: 33px;""><img src=""images/choice_trial_3.png"" style=""width: 408px; height: 417px; margin-right: 200px;""><img src=""images/choice_trial_10.png"" style=""width: 408px; height: 417px;""></div></div>","j","delaylearn","learning","trial","5c3205407e0559000172f153","SuV98d5162cH7XkpLKAowCIyrM22","2","images/choice_trial_3.png","images/choice_trial_10.png","images/pattern_1.png","f","f","7000","3","10","1","0","34","0","0","10","200","","","","",""
"html-keyboard-response","188","405586","0.0-78.0-1.0","","null","<div style=""display: flex; flex-direction: column; align-items: center; margin-top: -40px;""><img src=""images/pattern_1.png"" style=""width: 234px; height: 230px; margin-top: -50px;""><div style=""display: flex; justify-content: space-between; margin-top: 33px;""><img src=""images/choice_trial_10.png"" style=""width: 408px; height: 417px; margin-left:608px;""></div></div>","null","delaylearn","learning","display_response","5c3205407e0559000172f153","SuV98d5162cH7XkpLKAowCIyrM22","","","","","","","","","","","","","","","","","chosen stimuli: images/choice_trial_10.png","","","",""
"html-keyboard-response","189","412600","0.0-78.0-2.0","","null","","null","delaylearn","learning","feedback_duration_window","5c3205407e0559000172f153","SuV98d5162cH7XkpLKAowCIyrM22","","","","","","","","","","","","","","","","","","7000","","",""
"html-keyboard-response","190","414107","0.0-78.0-3.0","","null","<div style='margin:auto;width: auto; font-size: 150%'><span style='font-weight: bold; font-size: 100px; color: red;'>0 points!</span><br><br></div>","null","delaylearn","learning","feedback_image_window","5c3205407e0559000172f153","SuV98d5162cH7XkpLKAowCIyrM22","","","","","","","","","","","","","","","","","","","","",""
"html-keyboard-response","191","414610","0.0-79.0-0.0","","null","","null","","","mood_trial_fixation","","","","","","","","","","","","","","","","","","","","","","",""
"lmdlab-html-vas-response","192","419013","0.0-79.0-1.0","","3375","How happy are you right now?","0.3481062018921027","delaylearn","learning","mood_trial","5c3205407e0559000172f153","SuV98d5162cH7XkpLKAowCIyrM22","","","","","","","","","","","","","","","","","","","","[""Very unhappy"",""Very happy""]",""
"html-keyboard-response","193","420532","0.0-80.0","","null","<div style=""font-size:100px;"">+</div>","null","delaylearn","learning","ITI","5c3205407e0559000172f153","SuV98d5162cH7XkpLKAowCIyrM22","","","","","","","","","","","","","","","","","","","1506","",""
"html-keyboard-response","194","422265","0.0-81.0-0.0","","1728.199999988079","<div style=""display: flex; flex-direction: column; align-items: center; margin-top: -40px;""><img src=""images/pattern_6.png"" style=""width: 234px; height: 230px; margin-top: -50px;""><div style=""display: flex; justify-content: space-between; margin-top: 33px;""><img src=""images/choice_trial_11.png"" style=""width: 408px; height: 417px; margin-right: 200px;""><img src=""images/choice_trial_5.png"" style=""width: 408px; height: 417px;""></div></div>","j","delaylearn","learning","trial","5c3205407e0559000172f153","SuV98d5162cH7XkpLKAowCIyrM22","2","images/choice_trial_11.png","images/choice_trial_5.png","images/pattern_6.png","j","f","750","11","5","5","0","35","0","1","5","210","","","","",""
"html-keyboard-response","195","423276","0.0-81.0-1.0","","null","<div style=""display: flex; flex-direction: column; align-items: center; margin-top: -40px;""><img src=""images/pattern_6.png"" style=""width: 234px; height: 230px; margin-top: -50px;""><div style=""display: flex; justify-content: space-between; margin-top: 33px;""><img src=""images/choice_trial_5.png"" style=""width: 408px; height: 417px; margin-left:608px;""></div></div>","null","delaylearn","learning","display_response","5c3205407e0559000172f153","SuV98d5162cH7XkpLKAowCIyrM22","","","","","","","","","","","","","","","","","chosen stimuli: images/choice_trial_5.png","","","",""
"html-keyboard-response","196","424033","0.0-81.0-2.0","","null","","null","delaylearn","learning","feedback_duration_window","5c3205407e0559000172f153","SuV98d5162cH7XkpLKAowCIyrM22","","","","","","","","","","","","","","","","","","750","","",""
"html-keyboard-response","197","425538","0.0-81.0-3.0","","null","<div style='margin:auto;width: auto; font-size: 150%'><span style='font-weight: bold; font-size: 100px; color: green;'>+10 points!</span><br><br></div>","null","delaylearn","learning","feedback_image_window","5c3205407e0559000172f153","SuV98d5162cH7XkpLKAowCIyrM22","","","","","","","","","","","","","","","","","","","","",""
"html-keyboard-response","198","427666","0.0-82.0","","null","<div style=""font-size:100px;"">+</div>","null","delaylearn","learning","ITI","5c3205407e0559000172f153","SuV98d5162cH7XkpLKAowCIyrM22","","","","","","","","","","","","","","","","","","","2126","",""
"html-keyboard-response","199","429448","0.0-83.0-0.0","","1777","<div style=""display: flex; flex-direction: column; align-items: center; margin-top: -40px;""><img src=""images/pattern_3.png"" style=""width: 234px; height: 230px; margin-top: -50px;""><div style=""display: flex; justify-content: space-between; margin-top: 33px;""><img src=""images/choice_trial_14.png"" style=""width: 408px; height: 417px; margin-right: 200px;""><img src=""images/choice_trial_12.png"" style=""width: 408px; height: 417px;""></div></div>","j","delaylearn","learning","trial","5c3205407e0559000172f153","SuV98d5162cH7XkpLKAowCIyrM22","2","images/choice_trial_14.png","images/choice_trial_12.png","images/pattern_3.png","j","j","7000","14","12","2","1","36","1","1","12","220","","","","",""
"html-keyboard-response","200","430466","0.0-83.0-1.0","","null","<div style=""display: flex; flex-direction: column; align-items: center; margin-top: -40px;""><img src=""images/pattern_3.png"" style=""width: 234px; height: 230px; margin-top: -50px;""><div style=""display: flex; justify-content: space-between; margin-top: 33px;""><img src=""images/choice_trial_12.png"" style=""width: 408px; height: 417px; margin-left:608px;""></div></div>","null","delaylearn","learning","display_response","5c3205407e0559000172f153","SuV98d5162cH7XkpLKAowCIyrM22","","","","","","","","","","","","","","","","","chosen stimuli: images/choice_trial_12.png","","","",""
"html-keyboard-response","201","437481","0.0-83.0-2.0","","null","","null","delaylearn","learning","feedback_duration_window","5c3205407e0559000172f153","SuV98d5162cH7XkpLKAowCIyrM22","","","","","","","","","","","","","","","","","","7000","","",""
"html-keyboard-response","202","438985","0.0-83.0-3.0","","null","<div style='margin:auto;width: auto; font-size: 150%'><span style='font-weight: bold; font-size: 100px; color: green;'>+10 points!</span><br><br></div>","null","delaylearn","learning","feedback_image_window","5c3205407e0559000172f153","SuV98d5162cH7XkpLKAowCIyrM22","","","","","","","","","","","","","","","","","","","","",""
"html-keyboard-response","203","441269","0.0-84.0","","null","<div style=""font-size:100px;"">+</div>","null","delaylearn","learning","ITI","5c3205407e0559000172f153","SuV98d5162cH7XkpLKAowCIyrM22","","","","","","","","","","","","","","","","","","","2281","",""
"html-keyboard-response","204","442809","0.0-85.0-0.0","","1534.5999999940395","<div style=""display: flex; flex-direction: column; align-items: center; margin-top: -40px;""><img src=""images/pattern_4.png"" style=""width: 234px; height: 230px; margin-top: -50px;""><div style=""display: flex; justify-content: space-between; margin-top: 33px;""><img src=""images/choice_trial_16.png"" style=""width: 408px; height: 417px; margin-right: 200px;""><img src=""images/choice_trial_4.png"" style=""width: 408px; height: 417px;""></div></div>","j","delaylearn","learning","trial","5c3205407e0559000172f153","SuV98d5162cH7XkpLKAowCIyrM22","2","images/choice_trial_16.png","images/choice_trial_4.png","images/pattern_4.png","f","j","7000","16","4","3","1","37","1","0","4","220","","","","",""
"html-keyboard-response","205","443818","0.0-85.0-1.0","","null","<div style=""display: flex; flex-direction: column; align-items: center; margin-top: -40px;""><img src=""images/pattern_4.png"" style=""width: 234px; height: 230px; margin-top: -50px;""><div style=""display: flex; justify-content: space-between; margin-top: 33px;""><img src=""images/choice_trial_4.png"" style=""width: 408px; height: 417px; margin-left:608px;""></div></div>","null","delaylearn","learning","display_response","5c3205407e0559000172f153","SuV98d5162cH7XkpLKAowCIyrM22","","","","","","","","","","","","","","","","","chosen stimuli: images/choice_trial_4.png","","","",""
"html-keyboard-response","206","450822","0.0-85.0-2.0","","null","","null","delaylearn","learning","feedback_duration_window","5c3205407e0559000172f153","SuV98d5162cH7XkpLKAowCIyrM22","","","","","","","","","","","","","","","","","","7000","","",""
"html-keyboard-response","207","452329","0.0-85.0-3.0","","null","<div style='margin:auto;width: auto; font-size: 150%'><span style='font-weight: bold; font-size: 100px; color: red;'>0 points!</span><br><br></div>","null","delaylearn","learning","feedback_image_window","5c3205407e0559000172f153","SuV98d5162cH7XkpLKAowCIyrM22","","","","","","","","","","","","","","","","","","","","",""
"html-keyboard-response","208","454540","0.0-86.0","","null","<div style=""font-size:100px;"">+</div>","null","delaylearn","learning","ITI","5c3205407e0559000172f153","SuV98d5162cH7XkpLKAowCIyrM22","","","","","","","","","","","","","","","","","","","2199","",""
"html-keyboard-response","209","455864","0.0-87.0-0.0","","1318.7999999821186","<div style=""display: flex; flex-direction: column; align-items: center; margin-top: -40px;""><img src=""images/pattern_7.png"" style=""width: 234px; height: 230px; margin-top: -50px;""><div style=""display: flex; justify-content: space-between; margin-top: 33px;""><img src=""images/choice_trial_8.png"" style=""width: 408px; height: 417px; margin-right: 200px;""><img src=""images/choice_trial_15.png"" style=""width: 408px; height: 417px;""></div></div>","f","delaylearn","learning","trial","5c3205407e0559000172f153","SuV98d5162cH7XkpLKAowCIyrM22","2","images/choice_trial_8.png","images/choice_trial_15.png","images/pattern_7.png","f","f","750","8","15","6","0","38","1","1","8","230","","","","",""
"html-keyboard-response","210","456878","0.0-87.0-1.0","","null","<div style=""display: flex; flex-direction: column; align-items: center; margin-top: -40px;""><img src=""images/pattern_7.png"" style=""width: 234px; height: 230px; margin-top: -50px;""><div style=""display: flex; justify-content: space-between; margin-top: 33px;""><img src=""images/choice_trial_8.png"" style=""width: 408px; height: 417px; margin-right: 608px;""></div></div>","null","delaylearn","learning","display_response","5c3205407e0559000172f153","SuV98d5162cH7XkpLKAowCIyrM22","","","","","","","","","","","","","","","","","chosen stimuli: images/choice_trial_8.png","","","",""
"html-keyboard-response","211","457646","0.0-87.0-2.0","","null","","null","delaylearn","learning","feedback_duration_window","5c3205407e0559000172f153","SuV98d5162cH7XkpLKAowCIyrM22","","","","","","","","","","","","","","","","","","750","","",""
"html-keyboard-response","212","459149","0.0-87.0-3.0","","null","<div style='margin:auto;width: auto; font-size: 150%'><span style='font-weight: bold; font-size: 100px; color: green;'>+10 points!</span><br><br></div>","null","delaylearn","learning","feedback_image_window","5c3205407e0559000172f153","SuV98d5162cH7XkpLKAowCIyrM22","","","","","","","","","","","","","","","","","","","","",""
"html-keyboard-response","213","460939","0.0-88.0","","null","<div style=""font-size:100px;"">+</div>","null","delaylearn","learning","ITI","5c3205407e0559000172f153","SuV98d5162cH7XkpLKAowCIyrM22","","","","","","","","","","","","","","","","","","","1781","",""
"html-keyboard-response","214","462562","0.0-89.0-0.0","","1617.4000000059605","<div style=""display: flex; flex-direction: column; align-items: center; margin-top: -40px;""><img src=""images/pattern_1.png"" style=""width: 234px; height: 230px; margin-top: -50px;""><div style=""display: flex; justify-content: space-between; margin-top: 33px;""><img src=""images/choice_trial_3.png"" style=""width: 408px; height: 417px; margin-right: 200px;""><img src=""images/choice_trial_10.png"" style=""width: 408px; height: 417px;""></div></div>","f","delaylearn","learning","trial","5c3205407e0559000172f153","SuV98d5162cH7XkpLKAowCIyrM22","2","images/choice_trial_3.png","images/choice_trial_10.png","images/pattern_1.png","f","f","7000","3","10","1","0","39","1","1","3","240","","","","",""
"html-keyboard-response","215","463581","0.0-89.0-1.0","","null","<div style=""display: flex; flex-direction: column; align-items: center; margin-top: -40px;""><img src=""images/pattern_1.png"" style=""width: 234px; height: 230px; margin-top: -50px;""><div style=""display: flex; justify-content: space-between; margin-top: 33px;""><img src=""images/choice_trial_3.png"" style=""width: 408px; height: 417px; margin-right: 608px;""></div></div>","null","delaylearn","learning","display_response","5c3205407e0559000172f153","SuV98d5162cH7XkpLKAowCIyrM22","","","","","","","","","","","","","","","","","chosen stimuli: images/choice_trial_3.png","","","",""
"html-keyboard-response","216","470596","0.0-89.0-2.0","","null","","null","delaylearn","learning","feedback_duration_window","5c3205407e0559000172f153","SuV98d5162cH7XkpLKAowCIyrM22","","","","","","","","","","","","","","","","","","7000","","",""
"html-keyboard-response","217","472105","0.0-89.0-3.0","","null","<div style='margin:auto;width: auto; font-size: 150%'><span style='font-weight: bold; font-size: 100px; color: green;'>+10 points!</span><br><br></div>","null","delaylearn","learning","feedback_image_window","5c3205407e0559000172f153","SuV98d5162cH7XkpLKAowCIyrM22","","","","","","","","","","","","","","","","","","","","",""
"html-keyboard-response","218","472621","0.0-90.0-0.0","","null","","null","","","mood_trial_fixation","","","","","","","","","","","","","","","","","","","","","","",""
"lmdlab-html-vas-response","219","476764","0.0-90.0-1.0","","3130","How happy are you right now?","0.42189142450239053","delaylearn","learning","mood_trial","5c3205407e0559000172f153","SuV98d5162cH7XkpLKAowCIyrM22","","","","","","","","","","","","","","","","","","","","[""Very unhappy"",""Very happy""]",""
"html-keyboard-response","220","479176","0.0-91.0","","null","<div style=""font-size:100px;"">+</div>","null","delaylearn","learning","ITI","5c3205407e0559000172f153","SuV98d5162cH7XkpLKAowCIyrM22","","","","","","","","","","","","","","","","","","","2406","",""
