"trial_type","trial_index","time_elapsed","internal_node_id","participant","rt","stimulus","response","exp_name","exp_stage","test_part","subjectID","databaseID","counterbal","choice_stimuli_1","choice_stimuli_2","pattern_stimuli","rewarded_answer","correct_answer","feedback_duration_times","stim_left","stim_right","pair","leftright_counter","trial","response_correct","response_rewarded","chosen_stim","counter","displayed_choice","feedback_durations","ITI_duration","labels","rest_warning"
"pavlovia","0","696","0.0-0.0","","","","","","","","","","","","","","","","","","","","","","","","","","","","","",""
"html-keyboard-response","1","3700","0.0-1.0","","null","<div style=""font-size:100px;"">+</div>","null","delaylearn","learning","pre_fixation","6601afb05afd671b790311ae","","","","","","","","","","","","","","","","","","","","","",""
"html-keyboard-response","2","6704","0.0-2.0-0.0","","null","<div style=""display: flex; flex-direction: column; align-items: center; margin-top: -40px;""><img src=""images/demo_images/pattern_1.png"" style=""width: 234px; height: 230px; margin-top: -50px;""><div style=""display: flex; justify-content: space-between; margin-top: 33px;""><img src=""images/demo_images/choice_trial_2.png"" style=""width: 408px; height: 417px; margin-right: 200px;""><img src=""images/demo_images/choice_trial_1.png"" style=""width: 408px; height: 417px;""></div></div>","null","delaylearn","learning","trial","6601afb05afd671b790311ae","PZXlXzKp55OPcnYAknXL7DBdNLj2","2","images/demo_images/choice_trial_2.png","images/demo_images/choice_trial_1.png","images/demo_images/pattern_1.png","j","j","3000","2","1","20","1","1","0","0","0","0","","","","",""
"html-keyboard-response","3","7708","0.0-2.0-1.0","","null","<div style='font-weight: bold; font-size: 75px; color: red;'>Missed Trial <br><br><br><br> Please respond faster</div>","null","delaylearn","learning","display_response","6601afb05afd671b790311ae","PZXlXzKp55OPcnYAknXL7DBdNLj2","","","","","","","","","","","","","","","","","Missed trial","","","",""
"html-keyboard-response","4","7711","0.0-2.0-2.0","","null","","null","delaylearn","learning","feedback_duration_window","6601afb05afd671b790311ae","PZXlXzKp55OPcnYAknXL7DBdNLj2","","","","","","","","","","","","","","","","","","0","","",""
"html-keyboard-response","5","7718","0.0-2.0-3.0","","null","","null","delaylearn","learning","feedback_image_window","6601afb05afd671b790311ae","PZXlXzKp55OPcnYAknXL7DBdNLj2","","","","","","","","","","","","","","","","","","","","",""
"html-keyboard-response","6","9804","0.0-3.0","","null","<div style=""font-size:100px;"">+</div>","null","delaylearn","learning","ITI","6601afb05afd671b790311ae","PZXlXzKp55OPcnYAknXL7DBdNLj2","","","","","","","","","","","","","","","","","","","2081","",""
"html-keyboard-response","7","10415","0.0-4.0-0.0","","608.9000000000233","<div style=""display: flex; flex-direction: column; align-items: center; margin-top: -40px;""><img src=""images/demo_images/pattern_1.png"" style=""width: 234px; height: 230px; margin-top: -50px;""><div style=""display: flex; justify-content: space-between; margin-top: 33px;""><img src=""images/demo_images/choice_trial_2.png"" style=""width: 408px; height: 417px; margin-right: 200px;""><img src=""images/demo_images/choice_trial_1.png"" style=""width: 408px; height: 417px;""></div></div>","f","delaylearn","learning","trial","6601afb05afd671b790311ae","PZXlXzKp55OPcnYAknXL7DBdNLj2","2","images/demo_images/choice_trial_2.png","images/demo_images/choice_trial_1.png","images/demo_images/pattern_1.png","j","j","3000","2","1","20","1","2","0","0","2","0","","","","",""
"html-keyboard-response","8","11418","0.0-4.0-1.0","","null","<div style=""display: flex; flex-direction: column; align-items: center; margin-top: -40px;""><img src=""images/demo_images/pattern_1.png"" style=""width: 234px; height: 230px; margin-top: -50px;""><div style=""display: flex; justify-content: space-between; margin-top: 33px;""><img src=""images/demo_images/choice_trial_2.png"" style=""width: 408px; height: 417px; margin-right: 608px;""></div></div>","null","delaylearn","learning","display_response","6601afb05afd671b790311ae","PZXlXzKp55OPcnYAknXL7DBdNLj2","","","","","","","","","","","","","","","","","chosen stimuli: images/demo_images/choice_trial_2.png","","","",""
"html-keyboard-response","9","14420","0.0-4.0-2.0","","null","","null","delaylearn","learning","feedback_duration_window","6601afb05afd671b790311ae","PZXlXzKp55OPcnYAknXL7DBdNLj2","","","","","","","","","","","","","","","","","","3000","","",""
"html-keyboard-response","10","15923","0.0-4.0-3.0","","null","<div style='margin:auto;width: auto; font-size: 150%'><span style='font-weight: bold; font-size: 100px; color: red;'>0 points!</span><br><br></div>","null","delaylearn","learning","feedback_image_window","6601afb05afd671b790311ae","PZXlXzKp55OPcnYAknXL7DBdNLj2","","","","","","","","","","","","","","","","","","","","",""
"html-keyboard-response","11","17579","0.0-5.0","","null","<div style=""font-size:100px;"">+</div>","null","delaylearn","learning","ITI","6601afb05afd671b790311ae","PZXlXzKp55OPcnYAknXL7DBdNLj2","","","","","","","","","","","","","","","","","","","1652","",""
"html-keyboard-response","12","18920","0.0-6.0-0.0","","1337.8000000000466","<div style=""display: flex; flex-direction: column; align-items: center; margin-top: -40px;""><img src=""images/demo_images/pattern_1.png"" style=""width: 234px; height: 230px; margin-top: -50px;""><div style=""display: flex; justify-content: space-between; margin-top: 33px;""><img src=""images/demo_images/choice_trial_1.png"" style=""width: 408px; height: 417px; margin-right: 200px;""><img src=""images/demo_images/choice_trial_2.png"" style=""width: 408px; height: 417px;""></div></div>","f","delaylearn","learning","trial","6601afb05afd671b790311ae","PZXlXzKp55OPcnYAknXL7DBdNLj2","2","images/demo_images/choice_trial_1.png","images/demo_images/choice_trial_2.png","images/demo_images/pattern_1.png","j","f","3000","1","2","20","0","3","1","0","1","0","","","","",""
"html-keyboard-response","13","19927","0.0-6.0-1.0","","null","<div style=""display: flex; flex-direction: column; align-items: center; margin-top: -40px;""><img src=""images/demo_images/pattern_1.png"" style=""width: 234px; height: 230px; margin-top: -50px;""><div style=""display: flex; justify-content: space-between; margin-top: 33px;""><img src=""images/demo_images/choice_trial_1.png"" style=""width: 408px; height: 417px; margin-right: 608px;""></div></div>","null","delaylearn","learning","display_response","6601afb05afd671b790311ae","PZXlXzKp55OPcnYAknXL7DBdNLj2","","","","","","","","","","","","","","","","","chosen stimuli: images/demo_images/choice_trial_1.png","","","",""
"html-keyboard-response","14","22929","0.0-6.0-2.0","","null","","null","delaylearn","learning","feedback_duration_window","6601afb05afd671b790311ae","PZXlXzKp55OPcnYAknXL7DBdNLj2","","","","","","","","","","","","","","","","","","3000","","",""
"html-keyboard-response","15","24435","0.0-6.0-3.0","","null","<div style='margin:auto;width: auto; font-size: 150%'><span style='font-weight: bold; font-size: 100px; color: red;'>0 points!</span><br><br></div>","null","delaylearn","learning","feedback_image_window","6601afb05afd671b790311ae","PZXlXzKp55OPcnYAknXL7DBdNLj2","","","","","","","","","","","","","","","","","","","","",""
"html-keyboard-response","16","25953","0.0-7.0","","null","<div style=""font-size:100px;"">+</div>","null","delaylearn","learning","ITI","6601afb05afd671b790311ae","PZXlXzKp55OPcnYAknXL7DBdNLj2","","","","","","","","","","","","","","","","","","","1512","",""
"html-keyboard-response","17","28339","0.0-8.0-0.0","","2382.5","<div style=""display: flex; flex-direction: column; align-items: center; margin-top: -40px;""><img src=""images/demo_images/pattern_1.png"" style=""width: 234px; height: 230px; margin-top: -50px;""><div style=""display: flex; justify-content: space-between; margin-top: 33px;""><img src=""images/demo_images/choice_trial_1.png"" style=""width: 408px; height: 417px; margin-right: 200px;""><img src=""images/demo_images/choice_trial_2.png"" style=""width: 408px; height: 417px;""></div></div>","f","delaylearn","learning","trial","6601afb05afd671b790311ae","PZXlXzKp55OPcnYAknXL7DBdNLj2","2","images/demo_images/choice_trial_1.png","images/demo_images/choice_trial_2.png","images/demo_images/pattern_1.png","f","f","3000","1","2","20","0","4","1","1","1","10","","","","",""
"html-keyboard-response","18","29346","0.0-8.0-1.0","","null","<div style=""display: flex; flex-direction: column; align-items: center; margin-top: -40px;""><img src=""images/demo_images/pattern_1.png"" style=""width: 234px; height: 230px; margin-top: -50px;""><div style=""display: flex; justify-content: space-between; margin-top: 33px;""><img src=""images/demo_images/choice_trial_1.png"" style=""width: 408px; height: 417px; margin-right: 608px;""></div></div>","null","delaylearn","learning","display_response","6601afb05afd671b790311ae","PZXlXzKp55OPcnYAknXL7DBdNLj2","","","","","","","","","","","","","","","","","chosen stimuli: images/demo_images/choice_trial_1.png","","","",""
"html-keyboard-response","19","32349","0.0-8.0-2.0","","null","","null","delaylearn","learning","feedback_duration_window","6601afb05afd671b790311ae","PZXlXzKp55OPcnYAknXL7DBdNLj2","","","","","","","","","","","","","","","","","","3000","","",""
"html-keyboard-response","20","33854","0.0-8.0-3.0","","null","<div style='margin:auto;width: auto; font-size: 150%'><span style='font-weight: bold; font-size: 100px; color: green;'>+10 points!</span><br><br></div>","null","delaylearn","learning","feedback_image_window","6601afb05afd671b790311ae","PZXlXzKp55OPcnYAknXL7DBdNLj2","","","","","","","","","","","","","","","","","","","","",""
"html-keyboard-response","21","34359","0.0-9.0-0.0","","null","","null","","","mood_trial_fixation","","","","","","","","","","","","","","","","","","","","","","",""
"lmdlab-html-vas-response","22","38850","0.0-9.0-1.0","","3479","How happy are you right now?","0.977806712962963","delaylearn","learning","mood_trial","6601afb05afd671b790311ae","PZXlXzKp55OPcnYAknXL7DBdNLj2","","","","","","","","","","","","","","","","","","","","[""Very unhappy"",""Very happy""]",""
"html-keyboard-response","23","40762","0.0-10.0","","null","<div style=""font-size:100px;"">+</div>","null","delaylearn","learning","ITI","6601afb05afd671b790311ae","PZXlXzKp55OPcnYAknXL7DBdNLj2","","","","","","","","","","","","","","","","","","","1910","",""
"html-keyboard-response","24","42995","0.0-11.0-0.0","","2230.100000000093","<div style=""display: flex; flex-direction: column; align-items: center; margin-top: -40px;""><img src=""images/demo_images/pattern_1.png"" style=""width: 234px; height: 230px; margin-top: -50px;""><div style=""display: flex; justify-content: space-between; margin-top: 33px;""><img src=""images/demo_images/choice_trial_2.png"" style=""width: 408px; height: 417px; margin-right: 200px;""><img src=""images/demo_images/choice_trial_1.png"" style=""width: 408px; height: 417px;""></div></div>","j","delaylearn","learning","trial","6601afb05afd671b790311ae","PZXlXzKp55OPcnYAknXL7DBdNLj2","2","images/demo_images/choice_trial_2.png","images/demo_images/choice_trial_1.png","images/demo_images/pattern_1.png","j","j","3000","2","1","20","1","5","1","1","1","20","","","","",""
"html-keyboard-response","25","44002","0.0-11.0-1.0","","null","<div style=""display: flex; flex-direction: column; align-items: center; margin-top: -40px;""><img src=""images/demo_images/pattern_1.png"" style=""width: 234px; height: 230px; margin-top: -50px;""><div style=""display: flex; justify-content: space-between; margin-top: 33px;""><img src=""images/demo_images/choice_trial_1.png"" style=""width: 408px; height: 417px; margin-left:608px;""></div></div>","null","delaylearn","learning","display_response","6601afb05afd671b790311ae","PZXlXzKp55OPcnYAknXL7DBdNLj2","","","","","","","","","","","","","","","","","chosen stimuli: images/demo_images/choice_trial_1.png","","","",""
"html-keyboard-response","26","47007","0.0-11.0-2.0","","null","","null","delaylearn","learning","feedback_duration_window","6601afb05afd671b790311ae","PZXlXzKp55OPcnYAknXL7DBdNLj2","","","","","","","","","","","","","","","","","","3000","","",""
"html-keyboard-response","27","48512","0.0-11.0-3.0","","null","<div style='margin:auto;width: auto; font-size: 150%'><span style='font-weight: bold; font-size: 100px; color: green;'>+10 points!</span><br><br></div>","null","delaylearn","learning","feedback_image_window","6601afb05afd671b790311ae","PZXlXzKp55OPcnYAknXL7DBdNLj2","","","","","","","","","","","","","","","","","","","","",""
"html-keyboard-response","28","50600","0.0-12.0","","null","<div style=""font-size:100px;"">+</div>","null","delaylearn","learning","ITI","6601afb05afd671b790311ae","PZXlXzKp55OPcnYAknXL7DBdNLj2","","","","","","","","","","","","","","","","","","","2087","",""
"html-keyboard-response","29","53604","0.0-13.0-0.0","","null","<div style=""display: flex; flex-direction: column; align-items: center; margin-top: -40px;""><img src=""images/demo_images/pattern_1.png"" style=""width: 234px; height: 230px; margin-top: -50px;""><div style=""display: flex; justify-content: space-between; margin-top: 33px;""><img src=""images/demo_images/choice_trial_1.png"" style=""width: 408px; height: 417px; margin-right: 200px;""><img src=""images/demo_images/choice_trial_2.png"" style=""width: 408px; height: 417px;""></div></div>","null","delaylearn","learning","trial","6601afb05afd671b790311ae","PZXlXzKp55OPcnYAknXL7DBdNLj2","2","images/demo_images/choice_trial_1.png","images/demo_images/choice_trial_2.png","images/demo_images/pattern_1.png","f","f","3000","1","2","20","0","6","0","0","0","20","","","","",""
"html-keyboard-response","30","54608","0.0-13.0-1.0","","null","<div style='font-weight: bold; font-size: 75px; color: red;'>Missed Trial <br><br><br><br> Please respond faster</div>","null","delaylearn","learning","display_response","6601afb05afd671b790311ae","PZXlXzKp55OPcnYAknXL7DBdNLj2","","","","","","","","","","","","","","","","","Missed trial","","","",""
"html-keyboard-response","31","54614","0.0-13.0-2.0","","null","","null","delaylearn","learning","feedback_duration_window","6601afb05afd671b790311ae","PZXlXzKp55OPcnYAknXL7DBdNLj2","","","","","","","","","","","","","","","","","","0","","",""
"html-keyboard-response","32","54620","0.0-13.0-3.0","","null","","null","delaylearn","learning","feedback_image_window","6601afb05afd671b790311ae","PZXlXzKp55OPcnYAknXL7DBdNLj2","","","","","","","","","","","","","","","","","","","","",""
"html-keyboard-response","33","56171","0.0-14.0","","null","<div style=""font-size:100px;"">+</div>","null","delaylearn","learning","ITI","6601afb05afd671b790311ae","PZXlXzKp55OPcnYAknXL7DBdNLj2","","","","","","","","","","","","","","","","","","","1545","",""
"html-keyboard-response","34","57319","0.0-15.0-0.0","","1144.7999999999302","<div style=""display: flex; flex-direction: column; align-items: center; margin-top: -40px;""><img src=""images/demo_images/pattern_1.png"" style=""width: 234px; height: 230px; margin-top: -50px;""><div style=""display: flex; justify-content: space-between; margin-top: 33px;""><img src=""images/demo_images/choice_trial_2.png"" style=""width: 408px; height: 417px; margin-right: 200px;""><img src=""images/demo_images/choice_trial_1.png"" style=""width: 408px; height: 417px;""></div></div>","j","delaylearn","learning","trial","6601afb05afd671b790311ae","PZXlXzKp55OPcnYAknXL7DBdNLj2","2","images/demo_images/choice_trial_2.png","images/demo_images/choice_trial_1.png","images/demo_images/pattern_1.png","j","j","3000","2","1","20","1","7","1","1","1","30","","","","",""
"html-keyboard-response","35","58322","0.0-15.0-1.0","","null","<div style=""display: flex; flex-direction: column; align-items: center; margin-top: -40px;""><img src=""images/demo_images/pattern_1.png"" style=""width: 234px; height: 230px; margin-top: -50px;""><div style=""display: flex; justify-content: space-between; margin-top: 33px;""><img src=""images/demo_images/choice_trial_1.png"" style=""width: 408px; height: 417px; margin-left:608px;""></div></div>","null","delaylearn","learning","display_response","6601afb05afd671b790311ae","PZXlXzKp55OPcnYAknXL7DBdNLj2","","","","","","","","","","","","","","","","","chosen stimuli: images/demo_images/choice_trial_1.png","","","",""
"html-keyboard-response","36","61327","0.0-15.0-2.0","","null","","null","delaylearn","learning","feedback_duration_window","6601afb05afd671b790311ae","PZXlXzKp55OPcnYAknXL7DBdNLj2","","","","","","","","","","","","","","","","","","3000","","",""
"html-keyboard-response","37","62829","0.0-15.0-3.0","","null","<div style='margin:auto;width: auto; font-size: 150%'><span style='font-weight: bold; font-size: 100px; color: green;'>+10 points!</span><br><br></div>","null","delaylearn","learning","feedback_image_window","6601afb05afd671b790311ae","PZXlXzKp55OPcnYAknXL7DBdNLj2","","","","","","","","","","","","","","","","","","","","",""
"html-keyboard-response","38","65062","0.0-16.0","","null","<div style=""font-size:100px;"">+</div>","null","delaylearn","learning","ITI","6601afb05afd671b790311ae","PZXlXzKp55OPcnYAknXL7DBdNLj2","","","","","","","","","","","","","","","","","","","2228","",""
"html-keyboard-response","39","66093","0.0-17.0-0.0","","1026","<div style=""display: flex; flex-direction: column; align-items: center; margin-top: -40px;""><img src=""images/demo_images/pattern_1.png"" style=""width: 234px; height: 230px; margin-top: -50px;""><div style=""display: flex; justify-content: space-between; margin-top: 33px;""><img src=""images/demo_images/choice_trial_1.png"" style=""width: 408px; height: 417px; margin-right: 200px;""><img src=""images/demo_images/choice_trial_2.png"" style=""width: 408px; height: 417px;""></div></div>","f","delaylearn","learning","trial","6601afb05afd671b790311ae","PZXlXzKp55OPcnYAknXL7DBdNLj2","2","images/demo_images/choice_trial_1.png","images/demo_images/choice_trial_2.png","images/demo_images/pattern_1.png","f","f","3000","1","2","20","0","8","1","1","1","40","","","","",""
"html-keyboard-response","40","67098","0.0-17.0-1.0","","null","<div style=""display: flex; flex-direction: column; align-items: center; margin-top: -40px;""><img src=""images/demo_images/pattern_1.png"" style=""width: 234px; height: 230px; margin-top: -50px;""><div style=""display: flex; justify-content: space-between; margin-top: 33px;""><img src=""images/demo_images/choice_trial_1.png"" style=""width: 408px; height: 417px; margin-right: 608px;""></div></div>","null","delaylearn","learning","display_response","6601afb05afd671b790311ae","PZXlXzKp55OPcnYAknXL7DBdNLj2","","","","","","","","","","","","","","","","","chosen stimuli: images/demo_images/choice_trial_1.png","","","",""
"html-keyboard-response","41","70104","0.0-17.0-2.0","","null","","null","delaylearn","learning","feedback_duration_window","6601afb05afd671b790311ae","PZXlXzKp55OPcnYAknXL7DBdNLj2","","","","","","","","","","","","","","","","","","3000","","",""
"html-keyboard-response","42","71607","0.0-17.0-3.0","","null","<div style='margin:auto;width: auto; font-size: 150%'><span style='font-weight: bold; font-size: 100px; color: green;'>+10 points!</span><br><br></div>","null","delaylearn","learning","feedback_image_window","6601afb05afd671b790311ae","PZXlXzKp55OPcnYAknXL7DBdNLj2","","","","","","","","","","","","","","","","","","","","",""
"html-button-response","43","73825","0.0-18.0","","2214.5999999999767","
  <div style=""display: flex; align-items: center; justify-content: center; height: 80vh;"">
  <div>
          <img src=""images/inst_demo_finish.png"" style=""width: 80vw; height:auto;"">
          <br><br>
      </div>
      <br><br>
  </div>","0","","","","","","","","","","","","","","","","","","","","","","","","","",""
"html-keyboard-response","44","79956","0.0-19.0","","6129.79999999993","
  <div style=""display: flex; align-items: center; justify-content: center; height: 80vh;"">
  <div>
          <img src=""images/inst_6.png"" style=""width: 80vw; height:auto;"">
          <br><br>
      </div>
      <br><br>
  </div>","f","","","","","","","","","","","","","","","","","","","","","","","","","",""
"html-keyboard-response","45","82970","0.0-20.0","","null","<div style=""font-size:100px;"">+</div>","null","delaylearn","learning","pre_fixation","6601afb05afd671b790311ae","","","","","","","","","","","","","","","","","","","","","",""
"html-keyboard-response","46","85345","0.0-21.0","","null","<div style=""font-size:100px;"">+</div>","null","delaylearn","learning","ITI","6601afb05afd671b790311ae","PZXlXzKp55OPcnYAknXL7DBdNLj2","","","","","","","","","","","","","","","","","","","2372","",""
"html-keyboard-response","47","87552","0.0-22.0-0.0","","2203.79999999993","<div style=""display: flex; flex-direction: column; align-items: center; margin-top: -40px;""><img src=""images/pattern_3.png"" style=""width: 234px; height: 230px; margin-top: -50px;""><div style=""display: flex; justify-content: space-between; margin-top: 33px;""><img src=""images/choice_trial_12.png"" style=""width: 408px; height: 417px; margin-right: 200px;""><img src=""images/choice_trial_14.png"" style=""width: 408px; height: 417px;""></div></div>","j","delaylearn","learning","trial","6601afb05afd671b790311ae","PZXlXzKp55OPcnYAknXL7DBdNLj2","2","images/choice_trial_12.png","images/choice_trial_14.png","images/pattern_3.png","f","f","7000","12","14","2","0","9","0","0","14","40","","","","",""
"html-keyboard-response","48","88554","0.0-22.0-1.0","","null","<div style=""display: flex; flex-direction: column; align-items: center; margin-top: -40px;""><img src=""images/pattern_3.png"" style=""width: 234px; height: 230px; margin-top: -50px;""><div style=""display: flex; justify-content: space-between; margin-top: 33px;""><img src=""images/choice_trial_14.png"" style=""width: 408px; height: 417px; margin-left:608px;""></div></div>","null","delaylearn","learning","display_response","6601afb05afd671b790311ae","PZXlXzKp55OPcnYAknXL7DBdNLj2","","","","","","","","","","","","","","","","","chosen stimuli: images/choice_trial_14.png","","","",""
"html-keyboard-response","49","95560","0.0-22.0-2.0","","null","","null","delaylearn","learning","feedback_duration_window","6601afb05afd671b790311ae","PZXlXzKp55OPcnYAknXL7DBdNLj2","","","","","","","","","","","","","","","","","","7000","","",""
"html-keyboard-response","50","97067","0.0-22.0-3.0","","null","<div style='margin:auto;width: auto; font-size: 150%'><span style='font-weight: bold; font-size: 100px; color: red;'>0 points!</span><br><br></div>","null","delaylearn","learning","feedback_image_window","6601afb05afd671b790311ae","PZXlXzKp55OPcnYAknXL7DBdNLj2","","","","","","","","","","","","","","","","","","","","",""
"html-keyboard-response","51","98993","0.0-23.0","","null","<div style=""font-size:100px;"">+</div>","null","delaylearn","learning","ITI","6601afb05afd671b790311ae","PZXlXzKp55OPcnYAknXL7DBdNLj2","","","","","","","","","","","","","","","","","","","1921","",""
"html-keyboard-response","52","101908","0.0-24.0-0.0","","2912.9000000000233","<div style=""display: flex; flex-direction: column; align-items: center; margin-top: -40px;""><img src=""images/pattern_7.png"" style=""width: 234px; height: 230px; margin-top: -50px;""><div style=""display: flex; justify-content: space-between; margin-top: 33px;""><img src=""images/choice_trial_15.png"" style=""width: 408px; height: 417px; margin-right: 200px;""><img src=""images/choice_trial_8.png"" style=""width: 408px; height: 417px;""></div></div>","j","delaylearn","learning","trial","6601afb05afd671b790311ae","PZXlXzKp55OPcnYAknXL7DBdNLj2","2","images/choice_trial_15.png","images/choice_trial_8.png","images/pattern_7.png","j","j","750","15","8","6","1","10","1","1","8","50","","","","",""
"html-keyboard-response","53","102915","0.0-24.0-1.0","","null","<div style=""display: flex; flex-direction: column; align-items: center; margin-top: -40px;""><img src=""images/pattern_7.png"" style=""width: 234px; height: 230px; margin-top: -50px;""><div style=""display: flex; justify-content: space-between; margin-top: 33px;""><img src=""images/choice_trial_8.png"" style=""width: 408px; height: 417px; margin-left:608px;""></div></div>","null","delaylearn","learning","display_response","6601afb05afd671b790311ae","PZXlXzKp55OPcnYAknXL7DBdNLj2","","","","","","","","","","","","","","","","","chosen stimuli: images/choice_trial_8.png","","","",""
"html-keyboard-response","54","103671","0.0-24.0-2.0","","null","","null","delaylearn","learning","feedback_duration_window","6601afb05afd671b790311ae","PZXlXzKp55OPcnYAknXL7DBdNLj2","","","","","","","","","","","","","","","","","","750","","",""
"html-keyboard-response","55","105175","0.0-24.0-3.0","","null","<div style='margin:auto;width: auto; font-size: 150%'><span style='font-weight: bold; font-size: 100px; color: green;'>+10 points!</span><br><br></div>","null","delaylearn","learning","feedback_image_window","6601afb05afd671b790311ae","PZXlXzKp55OPcnYAknXL7DBdNLj2","","","","","","","","","","","","","","","","","","","","",""
"html-keyboard-response","56","107329","0.0-25.0","","null","<div style=""font-size:100px;"">+</div>","null","delaylearn","learning","ITI","6601afb05afd671b790311ae","PZXlXzKp55OPcnYAknXL7DBdNLj2","","","","","","","","","","","","","","","","","","","2150","",""
"html-keyboard-response","57","109093","0.0-26.0-0.0","","1761.7000000000698","<div style=""display: flex; flex-direction: column; align-items: center; margin-top: -40px;""><img src=""images/pattern_4.png"" style=""width: 234px; height: 230px; margin-top: -50px;""><div style=""display: flex; justify-content: space-between; margin-top: 33px;""><img src=""images/choice_trial_4.png"" style=""width: 408px; height: 417px; margin-right: 200px;""><img src=""images/choice_trial_16.png"" style=""width: 408px; height: 417px;""></div></div>","j","delaylearn","learning","trial","6601afb05afd671b790311ae","PZXlXzKp55OPcnYAknXL7DBdNLj2","2","images/choice_trial_4.png","images/choice_trial_16.png","images/pattern_4.png","f","f","7000","4","16","3","0","11","0","0","16","50","","","","",""
"html-keyboard-response","58","110099","0.0-26.0-1.0","","null","<div style=""display: flex; flex-direction: column; align-items: center; margin-top: -40px;""><img src=""images/pattern_4.png"" style=""width: 234px; height: 230px; margin-top: -50px;""><div style=""display: flex; justify-content: space-between; margin-top: 33px;""><img src=""images/choice_trial_16.png"" style=""width: 408px; height: 417px; margin-left:608px;""></div></div>","null","delaylearn","learning","display_response","6601afb05afd671b790311ae","PZXlXzKp55OPcnYAknXL7DBdNLj2","","","","","","","","","","","","","","","","","chosen stimuli: images/choice_trial_16.png","","","",""
"html-keyboard-response","59","117103","0.0-26.0-2.0","","null","","null","delaylearn","learning","feedback_duration_window","6601afb05afd671b790311ae","PZXlXzKp55OPcnYAknXL7DBdNLj2","","","","","","","","","","","","","","","","","","7000","","",""
"html-keyboard-response","60","118607","0.0-26.0-3.0","","null","<div style='margin:auto;width: auto; font-size: 150%'><span style='font-weight: bold; font-size: 100px; color: red;'>0 points!</span><br><br></div>","null","delaylearn","learning","feedback_image_window","6601afb05afd671b790311ae","PZXlXzKp55OPcnYAknXL7DBdNLj2","","","","","","","","","","","","","","","","","","","","",""
"html-keyboard-response","61","120707","0.0-27.0","","null","<div style=""font-size:100px;"">+</div>","null","delaylearn","learning","ITI","6601afb05afd671b790311ae","PZXlXzKp55OPcnYAknXL7DBdNLj2","","","","","","","","","","","","","","","","","","","2096","",""
"html-keyboard-response","62","122606","0.0-28.0-0.0","","1893.3000000000466","<div style=""display: flex; flex-direction: column; align-items: center; margin-top: -40px;""><img src=""images/pattern_5.png"" style=""width: 234px; height: 230px; margin-top: -50px;""><div style=""display: flex; justify-content: space-between; margin-top: 33px;""><img src=""images/choice_trial_9.png"" style=""width: 408px; height: 417px; margin-right: 200px;""><img src=""images/choice_trial_2.png"" style=""width: 408px; height: 417px;""></div></div>","f","delaylearn","learning","trial","6601afb05afd671b790311ae","PZXlXzKp55OPcnYAknXL7DBdNLj2","2","images/choice_trial_9.png","images/choice_trial_2.png","images/pattern_5.png","j","j","750","9","2","4","1","12","0","0","9","50","","","","",""
"html-keyboard-response","63","123611","0.0-28.0-1.0","","null","<div style=""display: flex; flex-direction: column; align-items: center; margin-top: -40px;""><img src=""images/pattern_5.png"" style=""width: 234px; height: 230px; margin-top: -50px;""><div style=""display: flex; justify-content: space-between; margin-top: 33px;""><img src=""images/choice_trial_9.png"" style=""width: 408px; height: 417px; margin-right: 608px;""></div></div>","null","delaylearn","learning","display_response","6601afb05afd671b790311ae","PZXlXzKp55OPcnYAknXL7DBdNLj2","","","","","","","","","","","","","","","","","chosen stimuli: images/choice_trial_9.png","","","",""
"html-keyboard-response","64","124363","0.0-28.0-2.0","","null","","null","delaylearn","learning","feedback_duration_window","6601afb05afd671b790311ae","PZXlXzKp55OPcnYAknXL7DBdNLj2","","","","","","","","","","","","","","","","","","750","","",""
"html-keyboard-response","65","125865","0.0-28.0-3.0","","null","<div style='margin:auto;width: auto; font-size: 150%'><span style='font-weight: bold; font-size: 100px; color: red;'>0 points!</span><br><br></div>","null","delaylearn","learning","feedback_image_window","6601afb05afd671b790311ae","PZXlXzKp55OPcnYAknXL7DBdNLj2","","","","","","","","","","","","","","","","","","","","",""
"html-keyboard-response","66","127915","0.0-29.0","","null","<div style=""font-size:100px;"">+</div>","null","delaylearn","learning","ITI","6601afb05afd671b790311ae","PZXlXzKp55OPcnYAknXL7DBdNLj2","","","","","","","","","","","","","","","","","","","2046","",""
"html-keyboard-response","67","128887","0.0-30.0-0.0","","969.3999999999069","<div style=""display: flex; flex-direction: column; align-items: center; margin-top: -40px;""><img src=""images/pattern_6.png"" style=""width: 234px; height: 230px; margin-top: -50px;""><div style=""display: flex; justify-content: space-between; margin-top: 33px;""><img src=""images/choice_trial_11.png"" style=""width: 408px; height: 417px; margin-right: 200px;""><img src=""images/choice_trial_5.png"" style=""width: 408px; height: 417px;""></div></div>","j","delaylearn","learning","trial","6601afb05afd671b790311ae","PZXlXzKp55OPcnYAknXL7DBdNLj2","2","images/choice_trial_11.png","images/choice_trial_5.png","images/pattern_6.png","j","f","750","11","5","5","0","13","0","1","5","60","","","","",""
"html-keyboard-response","68","129894","0.0-30.0-1.0","","null","<div style=""display: flex; flex-direction: column; align-items: center; margin-top: -40px;""><img src=""images/pattern_6.png"" style=""width: 234px; height: 230px; margin-top: -50px;""><div style=""display: flex; justify-content: space-between; margin-top: 33px;""><img src=""images/choice_trial_5.png"" style=""width: 408px; height: 417px; margin-left:608px;""></div></div>","null","delaylearn","learning","display_response","6601afb05afd671b790311ae","PZXlXzKp55OPcnYAknXL7DBdNLj2","","","","","","","","","","","","","","","","","chosen stimuli: images/choice_trial_5.png","","","",""
"html-keyboard-response","69","130646","0.0-30.0-2.0","","null","","null","delaylearn","learning","feedback_duration_window","6601afb05afd671b790311ae","PZXlXzKp55OPcnYAknXL7DBdNLj2","","","","","","","","","","","","","","","","","","750","","",""
"html-keyboard-response","70","132148","0.0-30.0-3.0","","null","<div style='margin:auto;width: auto; font-size: 150%'><span style='font-weight: bold; font-size: 100px; color: green;'>+10 points!</span><br><br></div>","null","delaylearn","learning","feedback_image_window","6601afb05afd671b790311ae","PZXlXzKp55OPcnYAknXL7DBdNLj2","","","","","","","","","","","","","","","","","","","","",""
"html-keyboard-response","71","132654","0.0-31.0-0.0","","null","","null","","","mood_trial_fixation","","","","","","","","","","","","","","","","","","","","","","",""
"lmdlab-html-vas-response","72","137989","0.0-31.0-1.0","","4326","How happy are you right now?","0.5092881944444444","delaylearn","learning","mood_trial","6601afb05afd671b790311ae","PZXlXzKp55OPcnYAknXL7DBdNLj2","","","","","","","","","","","","","","","","","","","","[""Very unhappy"",""Very happy""]",""
"html-keyboard-response","73","139616","0.0-32.0","","null","<div style=""font-size:100px;"">+</div>","null","delaylearn","learning","ITI","6601afb05afd671b790311ae","PZXlXzKp55OPcnYAknXL7DBdNLj2","","","","","","","","","","","","","","","","","","","1624","",""
"html-keyboard-response","74","142623","0.0-33.0-0.0","","null","<div style=""display: flex; flex-direction: column; align-items: center; margin-top: -40px;""><img src=""images/pattern_1.png"" style=""width: 234px; height: 230px; margin-top: -50px;""><div style=""display: flex; justify-content: space-between; margin-top: 33px;""><img src=""images/choice_trial_10.png"" style=""width: 408px; height: 417px; margin-right: 200px;""><img src=""images/choice_trial_3.png"" style=""width: 408px; height: 417px;""></div></div>","null","delaylearn","learning","trial","6601afb05afd671b790311ae","PZXlXzKp55OPcnYAknXL7DBdNLj2","2","images/choice_trial_10.png","images/choice_trial_3.png","images/pattern_1.png","j","j","7000","10","3","1","1","14","0","0","0","60","","","","",""
"html-keyboard-response","75","143629","0.0-33.0-1.0","","null","<div style='font-weight: bold; font-size: 75px; color: red;'>Missed Trial <br><br><br><br> Please respond faster</div>","null","delaylearn","learning","display_response","6601afb05afd671b790311ae","PZXlXzKp55OPcnYAknXL7DBdNLj2","","","","","","","","","","","","","","","","","Missed trial","","","",""
"html-keyboard-response","76","143635","0.0-33.0-2.0","","null","","null","delaylearn","learning","feedback_duration_window","6601afb05afd671b790311ae","PZXlXzKp55OPcnYAknXL7DBdNLj2","","","","","","","","","","","","","","","","","","0","","",""
"html-keyboard-response","77","143640","0.0-33.0-3.0","","null","","null","delaylearn","learning","feedback_image_window","6601afb05afd671b790311ae","PZXlXzKp55OPcnYAknXL7DBdNLj2","","","","","","","","","","","","","","","","","","","","",""
"html-keyboard-response","78","145796","0.0-34.0","","null","<div style=""font-size:100px;"">+</div>","null","delaylearn","learning","ITI","6601afb05afd671b790311ae","PZXlXzKp55OPcnYAknXL7DBdNLj2","","","","","","","","","","","","","","","","","","","2150","",""
"html-keyboard-response","79","147402","0.0-35.0-0.0","","1602.9000000000233","<div style=""display: flex; flex-direction: column; align-items: center; margin-top: -40px;""><img src=""images/pattern_3.png"" style=""width: 234px; height: 230px; margin-top: -50px;""><div style=""display: flex; justify-content: space-between; margin-top: 33px;""><img src=""images/choice_trial_14.png"" style=""width: 408px; height: 417px; margin-right: 200px;""><img src=""images/choice_trial_12.png"" style=""width: 408px; height: 417px;""></div></div>","j","delaylearn","learning","trial","6601afb05afd671b790311ae","PZXlXzKp55OPcnYAknXL7DBdNLj2","2","images/choice_trial_14.png","images/choice_trial_12.png","images/pattern_3.png","f","j","7000","14","12","2","1","15","1","0","12","60","","","","",""
"html-keyboard-response","80","148405","0.0-35.0-1.0","","null","<div style=""display: flex; flex-direction: column; align-items: center; margin-top: -40px;""><img src=""images/pattern_3.png"" style=""width: 234px; height: 230px; margin-top: -50px;""><div style=""display: flex; justify-content: space-between; margin-top: 33px;""><img src=""images/choice_trial_12.png"" style=""width: 408px; height: 417px; margin-left:608px;""></div></div>","null","delaylearn","learning","display_response","6601afb05afd671b790311ae","PZXlXzKp55OPcnYAknXL7DBdNLj2","","","","","","","","","","","","","","","","","chosen stimuli: images/choice_trial_12.png","","","",""
"html-keyboard-response","81","155407","0.0-35.0-2.0","","null","","null","delaylearn","learning","feedback_duration_window","6601afb05afd671b790311ae","PZXlXzKp55OPcnYAknXL7DBdNLj2","","","","","","","","","","","","","","","","","","7000","","",""
"html-keyboard-response","82","156912","0.0-35.0-3.0","","null","<div style='margin:auto;width: auto; font-size: 150%'><span style='font-weight: bold; font-size: 100px; color: red;'>0 points!</span><br><br></div>","null","delaylearn","learning","feedback_image_window","6601afb05afd671b790311ae","PZXlXzKp55OPcnYAknXL7DBdNLj2","","","","","","","","","","","","","","","","","","","","",""
"html-keyboard-response","83","158529","0.0-36.0","","null","<div style=""font-size:100px;"">+</div>","null","delaylearn","learning","ITI","6601afb05afd671b790311ae","PZXlXzKp55OPcnYAknXL7DBdNLj2","","","","","","","","","","","","","","","","","","","1614","",""
"html-keyboard-response","84","158846","0.0-37.0-0.0","","313.4000000000233","<div style=""display: flex; flex-direction: column; align-items: center; margin-top: -40px;""><img src=""images/pattern_5.png"" style=""width: 234px; height: 230px; margin-top: -50px;""><div style=""display: flex; justify-content: space-between; margin-top: 33px;""><img src=""images/choice_trial_2.png"" style=""width: 408px; height: 417px; margin-right: 200px;""><img src=""images/choice_trial_9.png"" style=""width: 408px; height: 417px;""></div></div>","j","delaylearn","learning","trial","6601afb05afd671b790311ae","PZXlXzKp55OPcnYAknXL7DBdNLj2","2","images/choice_trial_2.png","images/choice_trial_9.png","images/pattern_5.png","f","f","750","2","9","4","0","16","0","0","9","60","","","","",""
"html-keyboard-response","85","159849","0.0-37.0-1.0","","null","<div style=""display: flex; flex-direction: column; align-items: center; margin-top: -40px;""><img src=""images/pattern_5.png"" style=""width: 234px; height: 230px; margin-top: -50px;""><div style=""display: flex; justify-content: space-between; margin-top: 33px;""><img src=""images/choice_trial_9.png"" style=""width: 408px; height: 417px; margin-left:608px;""></div></div>","null","delaylearn","learning","display_response","6601afb05afd671b790311ae","PZXlXzKp55OPcnYAknXL7DBdNLj2","","","","","","","","","","","","","","","","","chosen stimuli: images/choice_trial_9.png","","","",""
"html-keyboard-response","86","160604","0.0-37.0-2.0","","null","","null","delaylearn","learning","feedback_duration_window","6601afb05afd671b790311ae","PZXlXzKp55OPcnYAknXL7DBdNLj2","","","","","","","","","","","","","","","","","","750","","",""
"html-keyboard-response","87","162108","0.0-37.0-3.0","","null","<div style='margin:auto;width: auto; font-size: 150%'><span style='font-weight: bold; font-size: 100px; color: red;'>0 points!</span><br><br></div>","null","delaylearn","learning","feedback_image_window","6601afb05afd671b790311ae","PZXlXzKp55OPcnYAknXL7DBdNLj2","","","","","","","","","","","","","","","","","","","","",""
"html-keyboard-response","88","162612","0.0-38.0-0.0","","null","","null","","","mood_trial_fixation","","","","","","","","","","","","","","","","","","","","","","",""
"lmdlab-html-vas-response","89","165778","0.0-38.0-1.0","","2159","How happy are you right now?","0.4629918981481482","delaylearn","learning","mood_trial","6601afb05afd671b790311ae","PZXlXzKp55OPcnYAknXL7DBdNLj2","","","","","","","","","","","","","","","","","","","","[""Very unhappy"",""Very happy""]",""
"html-keyboard-response","90","168257","0.0-39.0","","null","<div style=""font-size:100px;"">+</div>","null","delaylearn","learning","ITI","6601afb05afd671b790311ae","PZXlXzKp55OPcnYAknXL7DBdNLj2","","","","","","","","","","","","","","","","","","","2475","",""
"html-keyboard-response","91","168977","0.0-40.0-0.0","","718.0999999999767","<div style=""display: flex; flex-direction: column; align-items: center; margin-top: -40px;""><img src=""images/pattern_6.png"" style=""width: 234px; height: 230px; margin-top: -50px;""><div style=""display: flex; justify-content: space-between; margin-top: 33px;""><img src=""images/choice_trial_11.png"" style=""width: 408px; height: 417px; margin-right: 200px;""><img src=""images/choice_trial_5.png"" style=""width: 408px; height: 417px;""></div></div>","f","delaylearn","learning","trial","6601afb05afd671b790311ae","PZXlXzKp55OPcnYAknXL7DBdNLj2","2","images/choice_trial_11.png","images/choice_trial_5.png","images/pattern_6.png","f","f","750","11","5","5","0","17","1","1","11","70","","","","",""
"html-keyboard-response","92","169980","0.0-40.0-1.0","","null","<div style=""display: flex; flex-direction: column; align-items: center; margin-top: -40px;""><img src=""images/pattern_6.png"" style=""width: 234px; height: 230px; margin-top: -50px;""><div style=""display: flex; justify-content: space-between; margin-top: 33px;""><img src=""images/choice_trial_11.png"" style=""width: 408px; height: 417px; margin-right: 608px;""></div></div>","null","delaylearn","learning","display_response","6601afb05afd671b790311ae","PZXlXzKp55OPcnYAknXL7DBdNLj2","","","","","","","","","","","","","","","","","chosen stimuli: images/choice_trial_11.png","","","",""
"html-keyboard-response","93","170735","0.0-40.0-2.0","","null","","null","delaylearn","learning","feedback_duration_window","6601afb05afd671b790311ae","PZXlXzKp55OPcnYAknXL7DBdNLj2","","","","","","","","","","","","","","","","","","750","","",""
"html-keyboard-response","94","172237","0.0-40.0-3.0","","null","<div style='margin:auto;width: auto; font-size: 150%'><span style='font-weight: bold; font-size: 100px; color: green;'>+10 points!</span><br><br></div>","null","delaylearn","learning","feedback_image_window","6601afb05afd671b790311ae","PZXlXzKp55OPcnYAknXL7DBdNLj2","","","","","","","","","","","","","","","","","","","","",""
"html-keyboard-response","95","174045","0.0-41.0","","null","<div style=""font-size:100px;"">+</div>","null","delaylearn","learning","ITI","6601afb05afd671b790311ae","PZXlXzKp55OPcnYAknXL7DBdNLj2","","","","","","","","","","","","","","","","","","","1804","",""
"html-keyboard-response","96","174999","0.0-42.0-0.0","","949.1999999999534","<div style=""display: flex; flex-direction: column; align-items: center; margin-top: -40px;""><img src=""images/pattern_4.png"" style=""width: 234px; height: 230px; margin-top: -50px;""><div style=""display: flex; justify-content: space-between; margin-top: 33px;""><img src=""images/choice_trial_16.png"" style=""width: 408px; height: 417px; margin-right: 200px;""><img src=""images/choice_trial_4.png"" style=""width: 408px; height: 417px;""></div></div>","f","delaylearn","learning","trial","6601afb05afd671b790311ae","PZXlXzKp55OPcnYAknXL7DBdNLj2","2","images/choice_trial_16.png","images/choice_trial_4.png","images/pattern_4.png","j","j","7000","16","4","3","1","18","0","0","16","70","","","","",""
"html-keyboard-response","97","176003","0.0-42.0-1.0","","null","<div style=""display: flex; flex-direction: column; align-items: center; margin-top: -40px;""><img src=""images/pattern_4.png"" style=""width: 234px; height: 230px; margin-top: -50px;""><div style=""display: flex; justify-content: space-between; margin-top: 33px;""><img src=""images/choice_trial_16.png"" style=""width: 408px; height: 417px; margin-right: 608px;""></div></div>","null","delaylearn","learning","display_response","6601afb05afd671b790311ae","PZXlXzKp55OPcnYAknXL7DBdNLj2","","","","","","","","","","","","","","","","","chosen stimuli: images/choice_trial_16.png","","","",""
"html-keyboard-response","98","183005","0.0-42.0-2.0","","null","","null","delaylearn","learning","feedback_duration_window","6601afb05afd671b790311ae","PZXlXzKp55OPcnYAknXL7DBdNLj2","","","","","","","","","","","","","","","","","","7000","","",""
"html-keyboard-response","99","184508","0.0-42.0-3.0","","null","<div style='margin:auto;width: auto; font-size: 150%'><span style='font-weight: bold; font-size: 100px; color: red;'>0 points!</span><br><br></div>","null","delaylearn","learning","feedback_image_window","6601afb05afd671b790311ae","PZXlXzKp55OPcnYAknXL7DBdNLj2","","","","","","","","","","","","","","","","","","","","",""
"html-keyboard-response","100","186540","0.0-43.0","","null","<div style=""font-size:100px;"">+</div>","null","delaylearn","learning","ITI","6601afb05afd671b790311ae","PZXlXzKp55OPcnYAknXL7DBdNLj2","","","","","","","","","","","","","","","","","","","2029","",""
"html-keyboard-response","101","188623","0.0-44.0-0.0","","2078.79999999993","<div style=""display: flex; flex-direction: column; align-items: center; margin-top: -40px;""><img src=""images/pattern_7.png"" style=""width: 234px; height: 230px; margin-top: -50px;""><div style=""display: flex; justify-content: space-between; margin-top: 33px;""><img src=""images/choice_trial_8.png"" style=""width: 408px; height: 417px; margin-right: 200px;""><img src=""images/choice_trial_15.png"" style=""width: 408px; height: 417px;""></div></div>","j","delaylearn","learning","trial","6601afb05afd671b790311ae","PZXlXzKp55OPcnYAknXL7DBdNLj2","2","images/choice_trial_8.png","images/choice_trial_15.png","images/pattern_7.png","j","f","750","8","15","6","0","19","0","1","15","80","","","","",""
"html-keyboard-response","102","189629","0.0-44.0-1.0","","null","<div style=""display: flex; flex-direction: column; align-items: center; margin-top: -40px;""><img src=""images/pattern_7.png"" style=""width: 234px; height: 230px; margin-top: -50px;""><div style=""display: flex; justify-content: space-between; margin-top: 33px;""><img src=""images/choice_trial_15.png"" style=""width: 408px; height: 417px; margin-left:608px;""></div></div>","null","delaylearn","learning","display_response","6601afb05afd671b790311ae","PZXlXzKp55OPcnYAknXL7DBdNLj2","","","","","","","","","","","","","","","","","chosen stimuli: images/choice_trial_15.png","","","",""
"html-keyboard-response","103","190385","0.0-44.0-2.0","","null","","null","delaylearn","learning","feedback_duration_window","6601afb05afd671b790311ae","PZXlXzKp55OPcnYAknXL7DBdNLj2","","","","","","","","","","","","","","","","","","750","","",""
"html-keyboard-response","104","191887","0.0-44.0-3.0","","null","<div style='margin:auto;width: auto; font-size: 150%'><span style='font-weight: bold; font-size: 100px; color: green;'>+10 points!</span><br><br></div>","null","delaylearn","learning","feedback_image_window","6601afb05afd671b790311ae","PZXlXzKp55OPcnYAknXL7DBdNLj2","","","","","","","","","","","","","","","","","","","","",""
"html-keyboard-response","105","193537","0.0-45.0","","null","<div style=""font-size:100px;"">+</div>","null","delaylearn","learning","ITI","6601afb05afd671b790311ae","PZXlXzKp55OPcnYAknXL7DBdNLj2","","","","","","","","","","","","","","","","","","","1647","",""
"html-keyboard-response","106","194432","0.0-46.0-0.0","","889.5","<div style=""display: flex; flex-direction: column; align-items: center; margin-top: -40px;""><img src=""images/pattern_1.png"" style=""width: 234px; height: 230px; margin-top: -50px;""><div style=""display: flex; justify-content: space-between; margin-top: 33px;""><img src=""images/choice_trial_3.png"" style=""width: 408px; height: 417px; margin-right: 200px;""><img src=""images/choice_trial_10.png"" style=""width: 408px; height: 417px;""></div></div>","f","delaylearn","learning","trial","6601afb05afd671b790311ae","PZXlXzKp55OPcnYAknXL7DBdNLj2","2","images/choice_trial_3.png","images/choice_trial_10.png","images/pattern_1.png","f","f","7000","3","10","1","0","20","1","1","3","90","","","","",""
"html-keyboard-response","107","195435","0.0-46.0-1.0","","null","<div style=""display: flex; flex-direction: column; align-items: center; margin-top: -40px;""><img src=""images/pattern_1.png"" style=""width: 234px; height: 230px; margin-top: -50px;""><div style=""display: flex; justify-content: space-between; margin-top: 33px;""><img src=""images/choice_trial_3.png"" style=""width: 408px; height: 417px; margin-right: 608px;""></div></div>","null","delaylearn","learning","display_response","6601afb05afd671b790311ae","PZXlXzKp55OPcnYAknXL7DBdNLj2","","","","","","","","","","","","","","","","","chosen stimuli: images/choice_trial_3.png","","","",""
"html-keyboard-response","108","202438","0.0-46.0-2.0","","null","","null","delaylearn","learning","feedback_duration_window","6601afb05afd671b790311ae","PZXlXzKp55OPcnYAknXL7DBdNLj2","","","","","","","","","","","","","","","","","","7000","","",""
"html-keyboard-response","109","203940","0.0-46.0-3.0","","null","<div style='margin:auto;width: auto; font-size: 150%'><span style='font-weight: bold; font-size: 100px; color: green;'>+10 points!</span><br><br></div>","null","delaylearn","learning","feedback_image_window","6601afb05afd671b790311ae","PZXlXzKp55OPcnYAknXL7DBdNLj2","","","","","","","","","","","","","","","","","","","","",""
"html-keyboard-response","110","206271","0.0-47.0","","null","<div style=""font-size:100px;"">+</div>","null","delaylearn","learning","ITI","6601afb05afd671b790311ae","PZXlXzKp55OPcnYAknXL7DBdNLj2","","","","","","","","","","","","","","","","","","","2328","",""
"html-keyboard-response","111","207496","0.0-48.0-0.0","","1221.4000000000233","<div style=""display: flex; flex-direction: column; align-items: center; margin-top: -40px;""><img src=""images/pattern_6.png"" style=""width: 234px; height: 230px; margin-top: -50px;""><div style=""display: flex; justify-content: space-between; margin-top: 33px;""><img src=""images/choice_trial_5.png"" style=""width: 408px; height: 417px; margin-right: 200px;""><img src=""images/choice_trial_11.png"" style=""width: 408px; height: 417px;""></div></div>","j","delaylearn","learning","trial","6601afb05afd671b790311ae","PZXlXzKp55OPcnYAknXL7DBdNLj2","2","images/choice_trial_5.png","images/choice_trial_11.png","images/pattern_6.png","j","j","750","5","11","5","1","21","1","1","11","100","","","","",""
"html-keyboard-response","112","208499","0.0-48.0-1.0","","null","<div style=""display: flex; flex-direction: column; align-items: center; margin-top: -40px;""><img src=""images/pattern_6.png"" style=""width: 234px; height: 230px; margin-top: -50px;""><div style=""display: flex; justify-content: space-between; margin-top: 33px;""><img src=""images/choice_trial_11.png"" style=""width: 408px; height: 417px; margin-left:608px;""></div></div>","null","delaylearn","learning","display_response","6601afb05afd671b790311ae","PZXlXzKp55OPcnYAknXL7DBdNLj2","","","","","","","","","","","","","","","","","chosen stimuli: images/choice_trial_11.png","","","",""
"html-keyboard-response","113","209253","0.0-48.0-2.0","","null","","null","delaylearn","learning","feedback_duration_window","6601afb05afd671b790311ae","PZXlXzKp55OPcnYAknXL7DBdNLj2","","","","","","","","","","","","","","","","","","750","","",""
"html-keyboard-response","114","210759","0.0-48.0-3.0","","null","<div style='margin:auto;width: auto; font-size: 150%'><span style='font-weight: bold; font-size: 100px; color: green;'>+10 points!</span><br><br></div>","null","delaylearn","learning","feedback_image_window","6601afb05afd671b790311ae","PZXlXzKp55OPcnYAknXL7DBdNLj2","","","","","","","","","","","","","","","","","","","","",""
"html-keyboard-response","115","212828","0.0-49.0","","null","<div style=""font-size:100px;"">+</div>","null","delaylearn","learning","ITI","6601afb05afd671b790311ae","PZXlXzKp55OPcnYAknXL7DBdNLj2","","","","","","","","","","","","","","","","","","","2065","",""
"html-keyboard-response","116","214784","0.0-50.0-0.0","","1952.3000000000466","<div style=""display: flex; flex-direction: column; align-items: center; margin-top: -40px;""><img src=""images/pattern_4.png"" style=""width: 234px; height: 230px; margin-top: -50px;""><div style=""display: flex; justify-content: space-between; margin-top: 33px;""><img src=""images/choice_trial_4.png"" style=""width: 408px; height: 417px; margin-right: 200px;""><img src=""images/choice_trial_16.png"" style=""width: 408px; height: 417px;""></div></div>","j","delaylearn","learning","trial","6601afb05afd671b790311ae","PZXlXzKp55OPcnYAknXL7DBdNLj2","2","images/choice_trial_4.png","images/choice_trial_16.png","images/pattern_4.png","f","f","7000","4","16","3","0","22","0","0","16","100","","","","",""
"html-keyboard-response","117","215786","0.0-50.0-1.0","","null","<div style=""display: flex; flex-direction: column; align-items: center; margin-top: -40px;""><img src=""images/pattern_4.png"" style=""width: 234px; height: 230px; margin-top: -50px;""><div style=""display: flex; justify-content: space-between; margin-top: 33px;""><img src=""images/choice_trial_16.png"" style=""width: 408px; height: 417px; margin-left:608px;""></div></div>","null","delaylearn","learning","display_response","6601afb05afd671b790311ae","PZXlXzKp55OPcnYAknXL7DBdNLj2","","","","","","","","","","","","","","","","","chosen stimuli: images/choice_trial_16.png","","","",""
"html-keyboard-response","118","222790","0.0-50.0-2.0","","null","","null","delaylearn","learning","feedback_duration_window","6601afb05afd671b790311ae","PZXlXzKp55OPcnYAknXL7DBdNLj2","","","","","","","","","","","","","","","","","","7000","","",""
"html-keyboard-response","119","224296","0.0-50.0-3.0","","null","<div style='margin:auto;width: auto; font-size: 150%'><span style='font-weight: bold; font-size: 100px; color: red;'>0 points!</span><br><br></div>","null","delaylearn","learning","feedback_image_window","6601afb05afd671b790311ae","PZXlXzKp55OPcnYAknXL7DBdNLj2","","","","","","","","","","","","","","","","","","","","",""
"html-keyboard-response","120","224799","0.0-51.0-0.0","","null","","null","","","mood_trial_fixation","","","","","","","","","","","","","","","","","","","","","","",""
"lmdlab-html-vas-response","121","227934","0.0-51.0-1.0","","2128","How happy are you right now?","0.4074363425925926","delaylearn","learning","mood_trial","6601afb05afd671b790311ae","PZXlXzKp55OPcnYAknXL7DBdNLj2","","","","","","","","","","","","","","","","","","","","[""Very unhappy"",""Very happy""]",""
"html-keyboard-response","122","230312","0.0-52.0","","null","<div style=""font-size:100px;"">+</div>","null","delaylearn","learning","ITI","6601afb05afd671b790311ae","PZXlXzKp55OPcnYAknXL7DBdNLj2","","","","","","","","","","","","","","","","","","","2376","",""
"html-keyboard-response","123","232033","0.0-53.0-0.0","","1716","<div style=""display: flex; flex-direction: column; align-items: center; margin-top: -40px;""><img src=""images/pattern_7.png"" style=""width: 234px; height: 230px; margin-top: -50px;""><div style=""display: flex; justify-content: space-between; margin-top: 33px;""><img src=""images/choice_trial_15.png"" style=""width: 408px; height: 417px; margin-right: 200px;""><img src=""images/choice_trial_8.png"" style=""width: 408px; height: 417px;""></div></div>","f","delaylearn","learning","trial","6601afb05afd671b790311ae","PZXlXzKp55OPcnYAknXL7DBdNLj2","2","images/choice_trial_15.png","images/choice_trial_8.png","images/pattern_7.png","j","j","750","15","8","6","1","23","0","0","15","100","","","","",""
"html-keyboard-response","124","233037","0.0-53.0-1.0","","null","<div style=""display: flex; flex-direction: column; align-items: center; margin-top: -40px;""><img src=""images/pattern_7.png"" style=""width: 234px; height: 230px; margin-top: -50px;""><div style=""display: flex; justify-content: space-between; margin-top: 33px;""><img src=""images/choice_trial_15.png"" style=""width: 408px; height: 417px; margin-right: 608px;""></div></div>","null","delaylearn","learning","display_response","6601afb05afd671b790311ae","PZXlXzKp55OPcnYAknXL7DBdNLj2","","","","","","","","","","","","","","","","","chosen stimuli: images/choice_trial_15.png","","","",""
"html-keyboard-response","125","233789","0.0-53.0-2.0","","null","","null","delaylearn","learning","feedback_duration_window","6601afb05afd671b790311ae","PZXlXzKp55OPcnYAknXL7DBdNLj2","","","","","","","","","","","","","","","","","","750","","",""
"html-keyboard-response","126","235296","0.0-53.0-3.0","","null","<div style='margin:auto;width: auto; font-size: 150%'><span style='font-weight: bold; font-size: 100px; color: red;'>0 points!</span><br><br></div>","null","delaylearn","learning","feedback_image_window","6601afb05afd671b790311ae","PZXlXzKp55OPcnYAknXL7DBdNLj2","","","","","","","","","","","","","","","","","","","","",""
"html-keyboard-response","127","237504","0.0-54.0","","null","<div style=""font-size:100px;"">+</div>","null","delaylearn","learning","ITI","6601afb05afd671b790311ae","PZXlXzKp55OPcnYAknXL7DBdNLj2","","","","","","","","","","","","","","","","","","","2203","",""
"html-keyboard-response","128","238521","0.0-55.0-0.0","","1012.3000000000466","<div style=""display: flex; flex-direction: column; align-items: center; margin-top: -40px;""><img src=""images/pattern_1.png"" style=""width: 234px; height: 230px; margin-top: -50px;""><div style=""display: flex; justify-content: space-between; margin-top: 33px;""><img src=""images/choice_trial_10.png"" style=""width: 408px; height: 417px; margin-right: 200px;""><img src=""images/choice_trial_3.png"" style=""width: 408px; height: 417px;""></div></div>","f","delaylearn","learning","trial","6601afb05afd671b790311ae","PZXlXzKp55OPcnYAknXL7DBdNLj2","2","images/choice_trial_10.png","images/choice_trial_3.png","images/pattern_1.png","f","j","7000","10","3","1","1","24","0","1","10","110","","","","",""
"html-keyboard-response","129","239525","0.0-55.0-1.0","","null","<div style=""display: flex; flex-direction: column; align-items: center; margin-top: -40px;""><img src=""images/pattern_1.png"" style=""width: 234px; height: 230px; margin-top: -50px;""><div style=""display: flex; justify-content: space-between; margin-top: 33px;""><img src=""images/choice_trial_10.png"" style=""width: 408px; height: 417px; margin-right: 608px;""></div></div>","null","delaylearn","learning","display_response","6601afb05afd671b790311ae","PZXlXzKp55OPcnYAknXL7DBdNLj2","","","","","","","","","","","","","","","","","chosen stimuli: images/choice_trial_10.png","","","",""
"html-keyboard-response","130","246529","0.0-55.0-2.0","","null","","null","delaylearn","learning","feedback_duration_window","6601afb05afd671b790311ae","PZXlXzKp55OPcnYAknXL7DBdNLj2","","","","","","","","","","","","","","","","","","7000","","",""
"html-keyboard-response","131","248034","0.0-55.0-3.0","","null","<div style='margin:auto;width: auto; font-size: 150%'><span style='font-weight: bold; font-size: 100px; color: green;'>+10 points!</span><br><br></div>","null","delaylearn","learning","feedback_image_window","6601afb05afd671b790311ae","PZXlXzKp55OPcnYAknXL7DBdNLj2","","","","","","","","","","","","","","","","","","","","",""
"html-keyboard-response","132","250039","0.0-56.0","","null","<div style=""font-size:100px;"">+</div>","null","delaylearn","learning","ITI","6601afb05afd671b790311ae","PZXlXzKp55OPcnYAknXL7DBdNLj2","","","","","","","","","","","","","","","","","","","2002","",""
"html-keyboard-response","133","252129","0.0-57.0-0.0","","2087.0999999998603","<div style=""display: flex; flex-direction: column; align-items: center; margin-top: -40px;""><img src=""images/pattern_5.png"" style=""width: 234px; height: 230px; margin-top: -50px;""><div style=""display: flex; justify-content: space-between; margin-top: 33px;""><img src=""images/choice_trial_9.png"" style=""width: 408px; height: 417px; margin-right: 200px;""><img src=""images/choice_trial_2.png"" style=""width: 408px; height: 417px;""></div></div>","j","delaylearn","learning","trial","6601afb05afd671b790311ae","PZXlXzKp55OPcnYAknXL7DBdNLj2","2","images/choice_trial_9.png","images/choice_trial_2.png","images/pattern_5.png","j","j","750","9","2","4","1","25","1","1","2","120","","","","",""
"html-keyboard-response","134","253135","0.0-57.0-1.0","","null","<div style=""display: flex; flex-direction: column; align-items: center; margin-top: -40px;""><img src=""images/pattern_5.png"" style=""width: 234px; height: 230px; margin-top: -50px;""><div style=""display: flex; justify-content: space-between; margin-top: 33px;""><img src=""images/choice_trial_2.png"" style=""width: 408px; height: 417px; margin-left:608px;""></div></div>","null","delaylearn","learning","display_response","6601afb05afd671b790311ae","PZXlXzKp55OPcnYAknXL7DBdNLj2","","","","","","","","","","","","","","","","","chosen stimuli: images/choice_trial_2.png","","","",""
"html-keyboard-response","135","253887","0.0-57.0-2.0","","null","","null","delaylearn","learning","feedback_duration_window","6601afb05afd671b790311ae","PZXlXzKp55OPcnYAknXL7DBdNLj2","","","","","","","","","","","","","","","","","","750","","",""
"html-keyboard-response","136","255390","0.0-57.0-3.0","","null","<div style='margin:auto;width: auto; font-size: 150%'><span style='font-weight: bold; font-size: 100px; color: green;'>+10 points!</span><br><br></div>","null","delaylearn","learning","feedback_image_window","6601afb05afd671b790311ae","PZXlXzKp55OPcnYAknXL7DBdNLj2","","","","","","","","","","","","","","","","","","","","",""
"html-keyboard-response","137","257847","0.0-58.0","","null","<div style=""font-size:100px;"">+</div>","null","delaylearn","learning","ITI","6601afb05afd671b790311ae","PZXlXzKp55OPcnYAknXL7DBdNLj2","","","","","","","","","","","","","","","","","","","2455","",""
"html-keyboard-response","138","260034","0.0-59.0-0.0","","2182.399999999907","<div style=""display: flex; flex-direction: column; align-items: center; margin-top: -40px;""><img src=""images/pattern_3.png"" style=""width: 234px; height: 230px; margin-top: -50px;""><div style=""display: flex; justify-content: space-between; margin-top: 33px;""><img src=""images/choice_trial_14.png"" style=""width: 408px; height: 417px; margin-right: 200px;""><img src=""images/choice_trial_12.png"" style=""width: 408px; height: 417px;""></div></div>","j","delaylearn","learning","trial","6601afb05afd671b790311ae","PZXlXzKp55OPcnYAknXL7DBdNLj2","2","images/choice_trial_14.png","images/choice_trial_12.png","images/pattern_3.png","j","j","7000","14","12","2","1","26","1","1","12","130","","","","",""
"html-keyboard-response","139","261040","0.0-59.0-1.0","","null","<div style=""display: flex; flex-direction: column; align-items: center; margin-top: -40px;""><img src=""images/pattern_3.png"" style=""width: 234px; height: 230px; margin-top: -50px;""><div style=""display: flex; justify-content: space-between; margin-top: 33px;""><img src=""images/choice_trial_12.png"" style=""width: 408px; height: 417px; margin-left:608px;""></div></div>","null","delaylearn","learning","display_response","6601afb05afd671b790311ae","PZXlXzKp55OPcnYAknXL7DBdNLj2","","","","","","","","","","","","","","","","","chosen stimuli: images/choice_trial_12.png","","","",""
"html-keyboard-response","140","268045","0.0-59.0-2.0","","null","","null","delaylearn","learning","feedback_duration_window","6601afb05afd671b790311ae","PZXlXzKp55OPcnYAknXL7DBdNLj2","","","","","","","","","","","","","","","","","","7000","","",""
"html-keyboard-response","141","269547","0.0-59.0-3.0","","null","<div style='margin:auto;width: auto; font-size: 150%'><span style='font-weight: bold; font-size: 100px; color: green;'>+10 points!</span><br><br></div>","null","delaylearn","learning","feedback_image_window","6601afb05afd671b790311ae","PZXlXzKp55OPcnYAknXL7DBdNLj2","","","","","","","","","","","","","","","","","","","","",""
"lmdlab-html-vas-response","142","276537","0.0-60.0-0.0","","5479","*How <b><u>confident</u></b> are you feeling about your answers at this moment?*","0.3148148148148148","rewlearn","rate_confidence","","6601afb05afd671b790311ae","PZXlXzKp55OPcnYAknXL7DBdNLj2","","","","","","","","","","","","","","","","","","","","[""No confidence"",""Complete confidence""]",""
"lmdlab-rest-trial-limit","143","284192","0.0-60.0-1.0","","6147.800000000047","<div style=""font-size:40px;""><b>Please take a break!</b><br><br><br><br><p>Great work: you earned 130 points.<br><br><br><p>You have completed part(s) 1 of 5.<br><br><br><br>When you are ready to continue<br><br><br>please click the button.</p><br><br>","0","delaylearn","learning","break","6601afb05afd671b790311ae","PZXlXzKp55OPcnYAknXL7DBdNLj2","","","","","","","","","","","","","","","","","","","","","0"
"html-keyboard-response","144","287196","0.0-60.0-2.0","","null","<div style=""font-size:100px;"">+</div>","null","delaylearn","learning","pre_fixation","6601afb05afd671b790311ae","","","","","","","","","","","","","","","","","","","","","",""
"lmdlab-html-vas-response","145","290404","0.0-60.0-3.0-0.0","","2198","How happy are you right now?","0.45558449074074076","delaylearn","learning","mood_baseline","6601afb05afd671b790311ae","PZXlXzKp55OPcnYAknXL7DBdNLj2","","","","","","","","","","","","","","","","","","","","[""Very unhappy"",""Very happy""]",""
"html-keyboard-response","146","291909","0.0-60.0-3.0-1.0","","null","","null","","","mood_baseline_fixation","","","","","","","","","","","","","","","","","","","","","","",""
"html-keyboard-response","147","293785","0.0-61.0","","null","<div style=""font-size:100px;"">+</div>","null","delaylearn","learning","ITI","6601afb05afd671b790311ae","PZXlXzKp55OPcnYAknXL7DBdNLj2","","","","","","","","","","","","","","","","","","","1871","",""
"html-keyboard-response","148","295283","0.0-62.0-0.0","","1495","<div style=""display: flex; flex-direction: column; align-items: center; margin-top: -40px;""><img src=""images/pattern_7.png"" style=""width: 234px; height: 230px; margin-top: -50px;""><div style=""display: flex; justify-content: space-between; margin-top: 33px;""><img src=""images/choice_trial_15.png"" style=""width: 408px; height: 417px; margin-right: 200px;""><img src=""images/choice_trial_8.png"" style=""width: 408px; height: 417px;""></div></div>","f","delaylearn","learning","trial","6601afb05afd671b790311ae","PZXlXzKp55OPcnYAknXL7DBdNLj2","2","images/choice_trial_15.png","images/choice_trial_8.png","images/pattern_7.png","j","j","750","15","8","6","1","27","0","0","15","130","","","","",""
"html-keyboard-response","149","296287","0.0-62.0-1.0","","null","<div style=""display: flex; flex-direction: column; align-items: center; margin-top: -40px;""><img src=""images/pattern_7.png"" style=""width: 234px; height: 230px; margin-top: -50px;""><div style=""display: flex; justify-content: space-between; margin-top: 33px;""><img src=""images/choice_trial_15.png"" style=""width: 408px; height: 417px; margin-right: 608px;""></div></div>","null","delaylearn","learning","display_response","6601afb05afd671b790311ae","PZXlXzKp55OPcnYAknXL7DBdNLj2","","","","","","","","","","","","","","","","","chosen stimuli: images/choice_trial_15.png","","","",""
"html-keyboard-response","150","297039","0.0-62.0-2.0","","null","","null","delaylearn","learning","feedback_duration_window","6601afb05afd671b790311ae","PZXlXzKp55OPcnYAknXL7DBdNLj2","","","","","","","","","","","","","","","","","","750","","",""
"html-keyboard-response","151","298541","0.0-62.0-3.0","","null","<div style='margin:auto;width: auto; font-size: 150%'><span style='font-weight: bold; font-size: 100px; color: red;'>0 points!</span><br><br></div>","null","delaylearn","learning","feedback_image_window","6601afb05afd671b790311ae","PZXlXzKp55OPcnYAknXL7DBdNLj2","","","","","","","","","","","","","","","","","","","","",""
"html-keyboard-response","152","299045","0.0-63.0-0.0","","null","","null","","","mood_trial_fixation","","","","","","","","","","","","","","","","","","","","","","",""
"lmdlab-html-vas-response","153","303143","0.0-63.0-1.0","","3092","How happy are you right now?","0.24447337962962962","delaylearn","learning","mood_trial","6601afb05afd671b790311ae","PZXlXzKp55OPcnYAknXL7DBdNLj2","","","","","","","","","","","","","","","","","","","","[""Very unhappy"",""Very happy""]",""
"html-keyboard-response","154","305224","0.0-64.0","","null","<div style=""font-size:100px;"">+</div>","null","delaylearn","learning","ITI","6601afb05afd671b790311ae","PZXlXzKp55OPcnYAknXL7DBdNLj2","","","","","","","","","","","","","","","","","","","2079","",""
"html-keyboard-response","155","307090","0.0-65.0-0.0","","1863","<div style=""display: flex; flex-direction: column; align-items: center; margin-top: -40px;""><img src=""images/pattern_1.png"" style=""width: 234px; height: 230px; margin-top: -50px;""><div style=""display: flex; justify-content: space-between; margin-top: 33px;""><img src=""images/choice_trial_3.png"" style=""width: 408px; height: 417px; margin-right: 200px;""><img src=""images/choice_trial_10.png"" style=""width: 408px; height: 417px;""></div></div>","j","delaylearn","learning","trial","6601afb05afd671b790311ae","PZXlXzKp55OPcnYAknXL7DBdNLj2","2","images/choice_trial_3.png","images/choice_trial_10.png","images/pattern_1.png","f","f","7000","3","10","1","0","28","0","0","10","130","","","","",""
"html-keyboard-response","156","308093","0.0-65.0-1.0","","null","<div style=""display: flex; flex-direction: column; align-items: center; margin-top: -40px;""><img src=""images/pattern_1.png"" style=""width: 234px; height: 230px; margin-top: -50px;""><div style=""display: flex; justify-content: space-between; margin-top: 33px;""><img src=""images/choice_trial_10.png"" style=""width: 408px; height: 417px; margin-left:608px;""></div></div>","null","delaylearn","learning","display_response","6601afb05afd671b790311ae","PZXlXzKp55OPcnYAknXL7DBdNLj2","","","","","","","","","","","","","","","","","chosen stimuli: images/choice_trial_10.png","","","",""
"html-keyboard-response","157","315095","0.0-65.0-2.0","","null","","null","delaylearn","learning","feedback_duration_window","6601afb05afd671b790311ae","PZXlXzKp55OPcnYAknXL7DBdNLj2","","","","","","","","","","","","","","","","","","7000","","",""
"html-keyboard-response","158","316599","0.0-65.0-3.0","","null","<div style='margin:auto;width: auto; font-size: 150%'><span style='font-weight: bold; font-size: 100px; color: red;'>0 points!</span><br><br></div>","null","delaylearn","learning","feedback_image_window","6601afb05afd671b790311ae","PZXlXzKp55OPcnYAknXL7DBdNLj2","","","","","","","","","","","","","","","","","","","","",""
"html-keyboard-response","159","318945","0.0-66.0","","null","<div style=""font-size:100px;"">+</div>","null","delaylearn","learning","ITI","6601afb05afd671b790311ae","PZXlXzKp55OPcnYAknXL7DBdNLj2","","","","","","","","","","","","","","","","","","","2344","",""
"html-keyboard-response","160","321043","0.0-67.0-0.0","","2094.1999999999534","<div style=""display: flex; flex-direction: column; align-items: center; margin-top: -40px;""><img src=""images/pattern_5.png"" style=""width: 234px; height: 230px; margin-top: -50px;""><div style=""display: flex; justify-content: space-between; margin-top: 33px;""><img src=""images/choice_trial_2.png"" style=""width: 408px; height: 417px; margin-right: 200px;""><img src=""images/choice_trial_9.png"" style=""width: 408px; height: 417px;""></div></div>","f","delaylearn","learning","trial","6601afb05afd671b790311ae","PZXlXzKp55OPcnYAknXL7DBdNLj2","2","images/choice_trial_2.png","images/choice_trial_9.png","images/pattern_5.png","f","f","750","2","9","4","0","29","1","1","2","140","","","","",""
"html-keyboard-response","161","322047","0.0-67.0-1.0","","null","<div style=""display: flex; flex-direction: column; align-items: center; margin-top: -40px;""><img src=""images/pattern_5.png"" style=""width: 234px; height: 230px; margin-top: -50px;""><div style=""display: flex; justify-content: space-between; margin-top: 33px;""><img src=""images/choice_trial_2.png"" style=""width: 408px; height: 417px; margin-right: 608px;""></div></div>","null","delaylearn","learning","display_response","6601afb05afd671b790311ae","PZXlXzKp55OPcnYAknXL7DBdNLj2","","","","","","","","","","","","","","","","","chosen stimuli: images/choice_trial_2.png","","","",""
"html-keyboard-response","162","322800","0.0-67.0-2.0","","null","","null","delaylearn","learning","feedback_duration_window","6601afb05afd671b790311ae","PZXlXzKp55OPcnYAknXL7DBdNLj2","","","","","","","","","","","","","","","","","","750","","",""
"html-keyboard-response","163","324303","0.0-67.0-3.0","","null","<div style='margin:auto;width: auto; font-size: 150%'><span style='font-weight: bold; font-size: 100px; color: green;'>+10 points!</span><br><br></div>","null","delaylearn","learning","feedback_image_window","6601afb05afd671b790311ae","PZXlXzKp55OPcnYAknXL7DBdNLj2","","","","","","","","","","","","","","","","","","","","",""
"html-keyboard-response","164","326129","0.0-68.0","","null","<div style=""font-size:100px;"">+</div>","null","delaylearn","learning","ITI","6601afb05afd671b790311ae","PZXlXzKp55OPcnYAknXL7DBdNLj2","","","","","","","","","","","","","","","","","","","1823","",""
"html-keyboard-response","165","329135","0.0-69.0-0.0","","null","<div style=""display: flex; flex-direction: column; align-items: center; margin-top: -40px;""><img src=""images/pattern_6.png"" style=""width: 234px; height: 230px; margin-top: -50px;""><div style=""display: flex; justify-content: space-between; margin-top: 33px;""><img src=""images/choice_trial_5.png"" style=""width: 408px; height: 417px; margin-right: 200px;""><img src=""images/choice_trial_11.png"" style=""width: 408px; height: 417px;""></div></div>","null","delaylearn","learning","trial","6601afb05afd671b790311ae","PZXlXzKp55OPcnYAknXL7DBdNLj2","2","images/choice_trial_5.png","images/choice_trial_11.png","images/pattern_6.png","j","j","750","5","11","5","1","30","0","0","0","140","","","","",""
"html-keyboard-response","166","330139","0.0-69.0-1.0","","null","<div style='font-weight: bold; font-size: 75px; color: red;'>Missed Trial <br><br><br><br> Please respond faster</div>","null","delaylearn","learning","display_response","6601afb05afd671b790311ae","PZXlXzKp55OPcnYAknXL7DBdNLj2","","","","","","","","","","","","","","","","","Missed trial","","","",""
"html-keyboard-response","167","330145","0.0-69.0-2.0","","null","","null","delaylearn","learning","feedback_duration_window","6601afb05afd671b790311ae","PZXlXzKp55OPcnYAknXL7DBdNLj2","","","","","","","","","","","","","","","","","","0","","",""
"html-keyboard-response","168","330151","0.0-69.0-3.0","","null","","null","delaylearn","learning","feedback_image_window","6601afb05afd671b790311ae","PZXlXzKp55OPcnYAknXL7DBdNLj2","","","","","","","","","","","","","","","","","","","","",""
"html-keyboard-response","169","330654","0.0-70.0-0.0","","null","","null","","","mood_trial_fixation","","","","","","","","","","","","","","","","","","","","","","",""
"lmdlab-html-vas-response","170","334092","0.0-70.0-1.0","","2429","How happy are you right now?","0.20743634259259258","delaylearn","learning","mood_trial","6601afb05afd671b790311ae","PZXlXzKp55OPcnYAknXL7DBdNLj2","","","","","","","","","","","","","","","","","","","","[""Very unhappy"",""Very happy""]",""
"html-keyboard-response","171","336379","0.0-71.0","","null","<div style=""font-size:100px;"">+</div>","null","delaylearn","learning","ITI","6601afb05afd671b790311ae","PZXlXzKp55OPcnYAknXL7DBdNLj2","","","","","","","","","","","","","","","","","","","2281","",""
"html-keyboard-response","172","338235","0.0-72.0-0.0","","1851.3000000000466","<div style=""display: flex; flex-direction: column; align-items: center; margin-top: -40px;""><img src=""images/pattern_4.png"" style=""width: 234px; height: 230px; margin-top: -50px;""><div style=""display: flex; justify-content: space-between; margin-top: 33px;""><img src=""images/choice_trial_16.png"" style=""width: 408px; height: 417px; margin-right: 200px;""><img src=""images/choice_trial_4.png"" style=""width: 408px; height: 417px;""></div></div>","j","delaylearn","learning","trial","6601afb05afd671b790311ae","PZXlXzKp55OPcnYAknXL7DBdNLj2","2","images/choice_trial_16.png","images/choice_trial_4.png","images/pattern_4.png","j","j","7000","16","4","3","1","31","1","1","4","150","","","","",""
"html-keyboard-response","173","339240","0.0-72.0-1.0","","null","<div style=""display: flex; flex-direction: column; align-items: center; margin-top: -40px;""><img src=""images/pattern_4.png"" style=""width: 234px; height: 230px; margin-top: -50px;""><div style=""display: flex; justify-content: space-between; margin-top: 33px;""><img src=""images/choice_trial_4.png"" style=""width: 408px; height: 417px; margin-left:608px;""></div></div>","null","delaylearn","learning","display_response","6601afb05afd671b790311ae","PZXlXzKp55OPcnYAknXL7DBdNLj2","","","","","","","","","","","","","","","","","chosen stimuli: images/choice_trial_4.png","","","",""
"html-keyboard-response","174","346246","0.0-72.0-2.0","","null","","null","delaylearn","learning","feedback_duration_window","6601afb05afd671b790311ae","PZXlXzKp55OPcnYAknXL7DBdNLj2","","","","","","","","","","","","","","","","","","7000","","",""
"html-keyboard-response","175","347750","0.0-72.0-3.0","","null","<div style='margin:auto;width: auto; font-size: 150%'><span style='font-weight: bold; font-size: 100px; color: green;'>+10 points!</span><br><br></div>","null","delaylearn","learning","feedback_image_window","6601afb05afd671b790311ae","PZXlXzKp55OPcnYAknXL7DBdNLj2","","","","","","","","","","","","","","","","","","","","",""
"html-keyboard-response","176","349640","0.0-73.0","","null","<div style=""font-size:100px;"">+</div>","null","delaylearn","learning","ITI","6601afb05afd671b790311ae","PZXlXzKp55OPcnYAknXL7DBdNLj2","","","","","","","","","","","","","","","","","","","1886","",""
"html-keyboard-response","177","351831","0.0-74.0-0.0","","2187.1999999999534","<div style=""display: flex; flex-direction: column; align-items: center; margin-top: -40px;""><img src=""images/pattern_3.png"" style=""width: 234px; height: 230px; margin-top: -50px;""><div style=""display: flex; justify-content: space-between; margin-top: 33px;""><img src=""images/choice_trial_14.png"" style=""width: 408px; height: 417px; margin-right: 200px;""><img src=""images/choice_trial_12.png"" style=""width: 408px; height: 417px;""></div></div>","j","delaylearn","learning","trial","6601afb05afd671b790311ae","PZXlXzKp55OPcnYAknXL7DBdNLj2","2","images/choice_trial_14.png","images/choice_trial_12.png","images/pattern_3.png","j","j","7000","14","12","2","1","32","1","1","12","160","","","","",""
"html-keyboard-response","178","352835","0.0-74.0-1.0","","null","<div style=""display: flex; flex-direction: column; align-items: center; margin-top: -40px;""><img src=""images/pattern_3.png"" style=""width: 234px; height: 230px; margin-top: -50px;""><div style=""display: flex; justify-content: space-between; margin-top: 33px;""><img src=""images/choice_trial_12.png"" style=""width: 408px; height: 417px; margin-left:608px;""></div></div>","null","delaylearn","learning","display_response","6601afb05afd671b790311ae","PZXlXzKp55OPcnYAknXL7DBdNLj2","","","","","","","","","","","","","","","","","chosen stimuli: images/choice_trial_12.png","","","",""
"html-keyboard-response","179","359837","0.0-74.0-2.0","","null","","null","delaylearn","learning","feedback_duration_window","6601afb05afd671b790311ae","PZXlXzKp55OPcnYAknXL7DBdNLj2","","","","","","","","","","","","","","","","","","7000","","",""
"html-keyboard-response","180","361341","0.0-74.0-3.0","","null","<div style='margin:auto;width: auto; font-size: 150%'><span style='font-weight: bold; font-size: 100px; color: green;'>+10 points!</span><br><br></div>","null","delaylearn","learning","feedback_image_window","6601afb05afd671b790311ae","PZXlXzKp55OPcnYAknXL7DBdNLj2","","","","","","","","","","","","","","","","","","","","",""
"html-keyboard-response","181","363146","0.0-75.0","","null","<div style=""font-size:100px;"">+</div>","null","delaylearn","learning","ITI","6601afb05afd671b790311ae","PZXlXzKp55OPcnYAknXL7DBdNLj2","","","","","","","","","","","","","","","","","","","1800","",""
"html-keyboard-response","182","364543","0.0-76.0-0.0","","1393.8999999999069","<div style=""display: flex; flex-direction: column; align-items: center; margin-top: -40px;""><img src=""images/pattern_5.png"" style=""width: 234px; height: 230px; margin-top: -50px;""><div style=""display: flex; justify-content: space-between; margin-top: 33px;""><img src=""images/choice_trial_2.png"" style=""width: 408px; height: 417px; margin-right: 200px;""><img src=""images/choice_trial_9.png"" style=""width: 408px; height: 417px;""></div></div>","f","delaylearn","learning","trial","6601afb05afd671b790311ae","PZXlXzKp55OPcnYAknXL7DBdNLj2","2","images/choice_trial_2.png","images/choice_trial_9.png","images/pattern_5.png","j","f","750","2","9","4","0","33","1","0","2","160","","","","",""
"html-keyboard-response","183","365545","0.0-76.0-1.0","","null","<div style=""display: flex; flex-direction: column; align-items: center; margin-top: -40px;""><img src=""images/pattern_5.png"" style=""width: 234px; height: 230px; margin-top: -50px;""><div style=""display: flex; justify-content: space-between; margin-top: 33px;""><img src=""images/choice_trial_2.png"" style=""width: 408px; height: 417px; margin-right: 608px;""></div></div>","null","delaylearn","learning","display_response","6601afb05afd671b790311ae","PZXlXzKp55OPcnYAknXL7DBdNLj2","","","","","","","","","","","","","","","","","chosen stimuli: images/choice_trial_2.png","","","",""
"html-keyboard-response","184","366300","0.0-76.0-2.0","","null","","null","delaylearn","learning","feedback_duration_window","6601afb05afd671b790311ae","PZXlXzKp55OPcnYAknXL7DBdNLj2","","","","","","","","","","","","","","","","","","750","","",""
"html-keyboard-response","185","367803","0.0-76.0-3.0","","null","<div style='margin:auto;width: auto; font-size: 150%'><span style='font-weight: bold; font-size: 100px; color: red;'>0 points!</span><br><br></div>","null","delaylearn","learning","feedback_image_window","6601afb05afd671b790311ae","PZXlXzKp55OPcnYAknXL7DBdNLj2","","","","","","","","","","","","","","","","","","","","",""
"html-keyboard-response","186","369593","0.0-77.0","","null","<div style=""font-size:100px;"">+</div>","null","delaylearn","learning","ITI","6601afb05afd671b790311ae","PZXlXzKp55OPcnYAknXL7DBdNLj2","","","","","","","","","","","","","","","","","","","1784","",""
"html-keyboard-response","187","371767","0.0-78.0-0.0","","2169.8000000000466","<div style=""display: flex; flex-direction: column; align-items: center; margin-top: -40px;""><img src=""images/pattern_1.png"" style=""width: 234px; height: 230px; margin-top: -50px;""><div style=""display: flex; justify-content: space-between; margin-top: 33px;""><img src=""images/choice_trial_3.png"" style=""width: 408px; height: 417px; margin-right: 200px;""><img src=""images/choice_trial_10.png"" style=""width: 408px; height: 417px;""></div></div>","j","delaylearn","learning","trial","6601afb05afd671b790311ae","PZXlXzKp55OPcnYAknXL7DBdNLj2","2","images/choice_trial_3.png","images/choice_trial_10.png","images/pattern_1.png","f","f","7000","3","10","1","0","34","0","0","10","160","","","","",""
"html-keyboard-response","188","372770","0.0-78.0-1.0","","null","<div style=""display: flex; flex-direction: column; align-items: center; margin-top: -40px;""><img src=""images/pattern_1.png"" style=""width: 234px; height: 230px; margin-top: -50px;""><div style=""display: flex; justify-content: space-between; margin-top: 33px;""><img src=""images/choice_trial_10.png"" style=""width: 408px; height: 417px; margin-left:608px;""></div></div>","null","delaylearn","learning","display_response","6601afb05afd671b790311ae","PZXlXzKp55OPcnYAknXL7DBdNLj2","","","","","","","","","","","","","","","","","chosen stimuli: images/choice_trial_10.png","","","",""
"html-keyboard-response","189","379771","0.0-78.0-2.0","","null","","null","delaylearn","learning","feedback_duration_window","6601afb05afd671b790311ae","PZXlXzKp55OPcnYAknXL7DBdNLj2","","","","","","","","","","","","","","","","","","7000","","",""
"html-keyboard-response","190","381274","0.0-78.0-3.0","","null","<div style='margin:auto;width: auto; font-size: 150%'><span style='font-weight: bold; font-size: 100px; color: red;'>0 points!</span><br><br></div>","null","delaylearn","learning","feedback_image_window","6601afb05afd671b790311ae","PZXlXzKp55OPcnYAknXL7DBdNLj2","","","","","","","","","","","","","","","","","","","","",""
"html-keyboard-response","191","381779","0.0-79.0-0.0","","null","","null","","","mood_trial_fixation","","","","","","","","","","","","","","","","","","","","","","",""
"lmdlab-html-vas-response","192","390671","0.0-79.0-1.0","","7883","How happy are you right now?","0.3833622685185185","delaylearn","learning","mood_trial","6601afb05afd671b790311ae","PZXlXzKp55OPcnYAknXL7DBdNLj2","","","","","","","","","","","","","","","","","","","","[""Very unhappy"",""Very happy""]",""
"html-keyboard-response","193","392878","0.0-80.0","","null","<div style=""font-size:100px;"">+</div>","null","delaylearn","learning","ITI","6601afb05afd671b790311ae","PZXlXzKp55OPcnYAknXL7DBdNLj2","","","","","","","","","","","","","","","","","","","2205","",""
"html-keyboard-response","194","394921","0.0-81.0-0.0","","2038.3000000000466","<div style=""display: flex; flex-direction: column; align-items: center; margin-top: -40px;""><img src=""images/pattern_6.png"" style=""width: 234px; height: 230px; margin-top: -50px;""><div style=""display: flex; justify-content: space-between; margin-top: 33px;""><img src=""images/choice_trial_11.png"" style=""width: 408px; height: 417px; margin-right: 200px;""><img src=""images/choice_trial_5.png"" style=""width: 408px; height: 417px;""></div></div>","f","delaylearn","learning","trial","6601afb05afd671b790311ae","PZXlXzKp55OPcnYAknXL7DBdNLj2","2","images/choice_trial_11.png","images/choice_trial_5.png","images/pattern_6.png","j","f","750","11","5","5","0","35","1","0","11","160","","","","",""
"html-keyboard-response","195","395923","0.0-81.0-1.0","","null","<div style=""display: flex; flex-direction: column; align-items: center; margin-top: -40px;""><img src=""images/pattern_6.png"" style=""width: 234px; height: 230px; margin-top: -50px;""><div style=""display: flex; justify-content: space-between; margin-top: 33px;""><img src=""images/choice_trial_11.png"" style=""width: 408px; height: 417px; margin-right: 608px;""></div></div>","null","delaylearn","learning","display_response","6601afb05afd671b790311ae","PZXlXzKp55OPcnYAknXL7DBdNLj2","","","","","","","","","","","","","","","","","chosen stimuli: images/choice_trial_11.png","","","",""
"html-keyboard-response","196","396679","0.0-81.0-2.0","","null","","null","delaylearn","learning","feedback_duration_window","6601afb05afd671b790311ae","PZXlXzKp55OPcnYAknXL7DBdNLj2","","","","","","","","","","","","","","","","","","750","","",""
"html-keyboard-response","197","398185","0.0-81.0-3.0","","null","<div style='margin:auto;width: auto; font-size: 150%'><span style='font-weight: bold; font-size: 100px; color: red;'>0 points!</span><br><br></div>","null","delaylearn","learning","feedback_image_window","6601afb05afd671b790311ae","PZXlXzKp55OPcnYAknXL7DBdNLj2","","","","","","","","","","","","","","","","","","","","",""
"html-keyboard-response","198","399796","0.0-82.0","","null","<div style=""font-size:100px;"">+</div>","null","delaylearn","learning","ITI","6601afb05afd671b790311ae","PZXlXzKp55OPcnYAknXL7DBdNLj2","","","","","","","","","","","","","","","","","","","1605","",""
"html-keyboard-response","199","400964","0.0-83.0-0.0","","1164.7000000001863","<div style=""display: flex; flex-direction: column; align-items: center; margin-top: -40px;""><img src=""images/pattern_3.png"" style=""width: 234px; height: 230px; margin-top: -50px;""><div style=""display: flex; justify-content: space-between; margin-top: 33px;""><img src=""images/choice_trial_14.png"" style=""width: 408px; height: 417px; margin-right: 200px;""><img src=""images/choice_trial_12.png"" style=""width: 408px; height: 417px;""></div></div>","j","delaylearn","learning","trial","6601afb05afd671b790311ae","PZXlXzKp55OPcnYAknXL7DBdNLj2","2","images/choice_trial_14.png","images/choice_trial_12.png","images/pattern_3.png","j","j","7000","14","12","2","1","36","1","1","12","170","","","","",""
"html-keyboard-response","200","401971","0.0-83.0-1.0","","null","<div style=""display: flex; flex-direction: column; align-items: center; margin-top: -40px;""><img src=""images/pattern_3.png"" style=""width: 234px; height: 230px; margin-top: -50px;""><div style=""display: flex; justify-content: space-between; margin-top: 33px;""><img src=""images/choice_trial_12.png"" style=""width: 408px; height: 417px; margin-left:608px;""></div></div>","null","delaylearn","learning","display_response","6601afb05afd671b790311ae","PZXlXzKp55OPcnYAknXL7DBdNLj2","","","","","","","","","","","","","","","","","chosen stimuli: images/choice_trial_12.png","","","",""
"html-keyboard-response","201","408973","0.0-83.0-2.0","","null","","null","delaylearn","learning","feedback_duration_window","6601afb05afd671b790311ae","PZXlXzKp55OPcnYAknXL7DBdNLj2","","","","","","","","","","","","","","","","","","7000","","",""
"html-keyboard-response","202","410479","0.0-83.0-3.0","","null","<div style='margin:auto;width: auto; font-size: 150%'><span style='font-weight: bold; font-size: 100px; color: green;'>+10 points!</span><br><br></div>","null","delaylearn","learning","feedback_image_window","6601afb05afd671b790311ae","PZXlXzKp55OPcnYAknXL7DBdNLj2","","","","","","","","","","","","","","","","","","","","",""
"html-keyboard-response","203","412439","0.0-84.0","","null","<div style=""font-size:100px;"">+</div>","null","delaylearn","learning","ITI","6601afb05afd671b790311ae","PZXlXzKp55OPcnYAknXL7DBdNLj2","","","","","","","","","","","","","","","","","","","1957","",""
"html-keyboard-response","204","414443","0.0-85.0-0.0","","1998.1999999999534","<div style=""display: flex; flex-direction: column; align-items: center; margin-top: -40px;""><img src=""images/pattern_4.png"" style=""width: 234px; height: 230px; margin-top: -50px;""><div style=""display: flex; justify-content: space-between; margin-top: 33px;""><img src=""images/choice_trial_16.png"" style=""width: 408px; height: 417px; margin-right: 200px;""><img src=""images/choice_trial_4.png"" style=""width: 408px; height: 417px;""></div></div>","j","delaylearn","learning","trial","6601afb05afd671b790311ae","PZXlXzKp55OPcnYAknXL7DBdNLj2","2","images/choice_trial_16.png","images/choice_trial_4.png","images/pattern_4.png","f","j","7000","16","4","3","1","37","1","0","4","170","","","","",""
"html-keyboard-response","205","415446","0.0-85.0-1.0","","null","<div style=""display: flex; flex-direction: column; align-items: center; margin-top: -40px;""><img src=""images/pattern_4.png"" style=""width: 234px; height: 230px; margin-top: -50px;""><div style=""display: flex; justify-content: space-between; margin-top: 33px;""><img src=""images/choice_trial_4.png"" style=""width: 408px; height: 417px; margin-left:608px;""></div></div>","null","delaylearn","learning","display_response","6601afb05afd671b790311ae","PZXlXzKp55OPcnYAknXL7DBdNLj2","","","","","","","","","","","","","","","","","chosen stimuli: images/choice_trial_4.png","","","",""
"html-keyboard-response","206","422452","0.0-85.0-2.0","","null","","null","delaylearn","learning","feedback_duration_window","6601afb05afd671b790311ae","PZXlXzKp55OPcnYAknXL7DBdNLj2","","","","","","","","","","","","","","","","","","7000","","",""
"html-keyboard-response","207","423954","0.0-85.0-3.0","","null","<div style='margin:auto;width: auto; font-size: 150%'><span style='font-weight: bold; font-size: 100px; color: red;'>0 points!</span><br><br></div>","null","delaylearn","learning","feedback_image_window","6601afb05afd671b790311ae","PZXlXzKp55OPcnYAknXL7DBdNLj2","","","","","","","","","","","","","","","","","","","","",""
"html-keyboard-response","208","425964","0.0-86.0","","null","<div style=""font-size:100px;"">+</div>","null","delaylearn","learning","ITI","6601afb05afd671b790311ae","PZXlXzKp55OPcnYAknXL7DBdNLj2","","","","","","","","","","","","","","","","","","","2009","",""
"html-keyboard-response","209","427378","0.0-87.0-0.0","","1410","<div style=""display: flex; flex-direction: column; align-items: center; margin-top: -40px;""><img src=""images/pattern_7.png"" style=""width: 234px; height: 230px; margin-top: -50px;""><div style=""display: flex; justify-content: space-between; margin-top: 33px;""><img src=""images/choice_trial_8.png"" style=""width: 408px; height: 417px; margin-right: 200px;""><img src=""images/choice_trial_15.png"" style=""width: 408px; height: 417px;""></div></div>","j","delaylearn","learning","trial","6601afb05afd671b790311ae","PZXlXzKp55OPcnYAknXL7DBdNLj2","2","images/choice_trial_8.png","images/choice_trial_15.png","images/pattern_7.png","f","f","750","8","15","6","0","38","0","0","15","170","","","","",""
"html-keyboard-response","210","428384","0.0-87.0-1.0","","null","<div style=""display: flex; flex-direction: column; align-items: center; margin-top: -40px;""><img src=""images/pattern_7.png"" style=""width: 234px; height: 230px; margin-top: -50px;""><div style=""display: flex; justify-content: space-between; margin-top: 33px;""><img src=""images/choice_trial_15.png"" style=""width: 408px; height: 417px; margin-left:608px;""></div></div>","null","delaylearn","learning","display_response","6601afb05afd671b790311ae","PZXlXzKp55OPcnYAknXL7DBdNLj2","","","","","","","","","","","","","","","","","chosen stimuli: images/choice_trial_15.png","","","",""
"html-keyboard-response","211","429139","0.0-87.0-2.0","","null","","null","delaylearn","learning","feedback_duration_window","6601afb05afd671b790311ae","PZXlXzKp55OPcnYAknXL7DBdNLj2","","","","","","","","","","","","","","","","","","750","","",""
"html-keyboard-response","212","430642","0.0-87.0-3.0","","null","<div style='margin:auto;width: auto; font-size: 150%'><span style='font-weight: bold; font-size: 100px; color: red;'>0 points!</span><br><br></div>","null","delaylearn","learning","feedback_image_window","6601afb05afd671b790311ae","PZXlXzKp55OPcnYAknXL7DBdNLj2","","","","","","","","","","","","","","","","","","","","",""
"html-keyboard-response","213","432596","0.0-88.0","","null","<div style=""font-size:100px;"">+</div>","null","delaylearn","learning","ITI","6601afb05afd671b790311ae","PZXlXzKp55OPcnYAknXL7DBdNLj2","","","","","","","","","","","","","","","","","","","1949","",""
"html-keyboard-response","214","434387","0.0-89.0-0.0","","1787.5","<div style=""display: flex; flex-direction: column; align-items: center; margin-top: -40px;""><img src=""images/pattern_1.png"" style=""width: 234px; height: 230px; margin-top: -50px;""><div style=""display: flex; justify-content: space-between; margin-top: 33px;""><img src=""images/choice_trial_3.png"" style=""width: 408px; height: 417px; margin-right: 200px;""><img src=""images/choice_trial_10.png"" style=""width: 408px; height: 417px;""></div></div>","j","delaylearn","learning","trial","6601afb05afd671b790311ae","PZXlXzKp55OPcnYAknXL7DBdNLj2","2","images/choice_trial_3.png","images/choice_trial_10.png","images/pattern_1.png","f","f","7000","3","10","1","0","39","0","0","10","170","","","","",""
"html-keyboard-response","215","435395","0.0-89.0-1.0","","null","<div style=""display: flex; flex-direction: column; align-items: center; margin-top: -40px;""><img src=""images/pattern_1.png"" style=""width: 234px; height: 230px; margin-top: -50px;""><div style=""display: flex; justify-content: space-between; margin-top: 33px;""><img src=""images/choice_trial_10.png"" style=""width: 408px; height: 417px; margin-left:608px;""></div></div>","null","delaylearn","learning","display_response","6601afb05afd671b790311ae","PZXlXzKp55OPcnYAknXL7DBdNLj2","","","","","","","","","","","","","","","","","chosen stimuli: images/choice_trial_10.png","","","",""
"html-keyboard-response","216","442398","0.0-89.0-2.0","","null","","null","delaylearn","learning","feedback_duration_window","6601afb05afd671b790311ae","PZXlXzKp55OPcnYAknXL7DBdNLj2","","","","","","","","","","","","","","","","","","7000","","",""
"html-keyboard-response","217","443903","0.0-89.0-3.0","","null","<div style='margin:auto;width: auto; font-size: 150%'><span style='font-weight: bold; font-size: 100px; color: red;'>0 points!</span><br><br></div>","null","delaylearn","learning","feedback_image_window","6601afb05afd671b790311ae","PZXlXzKp55OPcnYAknXL7DBdNLj2","","","","","","","","","","","","","","","","","","","","",""
"html-keyboard-response","218","444406","0.0-90.0-0.0","","null","","null","","","mood_trial_fixation","","","","","","","","","","","","","","","","","","","","","","",""
"lmdlab-html-vas-response","219","447414","0.0-90.0-1.0","","2002","How happy are you right now?","0.36854745370370373","delaylearn","learning","mood_trial","6601afb05afd671b790311ae","PZXlXzKp55OPcnYAknXL7DBdNLj2","","","","","","","","","","","","","","","","","","","","[""Very unhappy"",""Very happy""]",""
"html-keyboard-response","220","449105","0.0-91.0","","null","<div style=""font-size:100px;"">+</div>","null","delaylearn","learning","ITI","6601afb05afd671b790311ae","PZXlXzKp55OPcnYAknXL7DBdNLj2","","","","","","","","","","","","","","","","","","","1684","",""
"html-keyboard-response","221","450652","0.0-92.0-0.0","","1543.1000000000931","<div style=""display: flex; flex-direction: column; align-items: center; margin-top: -40px;""><img src=""images/pattern_3.png"" style=""width: 234px; height: 230px; margin-top: -50px;""><div style=""display: flex; justify-content: space-between; margin-top: 33px;""><img src=""images/choice_trial_12.png"" style=""width: 408px; height: 417px; margin-right: 200px;""><img src=""images/choice_trial_14.png"" style=""width: 408px; height: 417px;""></div></div>","f","delaylearn","learning","trial","6601afb05afd671b790311ae","PZXlXzKp55OPcnYAknXL7DBdNLj2","2","images/choice_trial_12.png","images/choice_trial_14.png","images/pattern_3.png","j","f","7000","12","14","2","0","40","1","0","12","170","","","","",""
"html-keyboard-response","222","451656","0.0-92.0-1.0","","null","<div style=""display: flex; flex-direction: column; align-items: center; margin-top: -40px;""><img src=""images/pattern_3.png"" style=""width: 234px; height: 230px; margin-top: -50px;""><div style=""display: flex; justify-content: space-between; margin-top: 33px;""><img src=""images/choice_trial_12.png"" style=""width: 408px; height: 417px; margin-right: 608px;""></div></div>","null","delaylearn","learning","display_response","6601afb05afd671b790311ae","PZXlXzKp55OPcnYAknXL7DBdNLj2","","","","","","","","","","","","","","","","","chosen stimuli: images/choice_trial_12.png","","","",""
"html-keyboard-response","223","458663","0.0-92.0-2.0","","null","","null","delaylearn","learning","feedback_duration_window","6601afb05afd671b790311ae","PZXlXzKp55OPcnYAknXL7DBdNLj2","","","","","","","","","","","","","","","","","","7000","","",""
