"trial_type","trial_index","time_elapsed","internal_node_id","participant","rt","stimulus","response","exp_name","exp_stage","test_part","subjectID","databaseID","counterbal","choice_stimuli_1","choice_stimuli_2","pattern_stimuli","rewarded_answer","correct_answer","feedback_duration_times","stim_left","stim_right","pair","leftright_counter","trial","response_correct","response_rewarded","chosen_stim","counter","displayed_choice","feedback_durations","ITI_duration","labels","rest_warning"
"pavlovia","0","511","0.0-0.0","","","","","","","","","","","","","","","","","","","","","","","","","","","","","",""
"html-keyboard-response","1","3518","0.0-1.0","","null","<div style=""font-size:100px;"">+</div>","null","delaylearn","learning","pre_fixation","60feca9223aed7b785e6018d","","","","","","","","","","","","","","","","","","","","","",""
"html-keyboard-response","2","5012","0.0-2.0-0.0","","1491.699999988079","<div style=""display: flex; flex-direction: column; align-items: center; margin-top: -40px;""><img src=""images/demo_images/pattern_1.png"" style=""width: 234px; height: 230px; margin-top: -50px;""><div style=""display: flex; justify-content: space-between; margin-top: 33px;""><img src=""images/demo_images/choice_trial_2.png"" style=""width: 408px; height: 417px; margin-right: 200px;""><img src=""images/demo_images/choice_trial_1.png"" style=""width: 408px; height: 417px;""></div></div>","f","delaylearn","learning","trial","60feca9223aed7b785e6018d","M6YqIoX2a1dhvpkMedN8u66N0ZY2","1","images/demo_images/choice_trial_2.png","images/demo_images/choice_trial_1.png","images/demo_images/pattern_1.png","j","j","3000","2","1","20","1","1","0","0","2","0","","","","",""
"html-keyboard-response","3","6020","0.0-2.0-1.0","","null","<div style=""display: flex; flex-direction: column; align-items: center; margin-top: -40px;""><img src=""images/demo_images/pattern_1.png"" style=""width: 234px; height: 230px; margin-top: -50px;""><div style=""display: flex; justify-content: space-between; margin-top: 33px;""><img src=""images/demo_images/choice_trial_2.png"" style=""width: 408px; height: 417px; margin-right: 608px;""></div></div>","null","delaylearn","learning","display_response","60feca9223aed7b785e6018d","M6YqIoX2a1dhvpkMedN8u66N0ZY2","","","","","","","","","","","","","","","","","chosen stimuli: images/demo_images/choice_trial_2.png","","","",""
"html-keyboard-response","4","9026","0.0-2.0-2.0","","null","","null","delaylearn","learning","feedback_duration_window","60feca9223aed7b785e6018d","M6YqIoX2a1dhvpkMedN8u66N0ZY2","","","","","","","","","","","","","","","","","","3000","","",""
"html-keyboard-response","5","10533","0.0-2.0-3.0","","null","<div style='margin:auto;width: auto; font-size: 150%'><span style='font-weight: bold; font-size: 100px; color: red;'>0 points!</span><br><br></div>","null","delaylearn","learning","feedback_image_window","60feca9223aed7b785e6018d","M6YqIoX2a1dhvpkMedN8u66N0ZY2","","","","","","","","","","","","","","","","","","","","",""
"html-keyboard-response","6","12257","0.0-3.0","","null","<div style=""font-size:100px;"">+</div>","null","delaylearn","learning","ITI","60feca9223aed7b785e6018d","M6YqIoX2a1dhvpkMedN8u66N0ZY2","","","","","","","","","","","","","","","","","","","1721","",""
"html-keyboard-response","7","13936","0.0-4.0-0.0","","1675.199999988079","<div style=""display: flex; flex-direction: column; align-items: center; margin-top: -40px;""><img src=""images/demo_images/pattern_1.png"" style=""width: 234px; height: 230px; margin-top: -50px;""><div style=""display: flex; justify-content: space-between; margin-top: 33px;""><img src=""images/demo_images/choice_trial_2.png"" style=""width: 408px; height: 417px; margin-right: 200px;""><img src=""images/demo_images/choice_trial_1.png"" style=""width: 408px; height: 417px;""></div></div>","j","delaylearn","learning","trial","60feca9223aed7b785e6018d","M6YqIoX2a1dhvpkMedN8u66N0ZY2","1","images/demo_images/choice_trial_2.png","images/demo_images/choice_trial_1.png","images/demo_images/pattern_1.png","j","j","3000","2","1","20","1","2","1","1","1","10","","","","",""
"html-keyboard-response","8","14939","0.0-4.0-1.0","","null","<div style=""display: flex; flex-direction: column; align-items: center; margin-top: -40px;""><img src=""images/demo_images/pattern_1.png"" style=""width: 234px; height: 230px; margin-top: -50px;""><div style=""display: flex; justify-content: space-between; margin-top: 33px;""><img src=""images/demo_images/choice_trial_1.png"" style=""width: 408px; height: 417px; margin-left:608px;""></div></div>","null","delaylearn","learning","display_response","60feca9223aed7b785e6018d","M6YqIoX2a1dhvpkMedN8u66N0ZY2","","","","","","","","","","","","","","","","","chosen stimuli: images/demo_images/choice_trial_1.png","","","",""
"html-keyboard-response","9","17947","0.0-4.0-2.0","","null","","null","delaylearn","learning","feedback_duration_window","60feca9223aed7b785e6018d","M6YqIoX2a1dhvpkMedN8u66N0ZY2","","","","","","","","","","","","","","","","","","3000","","",""
"html-keyboard-response","10","19454","0.0-4.0-3.0","","null","<div style='margin:auto;width: auto; font-size: 150%'><span style='font-weight: bold; font-size: 100px; color: green;'>+10 points!</span><br><br></div>","null","delaylearn","learning","feedback_image_window","60feca9223aed7b785e6018d","M6YqIoX2a1dhvpkMedN8u66N0ZY2","","","","","","","","","","","","","","","","","","","","",""
"html-keyboard-response","11","21326","0.0-5.0","","null","<div style=""font-size:100px;"">+</div>","null","delaylearn","learning","ITI","60feca9223aed7b785e6018d","M6YqIoX2a1dhvpkMedN8u66N0ZY2","","","","","","","","","","","","","","","","","","","1864","",""
"html-keyboard-response","12","22303","0.0-6.0-0.0","","974.1000000238419","<div style=""display: flex; flex-direction: column; align-items: center; margin-top: -40px;""><img src=""images/demo_images/pattern_1.png"" style=""width: 234px; height: 230px; margin-top: -50px;""><div style=""display: flex; justify-content: space-between; margin-top: 33px;""><img src=""images/demo_images/choice_trial_1.png"" style=""width: 408px; height: 417px; margin-right: 200px;""><img src=""images/demo_images/choice_trial_2.png"" style=""width: 408px; height: 417px;""></div></div>","f","delaylearn","learning","trial","60feca9223aed7b785e6018d","M6YqIoX2a1dhvpkMedN8u66N0ZY2","1","images/demo_images/choice_trial_1.png","images/demo_images/choice_trial_2.png","images/demo_images/pattern_1.png","j","f","3000","1","2","20","0","3","1","0","1","10","","","","",""
"html-keyboard-response","13","23311","0.0-6.0-1.0","","null","<div style=""display: flex; flex-direction: column; align-items: center; margin-top: -40px;""><img src=""images/demo_images/pattern_1.png"" style=""width: 234px; height: 230px; margin-top: -50px;""><div style=""display: flex; justify-content: space-between; margin-top: 33px;""><img src=""images/demo_images/choice_trial_1.png"" style=""width: 408px; height: 417px; margin-right: 608px;""></div></div>","null","delaylearn","learning","display_response","60feca9223aed7b785e6018d","M6YqIoX2a1dhvpkMedN8u66N0ZY2","","","","","","","","","","","","","","","","","chosen stimuli: images/demo_images/choice_trial_1.png","","","",""
"html-keyboard-response","14","26316","0.0-6.0-2.0","","null","","null","delaylearn","learning","feedback_duration_window","60feca9223aed7b785e6018d","M6YqIoX2a1dhvpkMedN8u66N0ZY2","","","","","","","","","","","","","","","","","","3000","","",""
"html-keyboard-response","15","27824","0.0-6.0-3.0","","null","<div style='margin:auto;width: auto; font-size: 150%'><span style='font-weight: bold; font-size: 100px; color: red;'>0 points!</span><br><br></div>","null","delaylearn","learning","feedback_image_window","60feca9223aed7b785e6018d","M6YqIoX2a1dhvpkMedN8u66N0ZY2","","","","","","","","","","","","","","","","","","","","",""
"html-keyboard-response","16","29590","0.0-7.0","","null","<div style=""font-size:100px;"">+</div>","null","delaylearn","learning","ITI","60feca9223aed7b785e6018d","M6YqIoX2a1dhvpkMedN8u66N0ZY2","","","","","","","","","","","","","","","","","","","1761","",""
"html-keyboard-response","17","30859","0.0-8.0-0.0","","1265.2999999523163","<div style=""display: flex; flex-direction: column; align-items: center; margin-top: -40px;""><img src=""images/demo_images/pattern_1.png"" style=""width: 234px; height: 230px; margin-top: -50px;""><div style=""display: flex; justify-content: space-between; margin-top: 33px;""><img src=""images/demo_images/choice_trial_1.png"" style=""width: 408px; height: 417px; margin-right: 200px;""><img src=""images/demo_images/choice_trial_2.png"" style=""width: 408px; height: 417px;""></div></div>","f","delaylearn","learning","trial","60feca9223aed7b785e6018d","M6YqIoX2a1dhvpkMedN8u66N0ZY2","1","images/demo_images/choice_trial_1.png","images/demo_images/choice_trial_2.png","images/demo_images/pattern_1.png","f","f","3000","1","2","20","0","4","1","1","1","20","","","","",""
"html-keyboard-response","18","31867","0.0-8.0-1.0","","null","<div style=""display: flex; flex-direction: column; align-items: center; margin-top: -40px;""><img src=""images/demo_images/pattern_1.png"" style=""width: 234px; height: 230px; margin-top: -50px;""><div style=""display: flex; justify-content: space-between; margin-top: 33px;""><img src=""images/demo_images/choice_trial_1.png"" style=""width: 408px; height: 417px; margin-right: 608px;""></div></div>","null","delaylearn","learning","display_response","60feca9223aed7b785e6018d","M6YqIoX2a1dhvpkMedN8u66N0ZY2","","","","","","","","","","","","","","","","","chosen stimuli: images/demo_images/choice_trial_1.png","","","",""
"html-keyboard-response","19","34872","0.0-8.0-2.0","","null","","null","delaylearn","learning","feedback_duration_window","60feca9223aed7b785e6018d","M6YqIoX2a1dhvpkMedN8u66N0ZY2","","","","","","","","","","","","","","","","","","3000","","",""
"html-keyboard-response","20","36378","0.0-8.0-3.0","","null","<div style='margin:auto;width: auto; font-size: 150%'><span style='font-weight: bold; font-size: 100px; color: green;'>+10 points!</span><br><br></div>","null","delaylearn","learning","feedback_image_window","60feca9223aed7b785e6018d","M6YqIoX2a1dhvpkMedN8u66N0ZY2","","","","","","","","","","","","","","","","","","","","",""
"html-keyboard-response","21","36882","0.0-9.0-0.0","","null","","null","","","mood_trial_fixation","","","","","","","","","","","","","","","","","","","","","","",""
"lmdlab-html-vas-response","22","41653","0.0-9.0-1.0","","3752","How happy are you right now?","0.6074074074074074","delaylearn","learning","mood_trial","60feca9223aed7b785e6018d","M6YqIoX2a1dhvpkMedN8u66N0ZY2","","","","","","","","","","","","","","","","","","","","[""Very unhappy"",""Very happy""]",""
"html-keyboard-response","23","43425","0.0-10.0","","null","<div style=""font-size:100px;"">+</div>","null","delaylearn","learning","ITI","60feca9223aed7b785e6018d","M6YqIoX2a1dhvpkMedN8u66N0ZY2","","","","","","","","","","","","","","","","","","","1769","",""
"html-keyboard-response","24","44380","0.0-11.0-0.0","","952.5999999642372","<div style=""display: flex; flex-direction: column; align-items: center; margin-top: -40px;""><img src=""images/demo_images/pattern_1.png"" style=""width: 234px; height: 230px; margin-top: -50px;""><div style=""display: flex; justify-content: space-between; margin-top: 33px;""><img src=""images/demo_images/choice_trial_2.png"" style=""width: 408px; height: 417px; margin-right: 200px;""><img src=""images/demo_images/choice_trial_1.png"" style=""width: 408px; height: 417px;""></div></div>","j","delaylearn","learning","trial","60feca9223aed7b785e6018d","M6YqIoX2a1dhvpkMedN8u66N0ZY2","1","images/demo_images/choice_trial_2.png","images/demo_images/choice_trial_1.png","images/demo_images/pattern_1.png","j","j","3000","2","1","20","1","5","1","1","1","30","","","","",""
"html-keyboard-response","25","45387","0.0-11.0-1.0","","null","<div style=""display: flex; flex-direction: column; align-items: center; margin-top: -40px;""><img src=""images/demo_images/pattern_1.png"" style=""width: 234px; height: 230px; margin-top: -50px;""><div style=""display: flex; justify-content: space-between; margin-top: 33px;""><img src=""images/demo_images/choice_trial_1.png"" style=""width: 408px; height: 417px; margin-left:608px;""></div></div>","null","delaylearn","learning","display_response","60feca9223aed7b785e6018d","M6YqIoX2a1dhvpkMedN8u66N0ZY2","","","","","","","","","","","","","","","","","chosen stimuli: images/demo_images/choice_trial_1.png","","","",""
"html-keyboard-response","26","48390","0.0-11.0-2.0","","null","","null","delaylearn","learning","feedback_duration_window","60feca9223aed7b785e6018d","M6YqIoX2a1dhvpkMedN8u66N0ZY2","","","","","","","","","","","","","","","","","","3000","","",""
"html-keyboard-response","27","49898","0.0-11.0-3.0","","null","<div style='margin:auto;width: auto; font-size: 150%'><span style='font-weight: bold; font-size: 100px; color: green;'>+10 points!</span><br><br></div>","null","delaylearn","learning","feedback_image_window","60feca9223aed7b785e6018d","M6YqIoX2a1dhvpkMedN8u66N0ZY2","","","","","","","","","","","","","","","","","","","","",""
"html-keyboard-response","28","52022","0.0-12.0","","null","<div style=""font-size:100px;"">+</div>","null","delaylearn","learning","ITI","60feca9223aed7b785e6018d","M6YqIoX2a1dhvpkMedN8u66N0ZY2","","","","","","","","","","","","","","","","","","","2118","",""
"html-keyboard-response","29","52983","0.0-13.0-0.0","","958.1000000238419","<div style=""display: flex; flex-direction: column; align-items: center; margin-top: -40px;""><img src=""images/demo_images/pattern_1.png"" style=""width: 234px; height: 230px; margin-top: -50px;""><div style=""display: flex; justify-content: space-between; margin-top: 33px;""><img src=""images/demo_images/choice_trial_1.png"" style=""width: 408px; height: 417px; margin-right: 200px;""><img src=""images/demo_images/choice_trial_2.png"" style=""width: 408px; height: 417px;""></div></div>","f","delaylearn","learning","trial","60feca9223aed7b785e6018d","M6YqIoX2a1dhvpkMedN8u66N0ZY2","1","images/demo_images/choice_trial_1.png","images/demo_images/choice_trial_2.png","images/demo_images/pattern_1.png","f","f","3000","1","2","20","0","6","1","1","1","40","","","","",""
"html-keyboard-response","30","53990","0.0-13.0-1.0","","null","<div style=""display: flex; flex-direction: column; align-items: center; margin-top: -40px;""><img src=""images/demo_images/pattern_1.png"" style=""width: 234px; height: 230px; margin-top: -50px;""><div style=""display: flex; justify-content: space-between; margin-top: 33px;""><img src=""images/demo_images/choice_trial_1.png"" style=""width: 408px; height: 417px; margin-right: 608px;""></div></div>","null","delaylearn","learning","display_response","60feca9223aed7b785e6018d","M6YqIoX2a1dhvpkMedN8u66N0ZY2","","","","","","","","","","","","","","","","","chosen stimuli: images/demo_images/choice_trial_1.png","","","",""
"html-keyboard-response","31","56997","0.0-13.0-2.0","","null","","null","delaylearn","learning","feedback_duration_window","60feca9223aed7b785e6018d","M6YqIoX2a1dhvpkMedN8u66N0ZY2","","","","","","","","","","","","","","","","","","3000","","",""
"html-keyboard-response","32","58505","0.0-13.0-3.0","","null","<div style='margin:auto;width: auto; font-size: 150%'><span style='font-weight: bold; font-size: 100px; color: green;'>+10 points!</span><br><br></div>","null","delaylearn","learning","feedback_image_window","60feca9223aed7b785e6018d","M6YqIoX2a1dhvpkMedN8u66N0ZY2","","","","","","","","","","","","","","","","","","","","",""
"html-keyboard-response","33","60777","0.0-14.0","","null","<div style=""font-size:100px;"">+</div>","null","delaylearn","learning","ITI","60feca9223aed7b785e6018d","M6YqIoX2a1dhvpkMedN8u66N0ZY2","","","","","","","","","","","","","","","","","","","2265","",""
"html-keyboard-response","34","61502","0.0-15.0-0.0","","721.6999999880791","<div style=""display: flex; flex-direction: column; align-items: center; margin-top: -40px;""><img src=""images/demo_images/pattern_1.png"" style=""width: 234px; height: 230px; margin-top: -50px;""><div style=""display: flex; justify-content: space-between; margin-top: 33px;""><img src=""images/demo_images/choice_trial_2.png"" style=""width: 408px; height: 417px; margin-right: 200px;""><img src=""images/demo_images/choice_trial_1.png"" style=""width: 408px; height: 417px;""></div></div>","j","delaylearn","learning","trial","60feca9223aed7b785e6018d","M6YqIoX2a1dhvpkMedN8u66N0ZY2","1","images/demo_images/choice_trial_2.png","images/demo_images/choice_trial_1.png","images/demo_images/pattern_1.png","j","j","3000","2","1","20","1","7","1","1","1","50","","","","",""
"html-keyboard-response","35","62509","0.0-15.0-1.0","","null","<div style=""display: flex; flex-direction: column; align-items: center; margin-top: -40px;""><img src=""images/demo_images/pattern_1.png"" style=""width: 234px; height: 230px; margin-top: -50px;""><div style=""display: flex; justify-content: space-between; margin-top: 33px;""><img src=""images/demo_images/choice_trial_1.png"" style=""width: 408px; height: 417px; margin-left:608px;""></div></div>","null","delaylearn","learning","display_response","60feca9223aed7b785e6018d","M6YqIoX2a1dhvpkMedN8u66N0ZY2","","","","","","","","","","","","","","","","","chosen stimuli: images/demo_images/choice_trial_1.png","","","",""
"html-keyboard-response","36","65515","0.0-15.0-2.0","","null","","null","delaylearn","learning","feedback_duration_window","60feca9223aed7b785e6018d","M6YqIoX2a1dhvpkMedN8u66N0ZY2","","","","","","","","","","","","","","","","","","3000","","",""
"html-keyboard-response","37","67022","0.0-15.0-3.0","","null","<div style='margin:auto;width: auto; font-size: 150%'><span style='font-weight: bold; font-size: 100px; color: green;'>+10 points!</span><br><br></div>","null","delaylearn","learning","feedback_image_window","60feca9223aed7b785e6018d","M6YqIoX2a1dhvpkMedN8u66N0ZY2","","","","","","","","","","","","","","","","","","","","",""
"html-keyboard-response","38","69199","0.0-16.0","","null","<div style=""font-size:100px;"">+</div>","null","delaylearn","learning","ITI","60feca9223aed7b785e6018d","M6YqIoX2a1dhvpkMedN8u66N0ZY2","","","","","","","","","","","","","","","","","","","2171","",""
"html-keyboard-response","39","69999","0.0-17.0-0.0","","796.6000000238419","<div style=""display: flex; flex-direction: column; align-items: center; margin-top: -40px;""><img src=""images/demo_images/pattern_1.png"" style=""width: 234px; height: 230px; margin-top: -50px;""><div style=""display: flex; justify-content: space-between; margin-top: 33px;""><img src=""images/demo_images/choice_trial_1.png"" style=""width: 408px; height: 417px; margin-right: 200px;""><img src=""images/demo_images/choice_trial_2.png"" style=""width: 408px; height: 417px;""></div></div>","f","delaylearn","learning","trial","60feca9223aed7b785e6018d","M6YqIoX2a1dhvpkMedN8u66N0ZY2","1","images/demo_images/choice_trial_1.png","images/demo_images/choice_trial_2.png","images/demo_images/pattern_1.png","f","f","3000","1","2","20","0","8","1","1","1","60","","","","",""
"html-keyboard-response","40","71007","0.0-17.0-1.0","","null","<div style=""display: flex; flex-direction: column; align-items: center; margin-top: -40px;""><img src=""images/demo_images/pattern_1.png"" style=""width: 234px; height: 230px; margin-top: -50px;""><div style=""display: flex; justify-content: space-between; margin-top: 33px;""><img src=""images/demo_images/choice_trial_1.png"" style=""width: 408px; height: 417px; margin-right: 608px;""></div></div>","null","delaylearn","learning","display_response","60feca9223aed7b785e6018d","M6YqIoX2a1dhvpkMedN8u66N0ZY2","","","","","","","","","","","","","","","","","chosen stimuli: images/demo_images/choice_trial_1.png","","","",""
"html-keyboard-response","41","74014","0.0-17.0-2.0","","null","","null","delaylearn","learning","feedback_duration_window","60feca9223aed7b785e6018d","M6YqIoX2a1dhvpkMedN8u66N0ZY2","","","","","","","","","","","","","","","","","","3000","","",""
"html-keyboard-response","42","75522","0.0-17.0-3.0","","null","<div style='margin:auto;width: auto; font-size: 150%'><span style='font-weight: bold; font-size: 100px; color: green;'>+10 points!</span><br><br></div>","null","delaylearn","learning","feedback_image_window","60feca9223aed7b785e6018d","M6YqIoX2a1dhvpkMedN8u66N0ZY2","","","","","","","","","","","","","","","","","","","","",""
"html-button-response","43","78200","0.0-18.0","","2675.199999988079","
  <div style=""display: flex; align-items: center; justify-content: center; height: 80vh;"">
  <div>
          <img src=""images/inst_demo_finish.png"" style=""width: 80vw; height:auto;"">
          <br><br>
      </div>
      <br><br>
  </div>","0","","","","","","","","","","","","","","","","","","","","","","","","","",""
"html-keyboard-response","44","81098","0.0-19.0","","2895.899999976158","
  <div style=""display: flex; align-items: center; justify-content: center; height: 80vh;"">
  <div>
          <img src=""images/inst_6.png"" style=""width: 80vw; height:auto;"">
          <br><br>
      </div>
      <br><br>
  </div>","f","","","","","","","","","","","","","","","","","","","","","","","","","",""
"html-keyboard-response","45","84102","0.0-20.0","","null","<div style=""font-size:100px;"">+</div>","null","delaylearn","learning","pre_fixation","60feca9223aed7b785e6018d","","","","","","","","","","","","","","","","","","","","","",""
"html-keyboard-response","46","85743","0.0-21.0","","null","<div style=""font-size:100px;"">+</div>","null","delaylearn","learning","ITI","60feca9223aed7b785e6018d","M6YqIoX2a1dhvpkMedN8u66N0ZY2","","","","","","","","","","","","","","","","","","","1634","",""
"html-keyboard-response","47","87529","0.0-22.0-0.0","","1784.5","<div style=""display: flex; flex-direction: column; align-items: center; margin-top: -40px;""><img src=""images/pattern_3.png"" style=""width: 234px; height: 230px; margin-top: -50px;""><div style=""display: flex; justify-content: space-between; margin-top: 33px;""><img src=""images/choice_trial_5.png"" style=""width: 408px; height: 417px; margin-right: 200px;""><img src=""images/choice_trial_6.png"" style=""width: 408px; height: 417px;""></div></div>","f","delaylearn","learning","trial","60feca9223aed7b785e6018d","M6YqIoX2a1dhvpkMedN8u66N0ZY2","1","images/choice_trial_5.png","images/choice_trial_6.png","images/pattern_3.png","f","f","7000","5","6","2","0","9","1","1","5","70","","","","",""
"html-keyboard-response","48","88536","0.0-22.0-1.0","","null","<div style=""display: flex; flex-direction: column; align-items: center; margin-top: -40px;""><img src=""images/pattern_3.png"" style=""width: 234px; height: 230px; margin-top: -50px;""><div style=""display: flex; justify-content: space-between; margin-top: 33px;""><img src=""images/choice_trial_5.png"" style=""width: 408px; height: 417px; margin-right: 608px;""></div></div>","null","delaylearn","learning","display_response","60feca9223aed7b785e6018d","M6YqIoX2a1dhvpkMedN8u66N0ZY2","","","","","","","","","","","","","","","","","chosen stimuli: images/choice_trial_5.png","","","",""
"html-keyboard-response","49","95541","0.0-22.0-2.0","","null","","null","delaylearn","learning","feedback_duration_window","60feca9223aed7b785e6018d","M6YqIoX2a1dhvpkMedN8u66N0ZY2","","","","","","","","","","","","","","","","","","7000","","",""
"html-keyboard-response","50","97049","0.0-22.0-3.0","","null","<div style='margin:auto;width: auto; font-size: 150%'><span style='font-weight: bold; font-size: 100px; color: green;'>+10 points!</span><br><br></div>","null","delaylearn","learning","feedback_image_window","60feca9223aed7b785e6018d","M6YqIoX2a1dhvpkMedN8u66N0ZY2","","","","","","","","","","","","","","","","","","","","",""
"html-keyboard-response","51","98819","0.0-23.0","","null","<div style=""font-size:100px;"">+</div>","null","delaylearn","learning","ITI","60feca9223aed7b785e6018d","M6YqIoX2a1dhvpkMedN8u66N0ZY2","","","","","","","","","","","","","","","","","","","1763","",""
"html-keyboard-response","52","100532","0.0-24.0-0.0","","1710.699999988079","<div style=""display: flex; flex-direction: column; align-items: center; margin-top: -40px;""><img src=""images/pattern_7.png"" style=""width: 234px; height: 230px; margin-top: -50px;""><div style=""display: flex; justify-content: space-between; margin-top: 33px;""><img src=""images/choice_trial_14.png"" style=""width: 408px; height: 417px; margin-right: 200px;""><img src=""images/choice_trial_13.png"" style=""width: 408px; height: 417px;""></div></div>","j","delaylearn","learning","trial","60feca9223aed7b785e6018d","M6YqIoX2a1dhvpkMedN8u66N0ZY2","1","images/choice_trial_14.png","images/choice_trial_13.png","images/pattern_7.png","j","j","750","14","13","6","1","10","1","1","13","80","","","","",""
"html-keyboard-response","53","101540","0.0-24.0-1.0","","null","<div style=""display: flex; flex-direction: column; align-items: center; margin-top: -40px;""><img src=""images/pattern_7.png"" style=""width: 234px; height: 230px; margin-top: -50px;""><div style=""display: flex; justify-content: space-between; margin-top: 33px;""><img src=""images/choice_trial_13.png"" style=""width: 408px; height: 417px; margin-left:608px;""></div></div>","null","delaylearn","learning","display_response","60feca9223aed7b785e6018d","M6YqIoX2a1dhvpkMedN8u66N0ZY2","","","","","","","","","","","","","","","","","chosen stimuli: images/choice_trial_13.png","","","",""
"html-keyboard-response","54","102298","0.0-24.0-2.0","","null","","null","delaylearn","learning","feedback_duration_window","60feca9223aed7b785e6018d","M6YqIoX2a1dhvpkMedN8u66N0ZY2","","","","","","","","","","","","","","","","","","750","","",""
"html-keyboard-response","55","103803","0.0-24.0-3.0","","null","<div style='margin:auto;width: auto; font-size: 150%'><span style='font-weight: bold; font-size: 100px; color: green;'>+10 points!</span><br><br></div>","null","delaylearn","learning","feedback_image_window","60feca9223aed7b785e6018d","M6YqIoX2a1dhvpkMedN8u66N0ZY2","","","","","","","","","","","","","","","","","","","","",""
"html-keyboard-response","56","106137","0.0-25.0","","null","<div style=""font-size:100px;"">+</div>","null","delaylearn","learning","ITI","60feca9223aed7b785e6018d","M6YqIoX2a1dhvpkMedN8u66N0ZY2","","","","","","","","","","","","","","","","","","","2327","",""
"html-keyboard-response","57","108286","0.0-26.0-0.0","","2146.400000035763","<div style=""display: flex; flex-direction: column; align-items: center; margin-top: -40px;""><img src=""images/pattern_4.png"" style=""width: 234px; height: 230px; margin-top: -50px;""><div style=""display: flex; justify-content: space-between; margin-top: 33px;""><img src=""images/choice_trial_7.png"" style=""width: 408px; height: 417px; margin-right: 200px;""><img src=""images/choice_trial_8.png"" style=""width: 408px; height: 417px;""></div></div>","j","delaylearn","learning","trial","60feca9223aed7b785e6018d","M6YqIoX2a1dhvpkMedN8u66N0ZY2","1","images/choice_trial_7.png","images/choice_trial_8.png","images/pattern_4.png","f","f","7000","7","8","3","0","11","0","0","8","80","","","","",""
"html-keyboard-response","58","109289","0.0-26.0-1.0","","null","<div style=""display: flex; flex-direction: column; align-items: center; margin-top: -40px;""><img src=""images/pattern_4.png"" style=""width: 234px; height: 230px; margin-top: -50px;""><div style=""display: flex; justify-content: space-between; margin-top: 33px;""><img src=""images/choice_trial_8.png"" style=""width: 408px; height: 417px; margin-left:608px;""></div></div>","null","delaylearn","learning","display_response","60feca9223aed7b785e6018d","M6YqIoX2a1dhvpkMedN8u66N0ZY2","","","","","","","","","","","","","","","","","chosen stimuli: images/choice_trial_8.png","","","",""
"html-keyboard-response","59","116293","0.0-26.0-2.0","","null","","null","delaylearn","learning","feedback_duration_window","60feca9223aed7b785e6018d","M6YqIoX2a1dhvpkMedN8u66N0ZY2","","","","","","","","","","","","","","","","","","7000","","",""
"html-keyboard-response","60","117801","0.0-26.0-3.0","","null","<div style='margin:auto;width: auto; font-size: 150%'><span style='font-weight: bold; font-size: 100px; color: red;'>0 points!</span><br><br></div>","null","delaylearn","learning","feedback_image_window","60feca9223aed7b785e6018d","M6YqIoX2a1dhvpkMedN8u66N0ZY2","","","","","","","","","","","","","","","","","","","","",""
"html-keyboard-response","61","119519","0.0-27.0","","null","<div style=""font-size:100px;"">+</div>","null","delaylearn","learning","ITI","60feca9223aed7b785e6018d","M6YqIoX2a1dhvpkMedN8u66N0ZY2","","","","","","","","","","","","","","","","","","","1715","",""
"html-keyboard-response","62","121056","0.0-28.0-0.0","","1535.800000011921","<div style=""display: flex; flex-direction: column; align-items: center; margin-top: -40px;""><img src=""images/pattern_5.png"" style=""width: 234px; height: 230px; margin-top: -50px;""><div style=""display: flex; justify-content: space-between; margin-top: 33px;""><img src=""images/choice_trial_10.png"" style=""width: 408px; height: 417px; margin-right: 200px;""><img src=""images/choice_trial_9.png"" style=""width: 408px; height: 417px;""></div></div>","f","delaylearn","learning","trial","60feca9223aed7b785e6018d","M6YqIoX2a1dhvpkMedN8u66N0ZY2","1","images/choice_trial_10.png","images/choice_trial_9.png","images/pattern_5.png","j","j","750","10","9","4","1","12","0","0","10","80","","","","",""
"html-keyboard-response","63","122059","0.0-28.0-1.0","","null","<div style=""display: flex; flex-direction: column; align-items: center; margin-top: -40px;""><img src=""images/pattern_5.png"" style=""width: 234px; height: 230px; margin-top: -50px;""><div style=""display: flex; justify-content: space-between; margin-top: 33px;""><img src=""images/choice_trial_10.png"" style=""width: 408px; height: 417px; margin-right: 608px;""></div></div>","null","delaylearn","learning","display_response","60feca9223aed7b785e6018d","M6YqIoX2a1dhvpkMedN8u66N0ZY2","","","","","","","","","","","","","","","","","chosen stimuli: images/choice_trial_10.png","","","",""
"html-keyboard-response","64","122816","0.0-28.0-2.0","","null","","null","delaylearn","learning","feedback_duration_window","60feca9223aed7b785e6018d","M6YqIoX2a1dhvpkMedN8u66N0ZY2","","","","","","","","","","","","","","","","","","750","","",""
"html-keyboard-response","65","124319","0.0-28.0-3.0","","null","<div style='margin:auto;width: auto; font-size: 150%'><span style='font-weight: bold; font-size: 100px; color: red;'>0 points!</span><br><br></div>","null","delaylearn","learning","feedback_image_window","60feca9223aed7b785e6018d","M6YqIoX2a1dhvpkMedN8u66N0ZY2","","","","","","","","","","","","","","","","","","","","",""
"html-keyboard-response","66","125980","0.0-29.0","","null","<div style=""font-size:100px;"">+</div>","null","delaylearn","learning","ITI","60feca9223aed7b785e6018d","M6YqIoX2a1dhvpkMedN8u66N0ZY2","","","","","","","","","","","","","","","","","","","1658","",""
"html-keyboard-response","67","127332","0.0-30.0-0.0","","1348.3999999761581","<div style=""display: flex; flex-direction: column; align-items: center; margin-top: -40px;""><img src=""images/pattern_6.png"" style=""width: 234px; height: 230px; margin-top: -50px;""><div style=""display: flex; justify-content: space-between; margin-top: 33px;""><img src=""images/choice_trial_11.png"" style=""width: 408px; height: 417px; margin-right: 200px;""><img src=""images/choice_trial_12.png"" style=""width: 408px; height: 417px;""></div></div>","f","delaylearn","learning","trial","60feca9223aed7b785e6018d","M6YqIoX2a1dhvpkMedN8u66N0ZY2","1","images/choice_trial_11.png","images/choice_trial_12.png","images/pattern_6.png","j","f","750","11","12","5","0","13","1","0","11","80","","","","",""
"html-keyboard-response","68","128339","0.0-30.0-1.0","","null","<div style=""display: flex; flex-direction: column; align-items: center; margin-top: -40px;""><img src=""images/pattern_6.png"" style=""width: 234px; height: 230px; margin-top: -50px;""><div style=""display: flex; justify-content: space-between; margin-top: 33px;""><img src=""images/choice_trial_11.png"" style=""width: 408px; height: 417px; margin-right: 608px;""></div></div>","null","delaylearn","learning","display_response","60feca9223aed7b785e6018d","M6YqIoX2a1dhvpkMedN8u66N0ZY2","","","","","","","","","","","","","","","","","chosen stimuli: images/choice_trial_11.png","","","",""
"html-keyboard-response","69","129096","0.0-30.0-2.0","","null","","null","delaylearn","learning","feedback_duration_window","60feca9223aed7b785e6018d","M6YqIoX2a1dhvpkMedN8u66N0ZY2","","","","","","","","","","","","","","","","","","750","","",""
"html-keyboard-response","70","130604","0.0-30.0-3.0","","null","<div style='margin:auto;width: auto; font-size: 150%'><span style='font-weight: bold; font-size: 100px; color: red;'>0 points!</span><br><br></div>","null","delaylearn","learning","feedback_image_window","60feca9223aed7b785e6018d","M6YqIoX2a1dhvpkMedN8u66N0ZY2","","","","","","","","","","","","","","","","","","","","",""
"html-keyboard-response","71","131112","0.0-31.0-0.0","","null","","null","","","mood_trial_fixation","","","","","","","","","","","","","","","","","","","","","","",""
"lmdlab-html-vas-response","72","135251","0.0-31.0-1.0","","3128","How happy are you right now?","0.07407407407407407","delaylearn","learning","mood_trial","60feca9223aed7b785e6018d","M6YqIoX2a1dhvpkMedN8u66N0ZY2","","","","","","","","","","","","","","","","","","","","[""Very unhappy"",""Very happy""]",""
"html-keyboard-response","73","137189","0.0-32.0","","null","<div style=""font-size:100px;"">+</div>","null","delaylearn","learning","ITI","60feca9223aed7b785e6018d","M6YqIoX2a1dhvpkMedN8u66N0ZY2","","","","","","","","","","","","","","","","","","","1934","",""
"html-keyboard-response","74","138218","0.0-33.0-0.0","","1025.800000011921","<div style=""display: flex; flex-direction: column; align-items: center; margin-top: -40px;""><img src=""images/pattern_1.png"" style=""width: 234px; height: 230px; margin-top: -50px;""><div style=""display: flex; justify-content: space-between; margin-top: 33px;""><img src=""images/choice_trial_2.png"" style=""width: 408px; height: 417px; margin-right: 200px;""><img src=""images/choice_trial_1.png"" style=""width: 408px; height: 417px;""></div></div>","j","delaylearn","learning","trial","60feca9223aed7b785e6018d","M6YqIoX2a1dhvpkMedN8u66N0ZY2","1","images/choice_trial_2.png","images/choice_trial_1.png","images/pattern_1.png","j","j","7000","2","1","1","1","14","1","1","1","90","","","","",""
"html-keyboard-response","75","139224","0.0-33.0-1.0","","null","<div style=""display: flex; flex-direction: column; align-items: center; margin-top: -40px;""><img src=""images/pattern_1.png"" style=""width: 234px; height: 230px; margin-top: -50px;""><div style=""display: flex; justify-content: space-between; margin-top: 33px;""><img src=""images/choice_trial_1.png"" style=""width: 408px; height: 417px; margin-left:608px;""></div></div>","null","delaylearn","learning","display_response","60feca9223aed7b785e6018d","M6YqIoX2a1dhvpkMedN8u66N0ZY2","","","","","","","","","","","","","","","","","chosen stimuli: images/choice_trial_1.png","","","",""
"html-keyboard-response","76","146232","0.0-33.0-2.0","","null","","null","delaylearn","learning","feedback_duration_window","60feca9223aed7b785e6018d","M6YqIoX2a1dhvpkMedN8u66N0ZY2","","","","","","","","","","","","","","","","","","7000","","",""
"html-keyboard-response","77","147741","0.0-33.0-3.0","","null","<div style='margin:auto;width: auto; font-size: 150%'><span style='font-weight: bold; font-size: 100px; color: green;'>+10 points!</span><br><br></div>","null","delaylearn","learning","feedback_image_window","60feca9223aed7b785e6018d","M6YqIoX2a1dhvpkMedN8u66N0ZY2","","","","","","","","","","","","","","","","","","","","",""
"html-keyboard-response","78","150177","0.0-34.0","","null","<div style=""font-size:100px;"">+</div>","null","delaylearn","learning","ITI","60feca9223aed7b785e6018d","M6YqIoX2a1dhvpkMedN8u66N0ZY2","","","","","","","","","","","","","","","","","","","2434","",""
"html-keyboard-response","79","151314","0.0-35.0-0.0","","1124.5","<div style=""display: flex; flex-direction: column; align-items: center; margin-top: -40px;""><img src=""images/pattern_3.png"" style=""width: 234px; height: 230px; margin-top: -50px;""><div style=""display: flex; justify-content: space-between; margin-top: 33px;""><img src=""images/choice_trial_6.png"" style=""width: 408px; height: 417px; margin-right: 200px;""><img src=""images/choice_trial_5.png"" style=""width: 408px; height: 417px;""></div></div>","j","delaylearn","learning","trial","60feca9223aed7b785e6018d","M6YqIoX2a1dhvpkMedN8u66N0ZY2","1","images/choice_trial_6.png","images/choice_trial_5.png","images/pattern_3.png","f","j","7000","6","5","2","1","15","1","0","5","90","","","","",""
"html-keyboard-response","80","152319","0.0-35.0-1.0","","null","<div style=""display: flex; flex-direction: column; align-items: center; margin-top: -40px;""><img src=""images/pattern_3.png"" style=""width: 234px; height: 230px; margin-top: -50px;""><div style=""display: flex; justify-content: space-between; margin-top: 33px;""><img src=""images/choice_trial_5.png"" style=""width: 408px; height: 417px; margin-left:608px;""></div></div>","null","delaylearn","learning","display_response","60feca9223aed7b785e6018d","M6YqIoX2a1dhvpkMedN8u66N0ZY2","","","","","","","","","","","","","","","","","chosen stimuli: images/choice_trial_5.png","","","",""
"html-keyboard-response","81","159326","0.0-35.0-2.0","","null","","null","delaylearn","learning","feedback_duration_window","60feca9223aed7b785e6018d","M6YqIoX2a1dhvpkMedN8u66N0ZY2","","","","","","","","","","","","","","","","","","7000","","",""
"html-keyboard-response","82","160833","0.0-35.0-3.0","","null","<div style='margin:auto;width: auto; font-size: 150%'><span style='font-weight: bold; font-size: 100px; color: red;'>0 points!</span><br><br></div>","null","delaylearn","learning","feedback_image_window","60feca9223aed7b785e6018d","M6YqIoX2a1dhvpkMedN8u66N0ZY2","","","","","","","","","","","","","","","","","","","","",""
"html-keyboard-response","83","162354","0.0-36.0","","null","<div style=""font-size:100px;"">+</div>","null","delaylearn","learning","ITI","60feca9223aed7b785e6018d","M6YqIoX2a1dhvpkMedN8u66N0ZY2","","","","","","","","","","","","","","","","","","","1516","",""
"html-keyboard-response","84","164282","0.0-37.0-0.0","","1924","<div style=""display: flex; flex-direction: column; align-items: center; margin-top: -40px;""><img src=""images/pattern_5.png"" style=""width: 234px; height: 230px; margin-top: -50px;""><div style=""display: flex; justify-content: space-between; margin-top: 33px;""><img src=""images/choice_trial_9.png"" style=""width: 408px; height: 417px; margin-right: 200px;""><img src=""images/choice_trial_10.png"" style=""width: 408px; height: 417px;""></div></div>","f","delaylearn","learning","trial","60feca9223aed7b785e6018d","M6YqIoX2a1dhvpkMedN8u66N0ZY2","1","images/choice_trial_9.png","images/choice_trial_10.png","images/pattern_5.png","f","f","750","9","10","4","0","16","1","1","9","100","","","","",""
"html-keyboard-response","85","165289","0.0-37.0-1.0","","null","<div style=""display: flex; flex-direction: column; align-items: center; margin-top: -40px;""><img src=""images/pattern_5.png"" style=""width: 234px; height: 230px; margin-top: -50px;""><div style=""display: flex; justify-content: space-between; margin-top: 33px;""><img src=""images/choice_trial_9.png"" style=""width: 408px; height: 417px; margin-right: 608px;""></div></div>","null","delaylearn","learning","display_response","60feca9223aed7b785e6018d","M6YqIoX2a1dhvpkMedN8u66N0ZY2","","","","","","","","","","","","","","","","","chosen stimuli: images/choice_trial_9.png","","","",""
"html-keyboard-response","86","166042","0.0-37.0-2.0","","null","","null","delaylearn","learning","feedback_duration_window","60feca9223aed7b785e6018d","M6YqIoX2a1dhvpkMedN8u66N0ZY2","","","","","","","","","","","","","","","","","","750","","",""
"html-keyboard-response","87","167550","0.0-37.0-3.0","","null","<div style='margin:auto;width: auto; font-size: 150%'><span style='font-weight: bold; font-size: 100px; color: green;'>+10 points!</span><br><br></div>","null","delaylearn","learning","feedback_image_window","60feca9223aed7b785e6018d","M6YqIoX2a1dhvpkMedN8u66N0ZY2","","","","","","","","","","","","","","","","","","","","",""
"html-keyboard-response","88","168051","0.0-38.0-0.0","","null","","null","","","mood_trial_fixation","","","","","","","","","","","","","","","","","","","","","","",""
"lmdlab-html-vas-response","89","171832","0.0-38.0-1.0","","2770","How happy are you right now?","0.4148148148148148","delaylearn","learning","mood_trial","60feca9223aed7b785e6018d","M6YqIoX2a1dhvpkMedN8u66N0ZY2","","","","","","","","","","","","","","","","","","","","[""Very unhappy"",""Very happy""]",""
"html-keyboard-response","90","173701","0.0-39.0","","null","<div style=""font-size:100px;"">+</div>","null","delaylearn","learning","ITI","60feca9223aed7b785e6018d","M6YqIoX2a1dhvpkMedN8u66N0ZY2","","","","","","","","","","","","","","","","","","","1863","",""
"html-keyboard-response","91","175594","0.0-40.0-0.0","","1888.5999999642372","<div style=""display: flex; flex-direction: column; align-items: center; margin-top: -40px;""><img src=""images/pattern_6.png"" style=""width: 234px; height: 230px; margin-top: -50px;""><div style=""display: flex; justify-content: space-between; margin-top: 33px;""><img src=""images/choice_trial_11.png"" style=""width: 408px; height: 417px; margin-right: 200px;""><img src=""images/choice_trial_12.png"" style=""width: 408px; height: 417px;""></div></div>","j","delaylearn","learning","trial","60feca9223aed7b785e6018d","M6YqIoX2a1dhvpkMedN8u66N0ZY2","1","images/choice_trial_11.png","images/choice_trial_12.png","images/pattern_6.png","f","f","750","11","12","5","0","17","0","0","12","100","","","","",""
"html-keyboard-response","92","176601","0.0-40.0-1.0","","null","<div style=""display: flex; flex-direction: column; align-items: center; margin-top: -40px;""><img src=""images/pattern_6.png"" style=""width: 234px; height: 230px; margin-top: -50px;""><div style=""display: flex; justify-content: space-between; margin-top: 33px;""><img src=""images/choice_trial_12.png"" style=""width: 408px; height: 417px; margin-left:608px;""></div></div>","null","delaylearn","learning","display_response","60feca9223aed7b785e6018d","M6YqIoX2a1dhvpkMedN8u66N0ZY2","","","","","","","","","","","","","","","","","chosen stimuli: images/choice_trial_12.png","","","",""
"html-keyboard-response","93","177356","0.0-40.0-2.0","","null","","null","delaylearn","learning","feedback_duration_window","60feca9223aed7b785e6018d","M6YqIoX2a1dhvpkMedN8u66N0ZY2","","","","","","","","","","","","","","","","","","750","","",""
"html-keyboard-response","94","178864","0.0-40.0-3.0","","null","<div style='margin:auto;width: auto; font-size: 150%'><span style='font-weight: bold; font-size: 100px; color: red;'>0 points!</span><br><br></div>","null","delaylearn","learning","feedback_image_window","60feca9223aed7b785e6018d","M6YqIoX2a1dhvpkMedN8u66N0ZY2","","","","","","","","","","","","","","","","","","","","",""
"html-keyboard-response","95","180656","0.0-41.0","","null","<div style=""font-size:100px;"">+</div>","null","delaylearn","learning","ITI","60feca9223aed7b785e6018d","M6YqIoX2a1dhvpkMedN8u66N0ZY2","","","","","","","","","","","","","","","","","","","1788","",""
"html-keyboard-response","96","183284","0.0-42.0-0.0","","2624.2999999523163","<div style=""display: flex; flex-direction: column; align-items: center; margin-top: -40px;""><img src=""images/pattern_4.png"" style=""width: 234px; height: 230px; margin-top: -50px;""><div style=""display: flex; justify-content: space-between; margin-top: 33px;""><img src=""images/choice_trial_8.png"" style=""width: 408px; height: 417px; margin-right: 200px;""><img src=""images/choice_trial_7.png"" style=""width: 408px; height: 417px;""></div></div>","j","delaylearn","learning","trial","60feca9223aed7b785e6018d","M6YqIoX2a1dhvpkMedN8u66N0ZY2","1","images/choice_trial_8.png","images/choice_trial_7.png","images/pattern_4.png","j","j","7000","8","7","3","1","18","1","1","7","110","","","","",""
"html-keyboard-response","97","184292","0.0-42.0-1.0","","null","<div style=""display: flex; flex-direction: column; align-items: center; margin-top: -40px;""><img src=""images/pattern_4.png"" style=""width: 234px; height: 230px; margin-top: -50px;""><div style=""display: flex; justify-content: space-between; margin-top: 33px;""><img src=""images/choice_trial_7.png"" style=""width: 408px; height: 417px; margin-left:608px;""></div></div>","null","delaylearn","learning","display_response","60feca9223aed7b785e6018d","M6YqIoX2a1dhvpkMedN8u66N0ZY2","","","","","","","","","","","","","","","","","chosen stimuli: images/choice_trial_7.png","","","",""
"html-keyboard-response","98","191299","0.0-42.0-2.0","","null","","null","delaylearn","learning","feedback_duration_window","60feca9223aed7b785e6018d","M6YqIoX2a1dhvpkMedN8u66N0ZY2","","","","","","","","","","","","","","","","","","7000","","",""
"html-keyboard-response","99","192807","0.0-42.0-3.0","","null","<div style='margin:auto;width: auto; font-size: 150%'><span style='font-weight: bold; font-size: 100px; color: green;'>+10 points!</span><br><br></div>","null","delaylearn","learning","feedback_image_window","60feca9223aed7b785e6018d","M6YqIoX2a1dhvpkMedN8u66N0ZY2","","","","","","","","","","","","","","","","","","","","",""
"html-keyboard-response","100","194387","0.0-43.0","","null","<div style=""font-size:100px;"">+</div>","null","delaylearn","learning","ITI","60feca9223aed7b785e6018d","M6YqIoX2a1dhvpkMedN8u66N0ZY2","","","","","","","","","","","","","","","","","","","1574","",""
"html-keyboard-response","101","195604","0.0-44.0-0.0","","1213.699999988079","<div style=""display: flex; flex-direction: column; align-items: center; margin-top: -40px;""><img src=""images/pattern_7.png"" style=""width: 234px; height: 230px; margin-top: -50px;""><div style=""display: flex; justify-content: space-between; margin-top: 33px;""><img src=""images/choice_trial_13.png"" style=""width: 408px; height: 417px; margin-right: 200px;""><img src=""images/choice_trial_14.png"" style=""width: 408px; height: 417px;""></div></div>","f","delaylearn","learning","trial","60feca9223aed7b785e6018d","M6YqIoX2a1dhvpkMedN8u66N0ZY2","1","images/choice_trial_13.png","images/choice_trial_14.png","images/pattern_7.png","j","f","750","13","14","6","0","19","1","0","13","110","","","","",""
"html-keyboard-response","102","196613","0.0-44.0-1.0","","null","<div style=""display: flex; flex-direction: column; align-items: center; margin-top: -40px;""><img src=""images/pattern_7.png"" style=""width: 234px; height: 230px; margin-top: -50px;""><div style=""display: flex; justify-content: space-between; margin-top: 33px;""><img src=""images/choice_trial_13.png"" style=""width: 408px; height: 417px; margin-right: 608px;""></div></div>","null","delaylearn","learning","display_response","60feca9223aed7b785e6018d","M6YqIoX2a1dhvpkMedN8u66N0ZY2","","","","","","","","","","","","","","","","","chosen stimuli: images/choice_trial_13.png","","","",""
"html-keyboard-response","103","197370","0.0-44.0-2.0","","null","","null","delaylearn","learning","feedback_duration_window","60feca9223aed7b785e6018d","M6YqIoX2a1dhvpkMedN8u66N0ZY2","","","","","","","","","","","","","","","","","","750","","",""
"html-keyboard-response","104","198873","0.0-44.0-3.0","","null","<div style='margin:auto;width: auto; font-size: 150%'><span style='font-weight: bold; font-size: 100px; color: red;'>0 points!</span><br><br></div>","null","delaylearn","learning","feedback_image_window","60feca9223aed7b785e6018d","M6YqIoX2a1dhvpkMedN8u66N0ZY2","","","","","","","","","","","","","","","","","","","","",""
"html-keyboard-response","105","200473","0.0-45.0","","null","<div style=""font-size:100px;"">+</div>","null","delaylearn","learning","ITI","60feca9223aed7b785e6018d","M6YqIoX2a1dhvpkMedN8u66N0ZY2","","","","","","","","","","","","","","","","","","","1593","",""
"html-keyboard-response","106","202255","0.0-46.0-0.0","","1778.300000011921","<div style=""display: flex; flex-direction: column; align-items: center; margin-top: -40px;""><img src=""images/pattern_1.png"" style=""width: 234px; height: 230px; margin-top: -50px;""><div style=""display: flex; justify-content: space-between; margin-top: 33px;""><img src=""images/choice_trial_1.png"" style=""width: 408px; height: 417px; margin-right: 200px;""><img src=""images/choice_trial_2.png"" style=""width: 408px; height: 417px;""></div></div>","j","delaylearn","learning","trial","60feca9223aed7b785e6018d","M6YqIoX2a1dhvpkMedN8u66N0ZY2","1","images/choice_trial_1.png","images/choice_trial_2.png","images/pattern_1.png","f","f","7000","1","2","1","0","20","0","0","2","110","","","","",""
"html-keyboard-response","107","203259","0.0-46.0-1.0","","null","<div style=""display: flex; flex-direction: column; align-items: center; margin-top: -40px;""><img src=""images/pattern_1.png"" style=""width: 234px; height: 230px; margin-top: -50px;""><div style=""display: flex; justify-content: space-between; margin-top: 33px;""><img src=""images/choice_trial_2.png"" style=""width: 408px; height: 417px; margin-left:608px;""></div></div>","null","delaylearn","learning","display_response","60feca9223aed7b785e6018d","M6YqIoX2a1dhvpkMedN8u66N0ZY2","","","","","","","","","","","","","","","","","chosen stimuli: images/choice_trial_2.png","","","",""
"html-keyboard-response","108","210264","0.0-46.0-2.0","","null","","null","delaylearn","learning","feedback_duration_window","60feca9223aed7b785e6018d","M6YqIoX2a1dhvpkMedN8u66N0ZY2","","","","","","","","","","","","","","","","","","7000","","",""
"html-keyboard-response","109","211772","0.0-46.0-3.0","","null","<div style='margin:auto;width: auto; font-size: 150%'><span style='font-weight: bold; font-size: 100px; color: red;'>0 points!</span><br><br></div>","null","delaylearn","learning","feedback_image_window","60feca9223aed7b785e6018d","M6YqIoX2a1dhvpkMedN8u66N0ZY2","","","","","","","","","","","","","","","","","","","","",""
"html-keyboard-response","110","213435","0.0-47.0","","null","<div style=""font-size:100px;"">+</div>","null","delaylearn","learning","ITI","60feca9223aed7b785e6018d","M6YqIoX2a1dhvpkMedN8u66N0ZY2","","","","","","","","","","","","","","","","","","","1656","",""
"html-keyboard-response","111","215578","0.0-48.0-0.0","","2140.399999976158","<div style=""display: flex; flex-direction: column; align-items: center; margin-top: -40px;""><img src=""images/pattern_6.png"" style=""width: 234px; height: 230px; margin-top: -50px;""><div style=""display: flex; justify-content: space-between; margin-top: 33px;""><img src=""images/choice_trial_12.png"" style=""width: 408px; height: 417px; margin-right: 200px;""><img src=""images/choice_trial_11.png"" style=""width: 408px; height: 417px;""></div></div>","j","delaylearn","learning","trial","60feca9223aed7b785e6018d","M6YqIoX2a1dhvpkMedN8u66N0ZY2","1","images/choice_trial_12.png","images/choice_trial_11.png","images/pattern_6.png","j","j","750","12","11","5","1","21","1","1","11","120","","","","",""
"html-keyboard-response","112","216585","0.0-48.0-1.0","","null","<div style=""display: flex; flex-direction: column; align-items: center; margin-top: -40px;""><img src=""images/pattern_6.png"" style=""width: 234px; height: 230px; margin-top: -50px;""><div style=""display: flex; justify-content: space-between; margin-top: 33px;""><img src=""images/choice_trial_11.png"" style=""width: 408px; height: 417px; margin-left:608px;""></div></div>","null","delaylearn","learning","display_response","60feca9223aed7b785e6018d","M6YqIoX2a1dhvpkMedN8u66N0ZY2","","","","","","","","","","","","","","","","","chosen stimuli: images/choice_trial_11.png","","","",""
"html-keyboard-response","113","217338","0.0-48.0-2.0","","null","","null","delaylearn","learning","feedback_duration_window","60feca9223aed7b785e6018d","M6YqIoX2a1dhvpkMedN8u66N0ZY2","","","","","","","","","","","","","","","","","","750","","",""
"html-keyboard-response","114","218844","0.0-48.0-3.0","","null","<div style='margin:auto;width: auto; font-size: 150%'><span style='font-weight: bold; font-size: 100px; color: green;'>+10 points!</span><br><br></div>","null","delaylearn","learning","feedback_image_window","60feca9223aed7b785e6018d","M6YqIoX2a1dhvpkMedN8u66N0ZY2","","","","","","","","","","","","","","","","","","","","",""
"html-keyboard-response","115","220714","0.0-49.0","","null","<div style=""font-size:100px;"">+</div>","null","delaylearn","learning","ITI","60feca9223aed7b785e6018d","M6YqIoX2a1dhvpkMedN8u66N0ZY2","","","","","","","","","","","","","","","","","","","1864","",""
"html-keyboard-response","116","222860","0.0-50.0-0.0","","2142.599999964237","<div style=""display: flex; flex-direction: column; align-items: center; margin-top: -40px;""><img src=""images/pattern_4.png"" style=""width: 234px; height: 230px; margin-top: -50px;""><div style=""display: flex; justify-content: space-between; margin-top: 33px;""><img src=""images/choice_trial_7.png"" style=""width: 408px; height: 417px; margin-right: 200px;""><img src=""images/choice_trial_8.png"" style=""width: 408px; height: 417px;""></div></div>","f","delaylearn","learning","trial","60feca9223aed7b785e6018d","M6YqIoX2a1dhvpkMedN8u66N0ZY2","1","images/choice_trial_7.png","images/choice_trial_8.png","images/pattern_4.png","f","f","7000","7","8","3","0","22","1","1","7","130","","","","",""
"html-keyboard-response","117","223868","0.0-50.0-1.0","","null","<div style=""display: flex; flex-direction: column; align-items: center; margin-top: -40px;""><img src=""images/pattern_4.png"" style=""width: 234px; height: 230px; margin-top: -50px;""><div style=""display: flex; justify-content: space-between; margin-top: 33px;""><img src=""images/choice_trial_7.png"" style=""width: 408px; height: 417px; margin-right: 608px;""></div></div>","null","delaylearn","learning","display_response","60feca9223aed7b785e6018d","M6YqIoX2a1dhvpkMedN8u66N0ZY2","","","","","","","","","","","","","","","","","chosen stimuli: images/choice_trial_7.png","","","",""
"html-keyboard-response","118","230874","0.0-50.0-2.0","","null","","null","delaylearn","learning","feedback_duration_window","60feca9223aed7b785e6018d","M6YqIoX2a1dhvpkMedN8u66N0ZY2","","","","","","","","","","","","","","","","","","7000","","",""
"html-keyboard-response","119","232383","0.0-50.0-3.0","","null","<div style='margin:auto;width: auto; font-size: 150%'><span style='font-weight: bold; font-size: 100px; color: green;'>+10 points!</span><br><br></div>","null","delaylearn","learning","feedback_image_window","60feca9223aed7b785e6018d","M6YqIoX2a1dhvpkMedN8u66N0ZY2","","","","","","","","","","","","","","","","","","","","",""
"html-keyboard-response","120","232886","0.0-51.0-0.0","","null","","null","","","mood_trial_fixation","","","","","","","","","","","","","","","","","","","","","","",""
"lmdlab-html-vas-response","121","236567","0.0-51.0-1.0","","2669","How happy are you right now?","0.5685185185185185","delaylearn","learning","mood_trial","60feca9223aed7b785e6018d","M6YqIoX2a1dhvpkMedN8u66N0ZY2","","","","","","","","","","","","","","","","","","","","[""Very unhappy"",""Very happy""]",""
"html-keyboard-response","122","238912","0.0-52.0","","null","<div style=""font-size:100px;"">+</div>","null","delaylearn","learning","ITI","60feca9223aed7b785e6018d","M6YqIoX2a1dhvpkMedN8u66N0ZY2","","","","","","","","","","","","","","","","","","","2340","",""
"html-keyboard-response","123","240737","0.0-53.0-0.0","","1822.0999999642372","<div style=""display: flex; flex-direction: column; align-items: center; margin-top: -40px;""><img src=""images/pattern_7.png"" style=""width: 234px; height: 230px; margin-top: -50px;""><div style=""display: flex; justify-content: space-between; margin-top: 33px;""><img src=""images/choice_trial_14.png"" style=""width: 408px; height: 417px; margin-right: 200px;""><img src=""images/choice_trial_13.png"" style=""width: 408px; height: 417px;""></div></div>","j","delaylearn","learning","trial","60feca9223aed7b785e6018d","M6YqIoX2a1dhvpkMedN8u66N0ZY2","1","images/choice_trial_14.png","images/choice_trial_13.png","images/pattern_7.png","j","j","750","14","13","6","1","23","1","1","13","140","","","","",""
"html-keyboard-response","124","241742","0.0-53.0-1.0","","null","<div style=""display: flex; flex-direction: column; align-items: center; margin-top: -40px;""><img src=""images/pattern_7.png"" style=""width: 234px; height: 230px; margin-top: -50px;""><div style=""display: flex; justify-content: space-between; margin-top: 33px;""><img src=""images/choice_trial_13.png"" style=""width: 408px; height: 417px; margin-left:608px;""></div></div>","null","delaylearn","learning","display_response","60feca9223aed7b785e6018d","M6YqIoX2a1dhvpkMedN8u66N0ZY2","","","","","","","","","","","","","","","","","chosen stimuli: images/choice_trial_13.png","","","",""
"html-keyboard-response","125","242499","0.0-53.0-2.0","","null","","null","delaylearn","learning","feedback_duration_window","60feca9223aed7b785e6018d","M6YqIoX2a1dhvpkMedN8u66N0ZY2","","","","","","","","","","","","","","","","","","750","","",""
"html-keyboard-response","126","244006","0.0-53.0-3.0","","null","<div style='margin:auto;width: auto; font-size: 150%'><span style='font-weight: bold; font-size: 100px; color: green;'>+10 points!</span><br><br></div>","null","delaylearn","learning","feedback_image_window","60feca9223aed7b785e6018d","M6YqIoX2a1dhvpkMedN8u66N0ZY2","","","","","","","","","","","","","","","","","","","","",""
"html-keyboard-response","127","246306","0.0-54.0","","null","<div style=""font-size:100px;"">+</div>","null","delaylearn","learning","ITI","60feca9223aed7b785e6018d","M6YqIoX2a1dhvpkMedN8u66N0ZY2","","","","","","","","","","","","","","","","","","","2294","",""
"html-keyboard-response","128","248065","0.0-55.0-0.0","","1755.5","<div style=""display: flex; flex-direction: column; align-items: center; margin-top: -40px;""><img src=""images/pattern_1.png"" style=""width: 234px; height: 230px; margin-top: -50px;""><div style=""display: flex; justify-content: space-between; margin-top: 33px;""><img src=""images/choice_trial_2.png"" style=""width: 408px; height: 417px; margin-right: 200px;""><img src=""images/choice_trial_1.png"" style=""width: 408px; height: 417px;""></div></div>","f","delaylearn","learning","trial","60feca9223aed7b785e6018d","M6YqIoX2a1dhvpkMedN8u66N0ZY2","1","images/choice_trial_2.png","images/choice_trial_1.png","images/pattern_1.png","f","j","7000","2","1","1","1","24","0","1","2","150","","","","",""
"html-keyboard-response","129","249071","0.0-55.0-1.0","","null","<div style=""display: flex; flex-direction: column; align-items: center; margin-top: -40px;""><img src=""images/pattern_1.png"" style=""width: 234px; height: 230px; margin-top: -50px;""><div style=""display: flex; justify-content: space-between; margin-top: 33px;""><img src=""images/choice_trial_2.png"" style=""width: 408px; height: 417px; margin-right: 608px;""></div></div>","null","delaylearn","learning","display_response","60feca9223aed7b785e6018d","M6YqIoX2a1dhvpkMedN8u66N0ZY2","","","","","","","","","","","","","","","","","chosen stimuli: images/choice_trial_2.png","","","",""
"html-keyboard-response","130","256078","0.0-55.0-2.0","","null","","null","delaylearn","learning","feedback_duration_window","60feca9223aed7b785e6018d","M6YqIoX2a1dhvpkMedN8u66N0ZY2","","","","","","","","","","","","","","","","","","7000","","",""
"html-keyboard-response","131","257587","0.0-55.0-3.0","","null","<div style='margin:auto;width: auto; font-size: 150%'><span style='font-weight: bold; font-size: 100px; color: green;'>+10 points!</span><br><br></div>","null","delaylearn","learning","feedback_image_window","60feca9223aed7b785e6018d","M6YqIoX2a1dhvpkMedN8u66N0ZY2","","","","","","","","","","","","","","","","","","","","",""
"html-keyboard-response","132","260026","0.0-56.0","","null","<div style=""font-size:100px;"">+</div>","null","delaylearn","learning","ITI","60feca9223aed7b785e6018d","M6YqIoX2a1dhvpkMedN8u66N0ZY2","","","","","","","","","","","","","","","","","","","2432","",""
"html-keyboard-response","133","262277","0.0-57.0-0.0","","2246.7999999523163","<div style=""display: flex; flex-direction: column; align-items: center; margin-top: -40px;""><img src=""images/pattern_5.png"" style=""width: 234px; height: 230px; margin-top: -50px;""><div style=""display: flex; justify-content: space-between; margin-top: 33px;""><img src=""images/choice_trial_10.png"" style=""width: 408px; height: 417px; margin-right: 200px;""><img src=""images/choice_trial_9.png"" style=""width: 408px; height: 417px;""></div></div>","j","delaylearn","learning","trial","60feca9223aed7b785e6018d","M6YqIoX2a1dhvpkMedN8u66N0ZY2","1","images/choice_trial_10.png","images/choice_trial_9.png","images/pattern_5.png","j","j","750","10","9","4","1","25","1","1","9","160","","","","",""
"html-keyboard-response","134","263284","0.0-57.0-1.0","","null","<div style=""display: flex; flex-direction: column; align-items: center; margin-top: -40px;""><img src=""images/pattern_5.png"" style=""width: 234px; height: 230px; margin-top: -50px;""><div style=""display: flex; justify-content: space-between; margin-top: 33px;""><img src=""images/choice_trial_9.png"" style=""width: 408px; height: 417px; margin-left:608px;""></div></div>","null","delaylearn","learning","display_response","60feca9223aed7b785e6018d","M6YqIoX2a1dhvpkMedN8u66N0ZY2","","","","","","","","","","","","","","","","","chosen stimuli: images/choice_trial_9.png","","","",""
"html-keyboard-response","135","264040","0.0-57.0-2.0","","null","","null","delaylearn","learning","feedback_duration_window","60feca9223aed7b785e6018d","M6YqIoX2a1dhvpkMedN8u66N0ZY2","","","","","","","","","","","","","","","","","","750","","",""
"html-keyboard-response","136","265547","0.0-57.0-3.0","","null","<div style='margin:auto;width: auto; font-size: 150%'><span style='font-weight: bold; font-size: 100px; color: green;'>+10 points!</span><br><br></div>","null","delaylearn","learning","feedback_image_window","60feca9223aed7b785e6018d","M6YqIoX2a1dhvpkMedN8u66N0ZY2","","","","","","","","","","","","","","","","","","","","",""
"html-keyboard-response","137","267306","0.0-58.0","","null","<div style=""font-size:100px;"">+</div>","null","delaylearn","learning","ITI","60feca9223aed7b785e6018d","M6YqIoX2a1dhvpkMedN8u66N0ZY2","","","","","","","","","","","","","","","","","","","1756","",""
"html-keyboard-response","138","268622","0.0-59.0-0.0","","1312.199999988079","<div style=""display: flex; flex-direction: column; align-items: center; margin-top: -40px;""><img src=""images/pattern_3.png"" style=""width: 234px; height: 230px; margin-top: -50px;""><div style=""display: flex; justify-content: space-between; margin-top: 33px;""><img src=""images/choice_trial_6.png"" style=""width: 408px; height: 417px; margin-right: 200px;""><img src=""images/choice_trial_5.png"" style=""width: 408px; height: 417px;""></div></div>","j","delaylearn","learning","trial","60feca9223aed7b785e6018d","M6YqIoX2a1dhvpkMedN8u66N0ZY2","1","images/choice_trial_6.png","images/choice_trial_5.png","images/pattern_3.png","j","j","7000","6","5","2","1","26","1","1","5","170","","","","",""
"html-keyboard-response","139","269630","0.0-59.0-1.0","","null","<div style=""display: flex; flex-direction: column; align-items: center; margin-top: -40px;""><img src=""images/pattern_3.png"" style=""width: 234px; height: 230px; margin-top: -50px;""><div style=""display: flex; justify-content: space-between; margin-top: 33px;""><img src=""images/choice_trial_5.png"" style=""width: 408px; height: 417px; margin-left:608px;""></div></div>","null","delaylearn","learning","display_response","60feca9223aed7b785e6018d","M6YqIoX2a1dhvpkMedN8u66N0ZY2","","","","","","","","","","","","","","","","","chosen stimuli: images/choice_trial_5.png","","","",""
"html-keyboard-response","140","276635","0.0-59.0-2.0","","null","","null","delaylearn","learning","feedback_duration_window","60feca9223aed7b785e6018d","M6YqIoX2a1dhvpkMedN8u66N0ZY2","","","","","","","","","","","","","","","","","","7000","","",""
"html-keyboard-response","141","278145","0.0-59.0-3.0","","null","<div style='margin:auto;width: auto; font-size: 150%'><span style='font-weight: bold; font-size: 100px; color: green;'>+10 points!</span><br><br></div>","null","delaylearn","learning","feedback_image_window","60feca9223aed7b785e6018d","M6YqIoX2a1dhvpkMedN8u66N0ZY2","","","","","","","","","","","","","","","","","","","","",""
"lmdlab-html-vas-response","142","285019","0.0-60.0-0.0","","5360","*How <b><u>confident</u></b> are you feeling about your answers at this moment?*","0.5370370370370371","rewlearn","rate_confidence","","60feca9223aed7b785e6018d","M6YqIoX2a1dhvpkMedN8u66N0ZY2","","","","","","","","","","","","","","","","","","","","[""No confidence"",""Complete confidence""]",""
"lmdlab-rest-trial-limit","143","290676","0.0-60.0-1.0","","4147.399999976158","<div style=""font-size:40px;""><b>Please take a break!</b><br><br><br><br><p>Great work: you earned 170 points.<br><br><br><p>You have completed part(s) 1 of 5.<br><br><br><br>When you are ready to continue<br><br><br>please click the button.</p><br><br>","0","delaylearn","learning","break","60feca9223aed7b785e6018d","M6YqIoX2a1dhvpkMedN8u66N0ZY2","","","","","","","","","","","","","","","","","","","","","0"
"html-keyboard-response","144","293684","0.0-60.0-2.0","","null","<div style=""font-size:100px;"">+</div>","null","delaylearn","learning","pre_fixation","60feca9223aed7b785e6018d","","","","","","","","","","","","","","","","","","","","","",""
"lmdlab-html-vas-response","145","297832","0.0-60.0-3.0-0.0","","3142","How happy are you right now?","0.46296296296296297","delaylearn","learning","mood_baseline","60feca9223aed7b785e6018d","M6YqIoX2a1dhvpkMedN8u66N0ZY2","","","","","","","","","","","","","","","","","","","","[""Very unhappy"",""Very happy""]",""
"html-keyboard-response","146","299337","0.0-60.0-3.0-1.0","","null","","null","","","mood_baseline_fixation","","","","","","","","","","","","","","","","","","","","","","",""
"html-keyboard-response","147","301001","0.0-61.0","","null","<div style=""font-size:100px;"">+</div>","null","delaylearn","learning","ITI","60feca9223aed7b785e6018d","M6YqIoX2a1dhvpkMedN8u66N0ZY2","","","","","","","","","","","","","","","","","","","1657","",""
"html-keyboard-response","148","302079","0.0-62.0-0.0","","1073.5","<div style=""display: flex; flex-direction: column; align-items: center; margin-top: -40px;""><img src=""images/pattern_7.png"" style=""width: 234px; height: 230px; margin-top: -50px;""><div style=""display: flex; justify-content: space-between; margin-top: 33px;""><img src=""images/choice_trial_14.png"" style=""width: 408px; height: 417px; margin-right: 200px;""><img src=""images/choice_trial_13.png"" style=""width: 408px; height: 417px;""></div></div>","j","delaylearn","learning","trial","60feca9223aed7b785e6018d","M6YqIoX2a1dhvpkMedN8u66N0ZY2","1","images/choice_trial_14.png","images/choice_trial_13.png","images/pattern_7.png","j","j","750","14","13","6","1","27","1","1","13","180","","","","",""
"html-keyboard-response","149","303087","0.0-62.0-1.0","","null","<div style=""display: flex; flex-direction: column; align-items: center; margin-top: -40px;""><img src=""images/pattern_7.png"" style=""width: 234px; height: 230px; margin-top: -50px;""><div style=""display: flex; justify-content: space-between; margin-top: 33px;""><img src=""images/choice_trial_13.png"" style=""width: 408px; height: 417px; margin-left:608px;""></div></div>","null","delaylearn","learning","display_response","60feca9223aed7b785e6018d","M6YqIoX2a1dhvpkMedN8u66N0ZY2","","","","","","","","","","","","","","","","","chosen stimuli: images/choice_trial_13.png","","","",""
"html-keyboard-response","150","303839","0.0-62.0-2.0","","null","","null","delaylearn","learning","feedback_duration_window","60feca9223aed7b785e6018d","M6YqIoX2a1dhvpkMedN8u66N0ZY2","","","","","","","","","","","","","","","","","","750","","",""
"html-keyboard-response","151","305342","0.0-62.0-3.0","","null","<div style='margin:auto;width: auto; font-size: 150%'><span style='font-weight: bold; font-size: 100px; color: green;'>+10 points!</span><br><br></div>","null","delaylearn","learning","feedback_image_window","60feca9223aed7b785e6018d","M6YqIoX2a1dhvpkMedN8u66N0ZY2","","","","","","","","","","","","","","","","","","","","",""
"html-keyboard-response","152","305848","0.0-63.0-0.0","","null","","null","","","mood_trial_fixation","","","","","","","","","","","","","","","","","","","","","","",""
"lmdlab-html-vas-response","153","309299","0.0-63.0-1.0","","2443","How happy are you right now?","0.5092592592592593","delaylearn","learning","mood_trial","60feca9223aed7b785e6018d","M6YqIoX2a1dhvpkMedN8u66N0ZY2","","","","","","","","","","","","","","","","","","","","[""Very unhappy"",""Very happy""]",""
"html-keyboard-response","154","311653","0.0-64.0","","null","<div style=""font-size:100px;"">+</div>","null","delaylearn","learning","ITI","60feca9223aed7b785e6018d","M6YqIoX2a1dhvpkMedN8u66N0ZY2","","","","","","","","","","","","","","","","","","","2347","",""
"html-keyboard-response","155","313291","0.0-65.0-0.0","","1634.300000011921","<div style=""display: flex; flex-direction: column; align-items: center; margin-top: -40px;""><img src=""images/pattern_1.png"" style=""width: 234px; height: 230px; margin-top: -50px;""><div style=""display: flex; justify-content: space-between; margin-top: 33px;""><img src=""images/choice_trial_1.png"" style=""width: 408px; height: 417px; margin-right: 200px;""><img src=""images/choice_trial_2.png"" style=""width: 408px; height: 417px;""></div></div>","j","delaylearn","learning","trial","60feca9223aed7b785e6018d","M6YqIoX2a1dhvpkMedN8u66N0ZY2","1","images/choice_trial_1.png","images/choice_trial_2.png","images/pattern_1.png","f","f","7000","1","2","1","0","28","0","0","2","180","","","","",""
"html-keyboard-response","156","314300","0.0-65.0-1.0","","null","<div style=""display: flex; flex-direction: column; align-items: center; margin-top: -40px;""><img src=""images/pattern_1.png"" style=""width: 234px; height: 230px; margin-top: -50px;""><div style=""display: flex; justify-content: space-between; margin-top: 33px;""><img src=""images/choice_trial_2.png"" style=""width: 408px; height: 417px; margin-left:608px;""></div></div>","null","delaylearn","learning","display_response","60feca9223aed7b785e6018d","M6YqIoX2a1dhvpkMedN8u66N0ZY2","","","","","","","","","","","","","","","","","chosen stimuli: images/choice_trial_2.png","","","",""
"html-keyboard-response","157","321307","0.0-65.0-2.0","","null","","null","delaylearn","learning","feedback_duration_window","60feca9223aed7b785e6018d","M6YqIoX2a1dhvpkMedN8u66N0ZY2","","","","","","","","","","","","","","","","","","7000","","",""
"html-keyboard-response","158","322815","0.0-65.0-3.0","","null","<div style='margin:auto;width: auto; font-size: 150%'><span style='font-weight: bold; font-size: 100px; color: red;'>0 points!</span><br><br></div>","null","delaylearn","learning","feedback_image_window","60feca9223aed7b785e6018d","M6YqIoX2a1dhvpkMedN8u66N0ZY2","","","","","","","","","","","","","","","","","","","","",""
"html-keyboard-response","159","325204","0.0-66.0","","null","<div style=""font-size:100px;"">+</div>","null","delaylearn","learning","ITI","60feca9223aed7b785e6018d","M6YqIoX2a1dhvpkMedN8u66N0ZY2","","","","","","","","","","","","","","","","","","","2386","",""
"html-keyboard-response","160","326242","0.0-67.0-0.0","","1032.699999988079","<div style=""display: flex; flex-direction: column; align-items: center; margin-top: -40px;""><img src=""images/pattern_5.png"" style=""width: 234px; height: 230px; margin-top: -50px;""><div style=""display: flex; justify-content: space-between; margin-top: 33px;""><img src=""images/choice_trial_9.png"" style=""width: 408px; height: 417px; margin-right: 200px;""><img src=""images/choice_trial_10.png"" style=""width: 408px; height: 417px;""></div></div>","f","delaylearn","learning","trial","60feca9223aed7b785e6018d","M6YqIoX2a1dhvpkMedN8u66N0ZY2","1","images/choice_trial_9.png","images/choice_trial_10.png","images/pattern_5.png","f","f","750","9","10","4","0","29","1","1","9","190","","","","",""
"html-keyboard-response","161","327247","0.0-67.0-1.0","","null","<div style=""display: flex; flex-direction: column; align-items: center; margin-top: -40px;""><img src=""images/pattern_5.png"" style=""width: 234px; height: 230px; margin-top: -50px;""><div style=""display: flex; justify-content: space-between; margin-top: 33px;""><img src=""images/choice_trial_9.png"" style=""width: 408px; height: 417px; margin-right: 608px;""></div></div>","null","delaylearn","learning","display_response","60feca9223aed7b785e6018d","M6YqIoX2a1dhvpkMedN8u66N0ZY2","","","","","","","","","","","","","","","","","chosen stimuli: images/choice_trial_9.png","","","",""
"html-keyboard-response","162","328001","0.0-67.0-2.0","","null","","null","delaylearn","learning","feedback_duration_window","60feca9223aed7b785e6018d","M6YqIoX2a1dhvpkMedN8u66N0ZY2","","","","","","","","","","","","","","","","","","750","","",""
"html-keyboard-response","163","329509","0.0-67.0-3.0","","null","<div style='margin:auto;width: auto; font-size: 150%'><span style='font-weight: bold; font-size: 100px; color: green;'>+10 points!</span><br><br></div>","null","delaylearn","learning","feedback_image_window","60feca9223aed7b785e6018d","M6YqIoX2a1dhvpkMedN8u66N0ZY2","","","","","","","","","","","","","","","","","","","","",""
"html-keyboard-response","164","331118","0.0-68.0","","null","<div style=""font-size:100px;"">+</div>","null","delaylearn","learning","ITI","60feca9223aed7b785e6018d","M6YqIoX2a1dhvpkMedN8u66N0ZY2","","","","","","","","","","","","","","","","","","","1602","",""
"html-keyboard-response","165","332117","0.0-69.0-0.0","","994.5","<div style=""display: flex; flex-direction: column; align-items: center; margin-top: -40px;""><img src=""images/pattern_6.png"" style=""width: 234px; height: 230px; margin-top: -50px;""><div style=""display: flex; justify-content: space-between; margin-top: 33px;""><img src=""images/choice_trial_12.png"" style=""width: 408px; height: 417px; margin-right: 200px;""><img src=""images/choice_trial_11.png"" style=""width: 408px; height: 417px;""></div></div>","j","delaylearn","learning","trial","60feca9223aed7b785e6018d","M6YqIoX2a1dhvpkMedN8u66N0ZY2","1","images/choice_trial_12.png","images/choice_trial_11.png","images/pattern_6.png","j","j","750","12","11","5","1","30","1","1","11","200","","","","",""
"html-keyboard-response","166","333125","0.0-69.0-1.0","","null","<div style=""display: flex; flex-direction: column; align-items: center; margin-top: -40px;""><img src=""images/pattern_6.png"" style=""width: 234px; height: 230px; margin-top: -50px;""><div style=""display: flex; justify-content: space-between; margin-top: 33px;""><img src=""images/choice_trial_11.png"" style=""width: 408px; height: 417px; margin-left:608px;""></div></div>","null","delaylearn","learning","display_response","60feca9223aed7b785e6018d","M6YqIoX2a1dhvpkMedN8u66N0ZY2","","","","","","","","","","","","","","","","","chosen stimuli: images/choice_trial_11.png","","","",""
"html-keyboard-response","167","333877","0.0-69.0-2.0","","null","","null","delaylearn","learning","feedback_duration_window","60feca9223aed7b785e6018d","M6YqIoX2a1dhvpkMedN8u66N0ZY2","","","","","","","","","","","","","","","","","","750","","",""
"html-keyboard-response","168","335385","0.0-69.0-3.0","","null","<div style='margin:auto;width: auto; font-size: 150%'><span style='font-weight: bold; font-size: 100px; color: green;'>+10 points!</span><br><br></div>","null","delaylearn","learning","feedback_image_window","60feca9223aed7b785e6018d","M6YqIoX2a1dhvpkMedN8u66N0ZY2","","","","","","","","","","","","","","","","","","","","",""
"html-keyboard-response","169","335886","0.0-70.0-0.0","","null","","null","","","mood_trial_fixation","","","","","","","","","","","","","","","","","","","","","","",""
"lmdlab-html-vas-response","170","339717","0.0-70.0-1.0","","2818","How happy are you right now?","0.5092592592592593","delaylearn","learning","mood_trial","60feca9223aed7b785e6018d","M6YqIoX2a1dhvpkMedN8u66N0ZY2","","","","","","","","","","","","","","","","","","","","[""Very unhappy"",""Very happy""]",""
"html-keyboard-response","171","342172","0.0-71.0","","null","<div style=""font-size:100px;"">+</div>","null","delaylearn","learning","ITI","60feca9223aed7b785e6018d","M6YqIoX2a1dhvpkMedN8u66N0ZY2","","","","","","","","","","","","","","","","","","","2448","",""
"html-keyboard-response","172","343723","0.0-72.0-0.0","","1547.199999988079","<div style=""display: flex; flex-direction: column; align-items: center; margin-top: -40px;""><img src=""images/pattern_4.png"" style=""width: 234px; height: 230px; margin-top: -50px;""><div style=""display: flex; justify-content: space-between; margin-top: 33px;""><img src=""images/choice_trial_8.png"" style=""width: 408px; height: 417px; margin-right: 200px;""><img src=""images/choice_trial_7.png"" style=""width: 408px; height: 417px;""></div></div>","j","delaylearn","learning","trial","60feca9223aed7b785e6018d","M6YqIoX2a1dhvpkMedN8u66N0ZY2","1","images/choice_trial_8.png","images/choice_trial_7.png","images/pattern_4.png","j","j","7000","8","7","3","1","31","1","1","7","210","","","","",""
"html-keyboard-response","173","344730","0.0-72.0-1.0","","null","<div style=""display: flex; flex-direction: column; align-items: center; margin-top: -40px;""><img src=""images/pattern_4.png"" style=""width: 234px; height: 230px; margin-top: -50px;""><div style=""display: flex; justify-content: space-between; margin-top: 33px;""><img src=""images/choice_trial_7.png"" style=""width: 408px; height: 417px; margin-left:608px;""></div></div>","null","delaylearn","learning","display_response","60feca9223aed7b785e6018d","M6YqIoX2a1dhvpkMedN8u66N0ZY2","","","","","","","","","","","","","","","","","chosen stimuli: images/choice_trial_7.png","","","",""
"html-keyboard-response","174","351736","0.0-72.0-2.0","","null","","null","delaylearn","learning","feedback_duration_window","60feca9223aed7b785e6018d","M6YqIoX2a1dhvpkMedN8u66N0ZY2","","","","","","","","","","","","","","","","","","7000","","",""
"html-keyboard-response","175","353243","0.0-72.0-3.0","","null","<div style='margin:auto;width: auto; font-size: 150%'><span style='font-weight: bold; font-size: 100px; color: green;'>+10 points!</span><br><br></div>","null","delaylearn","learning","feedback_image_window","60feca9223aed7b785e6018d","M6YqIoX2a1dhvpkMedN8u66N0ZY2","","","","","","","","","","","","","","","","","","","","",""
"html-keyboard-response","176","354952","0.0-73.0","","null","<div style=""font-size:100px;"">+</div>","null","delaylearn","learning","ITI","60feca9223aed7b785e6018d","M6YqIoX2a1dhvpkMedN8u66N0ZY2","","","","","","","","","","","","","","","","","","","1703","",""
"html-keyboard-response","177","357962","0.0-74.0-0.0","","null","<div style=""display: flex; flex-direction: column; align-items: center; margin-top: -40px;""><img src=""images/pattern_3.png"" style=""width: 234px; height: 230px; margin-top: -50px;""><div style=""display: flex; justify-content: space-between; margin-top: 33px;""><img src=""images/choice_trial_6.png"" style=""width: 408px; height: 417px; margin-right: 200px;""><img src=""images/choice_trial_5.png"" style=""width: 408px; height: 417px;""></div></div>","null","delaylearn","learning","trial","60feca9223aed7b785e6018d","M6YqIoX2a1dhvpkMedN8u66N0ZY2","1","images/choice_trial_6.png","images/choice_trial_5.png","images/pattern_3.png","j","j","7000","6","5","2","1","32","0","0","0","210","","","","",""
"html-keyboard-response","178","358969","0.0-74.0-1.0","","null","<div style='font-weight: bold; font-size: 75px; color: red;'>Missed Trial <br><br><br><br> Please respond faster</div>","null","delaylearn","learning","display_response","60feca9223aed7b785e6018d","M6YqIoX2a1dhvpkMedN8u66N0ZY2","","","","","","","","","","","","","","","","","Missed trial","","","",""
"html-keyboard-response","179","358976","0.0-74.0-2.0","","null","","null","delaylearn","learning","feedback_duration_window","60feca9223aed7b785e6018d","M6YqIoX2a1dhvpkMedN8u66N0ZY2","","","","","","","","","","","","","","","","","","0","","",""
"html-keyboard-response","180","358982","0.0-74.0-3.0","","null","","null","delaylearn","learning","feedback_image_window","60feca9223aed7b785e6018d","M6YqIoX2a1dhvpkMedN8u66N0ZY2","","","","","","","","","","","","","","","","","","","","",""
"html-keyboard-response","181","361258","0.0-75.0","","null","<div style=""font-size:100px;"">+</div>","null","delaylearn","learning","ITI","60feca9223aed7b785e6018d","M6YqIoX2a1dhvpkMedN8u66N0ZY2","","","","","","","","","","","","","","","","","","","2273","",""
"html-keyboard-response","182","362373","0.0-76.0-0.0","","1111.5","<div style=""display: flex; flex-direction: column; align-items: center; margin-top: -40px;""><img src=""images/pattern_5.png"" style=""width: 234px; height: 230px; margin-top: -50px;""><div style=""display: flex; justify-content: space-between; margin-top: 33px;""><img src=""images/choice_trial_9.png"" style=""width: 408px; height: 417px; margin-right: 200px;""><img src=""images/choice_trial_10.png"" style=""width: 408px; height: 417px;""></div></div>","f","delaylearn","learning","trial","60feca9223aed7b785e6018d","M6YqIoX2a1dhvpkMedN8u66N0ZY2","1","images/choice_trial_9.png","images/choice_trial_10.png","images/pattern_5.png","j","f","750","9","10","4","0","33","1","0","9","210","","","","",""
"html-keyboard-response","183","363380","0.0-76.0-1.0","","null","<div style=""display: flex; flex-direction: column; align-items: center; margin-top: -40px;""><img src=""images/pattern_5.png"" style=""width: 234px; height: 230px; margin-top: -50px;""><div style=""display: flex; justify-content: space-between; margin-top: 33px;""><img src=""images/choice_trial_9.png"" style=""width: 408px; height: 417px; margin-right: 608px;""></div></div>","null","delaylearn","learning","display_response","60feca9223aed7b785e6018d","M6YqIoX2a1dhvpkMedN8u66N0ZY2","","","","","","","","","","","","","","","","","chosen stimuli: images/choice_trial_9.png","","","",""
"html-keyboard-response","184","364137","0.0-76.0-2.0","","null","","null","delaylearn","learning","feedback_duration_window","60feca9223aed7b785e6018d","M6YqIoX2a1dhvpkMedN8u66N0ZY2","","","","","","","","","","","","","","","","","","750","","",""
"html-keyboard-response","185","365641","0.0-76.0-3.0","","null","<div style='margin:auto;width: auto; font-size: 150%'><span style='font-weight: bold; font-size: 100px; color: red;'>0 points!</span><br><br></div>","null","delaylearn","learning","feedback_image_window","60feca9223aed7b785e6018d","M6YqIoX2a1dhvpkMedN8u66N0ZY2","","","","","","","","","","","","","","","","","","","","",""
"html-keyboard-response","186","367613","0.0-77.0","","null","<div style=""font-size:100px;"">+</div>","null","delaylearn","learning","ITI","60feca9223aed7b785e6018d","M6YqIoX2a1dhvpkMedN8u66N0ZY2","","","","","","","","","","","","","","","","","","","1965","",""
"html-keyboard-response","187","369388","0.0-78.0-0.0","","1771.300000011921","<div style=""display: flex; flex-direction: column; align-items: center; margin-top: -40px;""><img src=""images/pattern_1.png"" style=""width: 234px; height: 230px; margin-top: -50px;""><div style=""display: flex; justify-content: space-between; margin-top: 33px;""><img src=""images/choice_trial_1.png"" style=""width: 408px; height: 417px; margin-right: 200px;""><img src=""images/choice_trial_2.png"" style=""width: 408px; height: 417px;""></div></div>","f","delaylearn","learning","trial","60feca9223aed7b785e6018d","M6YqIoX2a1dhvpkMedN8u66N0ZY2","1","images/choice_trial_1.png","images/choice_trial_2.png","images/pattern_1.png","f","f","7000","1","2","1","0","34","1","1","1","220","","","","",""
"html-keyboard-response","188","370393","0.0-78.0-1.0","","null","<div style=""display: flex; flex-direction: column; align-items: center; margin-top: -40px;""><img src=""images/pattern_1.png"" style=""width: 234px; height: 230px; margin-top: -50px;""><div style=""display: flex; justify-content: space-between; margin-top: 33px;""><img src=""images/choice_trial_1.png"" style=""width: 408px; height: 417px; margin-right: 608px;""></div></div>","null","delaylearn","learning","display_response","60feca9223aed7b785e6018d","M6YqIoX2a1dhvpkMedN8u66N0ZY2","","","","","","","","","","","","","","","","","chosen stimuli: images/choice_trial_1.png","","","",""
"html-keyboard-response","189","377398","0.0-78.0-2.0","","null","","null","delaylearn","learning","feedback_duration_window","60feca9223aed7b785e6018d","M6YqIoX2a1dhvpkMedN8u66N0ZY2","","","","","","","","","","","","","","","","","","7000","","",""
"html-keyboard-response","190","378907","0.0-78.0-3.0","","null","<div style='margin:auto;width: auto; font-size: 150%'><span style='font-weight: bold; font-size: 100px; color: green;'>+10 points!</span><br><br></div>","null","delaylearn","learning","feedback_image_window","60feca9223aed7b785e6018d","M6YqIoX2a1dhvpkMedN8u66N0ZY2","","","","","","","","","","","","","","","","","","","","",""
"html-keyboard-response","191","379414","0.0-79.0-0.0","","null","","null","","","mood_trial_fixation","","","","","","","","","","","","","","","","","","","","","","",""
"lmdlab-html-vas-response","192","382949","0.0-79.0-1.0","","2524","How happy are you right now?","0.3685185185185185","delaylearn","learning","mood_trial","60feca9223aed7b785e6018d","M6YqIoX2a1dhvpkMedN8u66N0ZY2","","","","","","","","","","","","","","","","","","","","[""Very unhappy"",""Very happy""]",""
"html-keyboard-response","193","385059","0.0-80.0","","null","<div style=""font-size:100px;"">+</div>","null","delaylearn","learning","ITI","60feca9223aed7b785e6018d","M6YqIoX2a1dhvpkMedN8u66N0ZY2","","","","","","","","","","","","","","","","","","","2105","",""
"html-keyboard-response","194","386212","0.0-81.0-0.0","","1147.5999999642372","<div style=""display: flex; flex-direction: column; align-items: center; margin-top: -40px;""><img src=""images/pattern_6.png"" style=""width: 234px; height: 230px; margin-top: -50px;""><div style=""display: flex; justify-content: space-between; margin-top: 33px;""><img src=""images/choice_trial_11.png"" style=""width: 408px; height: 417px; margin-right: 200px;""><img src=""images/choice_trial_12.png"" style=""width: 408px; height: 417px;""></div></div>","f","delaylearn","learning","trial","60feca9223aed7b785e6018d","M6YqIoX2a1dhvpkMedN8u66N0ZY2","1","images/choice_trial_11.png","images/choice_trial_12.png","images/pattern_6.png","j","f","750","11","12","5","0","35","1","0","11","220","","","","",""
"html-keyboard-response","195","387218","0.0-81.0-1.0","","null","<div style=""display: flex; flex-direction: column; align-items: center; margin-top: -40px;""><img src=""images/pattern_6.png"" style=""width: 234px; height: 230px; margin-top: -50px;""><div style=""display: flex; justify-content: space-between; margin-top: 33px;""><img src=""images/choice_trial_11.png"" style=""width: 408px; height: 417px; margin-right: 608px;""></div></div>","null","delaylearn","learning","display_response","60feca9223aed7b785e6018d","M6YqIoX2a1dhvpkMedN8u66N0ZY2","","","","","","","","","","","","","","","","","chosen stimuli: images/choice_trial_11.png","","","",""
"html-keyboard-response","196","387974","0.0-81.0-2.0","","null","","null","delaylearn","learning","feedback_duration_window","60feca9223aed7b785e6018d","M6YqIoX2a1dhvpkMedN8u66N0ZY2","","","","","","","","","","","","","","","","","","750","","",""
"html-keyboard-response","197","389481","0.0-81.0-3.0","","null","<div style='margin:auto;width: auto; font-size: 150%'><span style='font-weight: bold; font-size: 100px; color: red;'>0 points!</span><br><br></div>","null","delaylearn","learning","feedback_image_window","60feca9223aed7b785e6018d","M6YqIoX2a1dhvpkMedN8u66N0ZY2","","","","","","","","","","","","","","","","","","","","",""
"html-keyboard-response","198","391409","0.0-82.0","","null","<div style=""font-size:100px;"">+</div>","null","delaylearn","learning","ITI","60feca9223aed7b785e6018d","M6YqIoX2a1dhvpkMedN8u66N0ZY2","","","","","","","","","","","","","","","","","","","1920","",""
"html-keyboard-response","199","392520","0.0-83.0-0.0","","1108.5","<div style=""display: flex; flex-direction: column; align-items: center; margin-top: -40px;""><img src=""images/pattern_3.png"" style=""width: 234px; height: 230px; margin-top: -50px;""><div style=""display: flex; justify-content: space-between; margin-top: 33px;""><img src=""images/choice_trial_6.png"" style=""width: 408px; height: 417px; margin-right: 200px;""><img src=""images/choice_trial_5.png"" style=""width: 408px; height: 417px;""></div></div>","j","delaylearn","learning","trial","60feca9223aed7b785e6018d","M6YqIoX2a1dhvpkMedN8u66N0ZY2","1","images/choice_trial_6.png","images/choice_trial_5.png","images/pattern_3.png","j","j","7000","6","5","2","1","36","1","1","5","230","","","","",""
"html-keyboard-response","200","393524","0.0-83.0-1.0","","null","<div style=""display: flex; flex-direction: column; align-items: center; margin-top: -40px;""><img src=""images/pattern_3.png"" style=""width: 234px; height: 230px; margin-top: -50px;""><div style=""display: flex; justify-content: space-between; margin-top: 33px;""><img src=""images/choice_trial_5.png"" style=""width: 408px; height: 417px; margin-left:608px;""></div></div>","null","delaylearn","learning","display_response","60feca9223aed7b785e6018d","M6YqIoX2a1dhvpkMedN8u66N0ZY2","","","","","","","","","","","","","","","","","chosen stimuli: images/choice_trial_5.png","","","",""
"html-keyboard-response","201","400527","0.0-83.0-2.0","","null","","null","delaylearn","learning","feedback_duration_window","60feca9223aed7b785e6018d","M6YqIoX2a1dhvpkMedN8u66N0ZY2","","","","","","","","","","","","","","","","","","7000","","",""
"html-keyboard-response","202","402035","0.0-83.0-3.0","","null","<div style='margin:auto;width: auto; font-size: 150%'><span style='font-weight: bold; font-size: 100px; color: green;'>+10 points!</span><br><br></div>","null","delaylearn","learning","feedback_image_window","60feca9223aed7b785e6018d","M6YqIoX2a1dhvpkMedN8u66N0ZY2","","","","","","","","","","","","","","","","","","","","",""
"html-keyboard-response","203","403956","0.0-84.0","","null","<div style=""font-size:100px;"">+</div>","null","delaylearn","learning","ITI","60feca9223aed7b785e6018d","M6YqIoX2a1dhvpkMedN8u66N0ZY2","","","","","","","","","","","","","","","","","","","1918","",""
"html-keyboard-response","204","405369","0.0-85.0-0.0","","1409.5","<div style=""display: flex; flex-direction: column; align-items: center; margin-top: -40px;""><img src=""images/pattern_4.png"" style=""width: 234px; height: 230px; margin-top: -50px;""><div style=""display: flex; justify-content: space-between; margin-top: 33px;""><img src=""images/choice_trial_8.png"" style=""width: 408px; height: 417px; margin-right: 200px;""><img src=""images/choice_trial_7.png"" style=""width: 408px; height: 417px;""></div></div>","j","delaylearn","learning","trial","60feca9223aed7b785e6018d","M6YqIoX2a1dhvpkMedN8u66N0ZY2","1","images/choice_trial_8.png","images/choice_trial_7.png","images/pattern_4.png","f","j","7000","8","7","3","1","37","1","0","7","230","","","","",""
"html-keyboard-response","205","406375","0.0-85.0-1.0","","null","<div style=""display: flex; flex-direction: column; align-items: center; margin-top: -40px;""><img src=""images/pattern_4.png"" style=""width: 234px; height: 230px; margin-top: -50px;""><div style=""display: flex; justify-content: space-between; margin-top: 33px;""><img src=""images/choice_trial_7.png"" style=""width: 408px; height: 417px; margin-left:608px;""></div></div>","null","delaylearn","learning","display_response","60feca9223aed7b785e6018d","M6YqIoX2a1dhvpkMedN8u66N0ZY2","","","","","","","","","","","","","","","","","chosen stimuli: images/choice_trial_7.png","","","",""
"html-keyboard-response","206","413381","0.0-85.0-2.0","","null","","null","delaylearn","learning","feedback_duration_window","60feca9223aed7b785e6018d","M6YqIoX2a1dhvpkMedN8u66N0ZY2","","","","","","","","","","","","","","","","","","7000","","",""
"html-keyboard-response","207","414889","0.0-85.0-3.0","","null","<div style='margin:auto;width: auto; font-size: 150%'><span style='font-weight: bold; font-size: 100px; color: red;'>0 points!</span><br><br></div>","null","delaylearn","learning","feedback_image_window","60feca9223aed7b785e6018d","M6YqIoX2a1dhvpkMedN8u66N0ZY2","","","","","","","","","","","","","","","","","","","","",""
"html-keyboard-response","208","416697","0.0-86.0","","null","<div style=""font-size:100px;"">+</div>","null","delaylearn","learning","ITI","60feca9223aed7b785e6018d","M6YqIoX2a1dhvpkMedN8u66N0ZY2","","","","","","","","","","","","","","","","","","","1805","",""
"html-keyboard-response","209","417721","0.0-87.0-0.0","","1019.5","<div style=""display: flex; flex-direction: column; align-items: center; margin-top: -40px;""><img src=""images/pattern_7.png"" style=""width: 234px; height: 230px; margin-top: -50px;""><div style=""display: flex; justify-content: space-between; margin-top: 33px;""><img src=""images/choice_trial_13.png"" style=""width: 408px; height: 417px; margin-right: 200px;""><img src=""images/choice_trial_14.png"" style=""width: 408px; height: 417px;""></div></div>","f","delaylearn","learning","trial","60feca9223aed7b785e6018d","M6YqIoX2a1dhvpkMedN8u66N0ZY2","1","images/choice_trial_13.png","images/choice_trial_14.png","images/pattern_7.png","f","f","750","13","14","6","0","38","1","1","13","240","","","","",""
"html-keyboard-response","210","418723","0.0-87.0-1.0","","null","<div style=""display: flex; flex-direction: column; align-items: center; margin-top: -40px;""><img src=""images/pattern_7.png"" style=""width: 234px; height: 230px; margin-top: -50px;""><div style=""display: flex; justify-content: space-between; margin-top: 33px;""><img src=""images/choice_trial_13.png"" style=""width: 408px; height: 417px; margin-right: 608px;""></div></div>","null","delaylearn","learning","display_response","60feca9223aed7b785e6018d","M6YqIoX2a1dhvpkMedN8u66N0ZY2","","","","","","","","","","","","","","","","","chosen stimuli: images/choice_trial_13.png","","","",""
"html-keyboard-response","211","419480","0.0-87.0-2.0","","null","","null","delaylearn","learning","feedback_duration_window","60feca9223aed7b785e6018d","M6YqIoX2a1dhvpkMedN8u66N0ZY2","","","","","","","","","","","","","","","","","","750","","",""
"html-keyboard-response","212","420987","0.0-87.0-3.0","","null","<div style='margin:auto;width: auto; font-size: 150%'><span style='font-weight: bold; font-size: 100px; color: green;'>+10 points!</span><br><br></div>","null","delaylearn","learning","feedback_image_window","60feca9223aed7b785e6018d","M6YqIoX2a1dhvpkMedN8u66N0ZY2","","","","","","","","","","","","","","","","","","","","",""
"html-keyboard-response","213","423086","0.0-88.0","","null","<div style=""font-size:100px;"">+</div>","null","delaylearn","learning","ITI","60feca9223aed7b785e6018d","M6YqIoX2a1dhvpkMedN8u66N0ZY2","","","","","","","","","","","","","","","","","","","2093","",""
"html-keyboard-response","214","424505","0.0-89.0-0.0","","1415.800000011921","<div style=""display: flex; flex-direction: column; align-items: center; margin-top: -40px;""><img src=""images/pattern_1.png"" style=""width: 234px; height: 230px; margin-top: -50px;""><div style=""display: flex; justify-content: space-between; margin-top: 33px;""><img src=""images/choice_trial_1.png"" style=""width: 408px; height: 417px; margin-right: 200px;""><img src=""images/choice_trial_2.png"" style=""width: 408px; height: 417px;""></div></div>","j","delaylearn","learning","trial","60feca9223aed7b785e6018d","M6YqIoX2a1dhvpkMedN8u66N0ZY2","1","images/choice_trial_1.png","images/choice_trial_2.png","images/pattern_1.png","f","f","7000","1","2","1","0","39","0","0","2","240","","","","",""
"html-keyboard-response","215","425513","0.0-89.0-1.0","","null","<div style=""display: flex; flex-direction: column; align-items: center; margin-top: -40px;""><img src=""images/pattern_1.png"" style=""width: 234px; height: 230px; margin-top: -50px;""><div style=""display: flex; justify-content: space-between; margin-top: 33px;""><img src=""images/choice_trial_2.png"" style=""width: 408px; height: 417px; margin-left:608px;""></div></div>","null","delaylearn","learning","display_response","60feca9223aed7b785e6018d","M6YqIoX2a1dhvpkMedN8u66N0ZY2","","","","","","","","","","","","","","","","","chosen stimuli: images/choice_trial_2.png","","","",""
"html-keyboard-response","216","432520","0.0-89.0-2.0","","null","","null","delaylearn","learning","feedback_duration_window","60feca9223aed7b785e6018d","M6YqIoX2a1dhvpkMedN8u66N0ZY2","","","","","","","","","","","","","","","","","","7000","","",""
"html-keyboard-response","217","434028","0.0-89.0-3.0","","null","<div style='margin:auto;width: auto; font-size: 150%'><span style='font-weight: bold; font-size: 100px; color: red;'>0 points!</span><br><br></div>","null","delaylearn","learning","feedback_image_window","60feca9223aed7b785e6018d","M6YqIoX2a1dhvpkMedN8u66N0ZY2","","","","","","","","","","","","","","","","","","","","",""
"html-keyboard-response","218","434533","0.0-90.0-0.0","","null","","null","","","mood_trial_fixation","","","","","","","","","","","","","","","","","","","","","","",""
"lmdlab-html-vas-response","219","438583","0.0-90.0-1.0","","3039","How happy are you right now?","0.5055555555555555","delaylearn","learning","mood_trial","60feca9223aed7b785e6018d","M6YqIoX2a1dhvpkMedN8u66N0ZY2","","","","","","","","","","","","","","","","","","","","[""Very unhappy"",""Very happy""]",""
"html-keyboard-response","220","440209","0.0-91.0","","null","<div style=""font-size:100px;"">+</div>","null","delaylearn","learning","ITI","60feca9223aed7b785e6018d","M6YqIoX2a1dhvpkMedN8u66N0ZY2","","","","","","","","","","","","","","","","","","","1620","",""
