"trial_type","trial_index","time_elapsed","internal_node_id","participant","rt","stimulus","response","exp_name","exp_stage","test_part","subjectID","databaseID","counterbal","choice_stimuli_1","choice_stimuli_2","pattern_stimuli","rewarded_answer","correct_answer","feedback_duration_times","stim_left","stim_right","pair","leftright_counter","trial","response_correct","response_rewarded","chosen_stim","counter","displayed_choice","feedback_durations","ITI_duration","labels","rest_warning"
"pavlovia","0","587","0.0-0.0","","","","","","","","","","","","","","","","","","","","","","","","","","","","","",""
"html-keyboard-response","1","3597","0.0-1.0","","null","<div style=""font-size:100px;"">+</div>","null","delaylearn","learning","pre_fixation","659817d80a3213cd1b4dced3","","","","","","","","","","","","","","","","","","","","","",""
"html-keyboard-response","2","5187","0.0-2.0-0.0","","1584.2999999821186","<div style=""display: flex; flex-direction: column; align-items: center; margin-top: -40px;""><img src=""images/demo_images/pattern_1.png"" style=""width: 234px; height: 230px; margin-top: -50px;""><div style=""display: flex; justify-content: space-between; margin-top: 33px;""><img src=""images/demo_images/choice_trial_2.png"" style=""width: 408px; height: 417px; margin-right: 200px;""><img src=""images/demo_images/choice_trial_1.png"" style=""width: 408px; height: 417px;""></div></div>","j","delaylearn","learning","trial","659817d80a3213cd1b4dced3","Cky2w6eXF2f7kdwKRdBT7tS4jjm2","2","images/demo_images/choice_trial_2.png","images/demo_images/choice_trial_1.png","images/demo_images/pattern_1.png","j","j","3000","2","1","20","1","1","1","1","1","10","","","","",""
"html-keyboard-response","3","6204","0.0-2.0-1.0","","null","<div style=""display: flex; flex-direction: column; align-items: center; margin-top: -40px;""><img src=""images/demo_images/pattern_1.png"" style=""width: 234px; height: 230px; margin-top: -50px;""><div style=""display: flex; justify-content: space-between; margin-top: 33px;""><img src=""images/demo_images/choice_trial_1.png"" style=""width: 408px; height: 417px; margin-left:608px;""></div></div>","null","delaylearn","learning","display_response","659817d80a3213cd1b4dced3","Cky2w6eXF2f7kdwKRdBT7tS4jjm2","","","","","","","","","","","","","","","","","chosen stimuli: images/demo_images/choice_trial_1.png","","","",""
"html-keyboard-response","4","9214","0.0-2.0-2.0","","null","","null","delaylearn","learning","feedback_duration_window","659817d80a3213cd1b4dced3","Cky2w6eXF2f7kdwKRdBT7tS4jjm2","","","","","","","","","","","","","","","","","","3000","","",""
"html-keyboard-response","5","10726","0.0-2.0-3.0","","null","<div style='margin:auto;width: auto; font-size: 150%'><span style='font-weight: bold; font-size: 100px; color: green;'>+10 points!</span><br><br></div>","null","delaylearn","learning","feedback_image_window","659817d80a3213cd1b4dced3","Cky2w6eXF2f7kdwKRdBT7tS4jjm2","","","","","","","","","","","","","","","","","","","","",""
"html-keyboard-response","6","12294","0.0-3.0","","null","<div style=""font-size:100px;"">+</div>","null","delaylearn","learning","ITI","659817d80a3213cd1b4dced3","Cky2w6eXF2f7kdwKRdBT7tS4jjm2","","","","","","","","","","","","","","","","","","","1550","",""
"html-keyboard-response","7","13506","0.0-4.0-0.0","","1205.800000011921","<div style=""display: flex; flex-direction: column; align-items: center; margin-top: -40px;""><img src=""images/demo_images/pattern_1.png"" style=""width: 234px; height: 230px; margin-top: -50px;""><div style=""display: flex; justify-content: space-between; margin-top: 33px;""><img src=""images/demo_images/choice_trial_2.png"" style=""width: 408px; height: 417px; margin-right: 200px;""><img src=""images/demo_images/choice_trial_1.png"" style=""width: 408px; height: 417px;""></div></div>","j","delaylearn","learning","trial","659817d80a3213cd1b4dced3","Cky2w6eXF2f7kdwKRdBT7tS4jjm2","2","images/demo_images/choice_trial_2.png","images/demo_images/choice_trial_1.png","images/demo_images/pattern_1.png","j","j","3000","2","1","20","1","2","1","1","1","20","","","","",""
"html-keyboard-response","8","14525","0.0-4.0-1.0","","null","<div style=""display: flex; flex-direction: column; align-items: center; margin-top: -40px;""><img src=""images/demo_images/pattern_1.png"" style=""width: 234px; height: 230px; margin-top: -50px;""><div style=""display: flex; justify-content: space-between; margin-top: 33px;""><img src=""images/demo_images/choice_trial_1.png"" style=""width: 408px; height: 417px; margin-left:608px;""></div></div>","null","delaylearn","learning","display_response","659817d80a3213cd1b4dced3","Cky2w6eXF2f7kdwKRdBT7tS4jjm2","","","","","","","","","","","","","","","","","chosen stimuli: images/demo_images/choice_trial_1.png","","","",""
"html-keyboard-response","9","17531","0.0-4.0-2.0","","null","","null","delaylearn","learning","feedback_duration_window","659817d80a3213cd1b4dced3","Cky2w6eXF2f7kdwKRdBT7tS4jjm2","","","","","","","","","","","","","","","","","","3000","","",""
"html-keyboard-response","10","19042","0.0-4.0-3.0","","null","<div style='margin:auto;width: auto; font-size: 150%'><span style='font-weight: bold; font-size: 100px; color: green;'>+10 points!</span><br><br></div>","null","delaylearn","learning","feedback_image_window","659817d80a3213cd1b4dced3","Cky2w6eXF2f7kdwKRdBT7tS4jjm2","","","","","","","","","","","","","","","","","","","","",""
"html-keyboard-response","11","20906","0.0-5.0","","null","<div style=""font-size:100px;"">+</div>","null","delaylearn","learning","ITI","659817d80a3213cd1b4dced3","Cky2w6eXF2f7kdwKRdBT7tS4jjm2","","","","","","","","","","","","","","","","","","","1848","",""
"html-keyboard-response","12","22393","0.0-6.0-0.0","","1482.7000000178814","<div style=""display: flex; flex-direction: column; align-items: center; margin-top: -40px;""><img src=""images/demo_images/pattern_1.png"" style=""width: 234px; height: 230px; margin-top: -50px;""><div style=""display: flex; justify-content: space-between; margin-top: 33px;""><img src=""images/demo_images/choice_trial_1.png"" style=""width: 408px; height: 417px; margin-right: 200px;""><img src=""images/demo_images/choice_trial_2.png"" style=""width: 408px; height: 417px;""></div></div>","f","delaylearn","learning","trial","659817d80a3213cd1b4dced3","Cky2w6eXF2f7kdwKRdBT7tS4jjm2","2","images/demo_images/choice_trial_1.png","images/demo_images/choice_trial_2.png","images/demo_images/pattern_1.png","j","f","3000","1","2","20","0","3","1","0","1","20","","","","",""
"html-keyboard-response","13","23404","0.0-6.0-1.0","","null","<div style=""display: flex; flex-direction: column; align-items: center; margin-top: -40px;""><img src=""images/demo_images/pattern_1.png"" style=""width: 234px; height: 230px; margin-top: -50px;""><div style=""display: flex; justify-content: space-between; margin-top: 33px;""><img src=""images/demo_images/choice_trial_1.png"" style=""width: 408px; height: 417px; margin-right: 608px;""></div></div>","null","delaylearn","learning","display_response","659817d80a3213cd1b4dced3","Cky2w6eXF2f7kdwKRdBT7tS4jjm2","","","","","","","","","","","","","","","","","chosen stimuli: images/demo_images/choice_trial_1.png","","","",""
"html-keyboard-response","14","26412","0.0-6.0-2.0","","null","","null","delaylearn","learning","feedback_duration_window","659817d80a3213cd1b4dced3","Cky2w6eXF2f7kdwKRdBT7tS4jjm2","","","","","","","","","","","","","","","","","","3000","","",""
"html-keyboard-response","15","27917","0.0-6.0-3.0","","null","<div style='margin:auto;width: auto; font-size: 150%'><span style='font-weight: bold; font-size: 100px; color: red;'>0 points!</span><br><br></div>","null","delaylearn","learning","feedback_image_window","659817d80a3213cd1b4dced3","Cky2w6eXF2f7kdwKRdBT7tS4jjm2","","","","","","","","","","","","","","","","","","","","",""
"html-keyboard-response","16","29863","0.0-7.0","","null","<div style=""font-size:100px;"">+</div>","null","delaylearn","learning","ITI","659817d80a3213cd1b4dced3","Cky2w6eXF2f7kdwKRdBT7tS4jjm2","","","","","","","","","","","","","","","","","","","1937","",""
"html-keyboard-response","17","30761","0.0-8.0-0.0","","892.5999999940395","<div style=""display: flex; flex-direction: column; align-items: center; margin-top: -40px;""><img src=""images/demo_images/pattern_1.png"" style=""width: 234px; height: 230px; margin-top: -50px;""><div style=""display: flex; justify-content: space-between; margin-top: 33px;""><img src=""images/demo_images/choice_trial_1.png"" style=""width: 408px; height: 417px; margin-right: 200px;""><img src=""images/demo_images/choice_trial_2.png"" style=""width: 408px; height: 417px;""></div></div>","j","delaylearn","learning","trial","659817d80a3213cd1b4dced3","Cky2w6eXF2f7kdwKRdBT7tS4jjm2","2","images/demo_images/choice_trial_1.png","images/demo_images/choice_trial_2.png","images/demo_images/pattern_1.png","f","f","3000","1","2","20","0","4","0","0","2","20","","","","",""
"html-keyboard-response","18","31775","0.0-8.0-1.0","","null","<div style=""display: flex; flex-direction: column; align-items: center; margin-top: -40px;""><img src=""images/demo_images/pattern_1.png"" style=""width: 234px; height: 230px; margin-top: -50px;""><div style=""display: flex; justify-content: space-between; margin-top: 33px;""><img src=""images/demo_images/choice_trial_2.png"" style=""width: 408px; height: 417px; margin-left:608px;""></div></div>","null","delaylearn","learning","display_response","659817d80a3213cd1b4dced3","Cky2w6eXF2f7kdwKRdBT7tS4jjm2","","","","","","","","","","","","","","","","","chosen stimuli: images/demo_images/choice_trial_2.png","","","",""
"html-keyboard-response","19","34784","0.0-8.0-2.0","","null","","null","delaylearn","learning","feedback_duration_window","659817d80a3213cd1b4dced3","Cky2w6eXF2f7kdwKRdBT7tS4jjm2","","","","","","","","","","","","","","","","","","3000","","",""
"html-keyboard-response","20","36296","0.0-8.0-3.0","","null","<div style='margin:auto;width: auto; font-size: 150%'><span style='font-weight: bold; font-size: 100px; color: red;'>0 points!</span><br><br></div>","null","delaylearn","learning","feedback_image_window","659817d80a3213cd1b4dced3","Cky2w6eXF2f7kdwKRdBT7tS4jjm2","","","","","","","","","","","","","","","","","","","","",""
"html-keyboard-response","21","36814","0.0-9.0-0.0","","null","","null","","","mood_trial_fixation","","","","","","","","","","","","","","","","","","","","","","",""
"lmdlab-html-vas-response","22","43608","0.0-9.0-1.0","","5744","How happy are you right now?","0.8858265282983413","delaylearn","learning","mood_trial","659817d80a3213cd1b4dced3","Cky2w6eXF2f7kdwKRdBT7tS4jjm2","","","","","","","","","","","","","","","","","","","","[""Very unhappy"",""Very happy""]",""
"html-keyboard-response","23","45412","0.0-10.0","","null","<div style=""font-size:100px;"">+</div>","null","delaylearn","learning","ITI","659817d80a3213cd1b4dced3","Cky2w6eXF2f7kdwKRdBT7tS4jjm2","","","","","","","","","","","","","","","","","","","1799","",""
"html-keyboard-response","24","46933","0.0-11.0-0.0","","1515.5","<div style=""display: flex; flex-direction: column; align-items: center; margin-top: -40px;""><img src=""images/demo_images/pattern_1.png"" style=""width: 234px; height: 230px; margin-top: -50px;""><div style=""display: flex; justify-content: space-between; margin-top: 33px;""><img src=""images/demo_images/choice_trial_2.png"" style=""width: 408px; height: 417px; margin-right: 200px;""><img src=""images/demo_images/choice_trial_1.png"" style=""width: 408px; height: 417px;""></div></div>","j","delaylearn","learning","trial","659817d80a3213cd1b4dced3","Cky2w6eXF2f7kdwKRdBT7tS4jjm2","2","images/demo_images/choice_trial_2.png","images/demo_images/choice_trial_1.png","images/demo_images/pattern_1.png","j","j","3000","2","1","20","1","5","1","1","1","30","","","","",""
"html-keyboard-response","25","47946","0.0-11.0-1.0","","null","<div style=""display: flex; flex-direction: column; align-items: center; margin-top: -40px;""><img src=""images/demo_images/pattern_1.png"" style=""width: 234px; height: 230px; margin-top: -50px;""><div style=""display: flex; justify-content: space-between; margin-top: 33px;""><img src=""images/demo_images/choice_trial_1.png"" style=""width: 408px; height: 417px; margin-left:608px;""></div></div>","null","delaylearn","learning","display_response","659817d80a3213cd1b4dced3","Cky2w6eXF2f7kdwKRdBT7tS4jjm2","","","","","","","","","","","","","","","","","chosen stimuli: images/demo_images/choice_trial_1.png","","","",""
"html-keyboard-response","26","50962","0.0-11.0-2.0","","null","","null","delaylearn","learning","feedback_duration_window","659817d80a3213cd1b4dced3","Cky2w6eXF2f7kdwKRdBT7tS4jjm2","","","","","","","","","","","","","","","","","","3000","","",""
"html-keyboard-response","27","52475","0.0-11.0-3.0","","null","<div style='margin:auto;width: auto; font-size: 150%'><span style='font-weight: bold; font-size: 100px; color: green;'>+10 points!</span><br><br></div>","null","delaylearn","learning","feedback_image_window","659817d80a3213cd1b4dced3","Cky2w6eXF2f7kdwKRdBT7tS4jjm2","","","","","","","","","","","","","","","","","","","","",""
"html-keyboard-response","28","54196","0.0-12.0","","null","<div style=""font-size:100px;"">+</div>","null","delaylearn","learning","ITI","659817d80a3213cd1b4dced3","Cky2w6eXF2f7kdwKRdBT7tS4jjm2","","","","","","","","","","","","","","","","","","","1701","",""
"html-keyboard-response","29","55942","0.0-13.0-0.0","","1740.9000000059605","<div style=""display: flex; flex-direction: column; align-items: center; margin-top: -40px;""><img src=""images/demo_images/pattern_1.png"" style=""width: 234px; height: 230px; margin-top: -50px;""><div style=""display: flex; justify-content: space-between; margin-top: 33px;""><img src=""images/demo_images/choice_trial_1.png"" style=""width: 408px; height: 417px; margin-right: 200px;""><img src=""images/demo_images/choice_trial_2.png"" style=""width: 408px; height: 417px;""></div></div>","f","delaylearn","learning","trial","659817d80a3213cd1b4dced3","Cky2w6eXF2f7kdwKRdBT7tS4jjm2","2","images/demo_images/choice_trial_1.png","images/demo_images/choice_trial_2.png","images/demo_images/pattern_1.png","f","f","3000","1","2","20","0","6","1","1","1","40","","","","",""
"html-keyboard-response","30","56954","0.0-13.0-1.0","","null","<div style=""display: flex; flex-direction: column; align-items: center; margin-top: -40px;""><img src=""images/demo_images/pattern_1.png"" style=""width: 234px; height: 230px; margin-top: -50px;""><div style=""display: flex; justify-content: space-between; margin-top: 33px;""><img src=""images/demo_images/choice_trial_1.png"" style=""width: 408px; height: 417px; margin-right: 608px;""></div></div>","null","delaylearn","learning","display_response","659817d80a3213cd1b4dced3","Cky2w6eXF2f7kdwKRdBT7tS4jjm2","","","","","","","","","","","","","","","","","chosen stimuli: images/demo_images/choice_trial_1.png","","","",""
"html-keyboard-response","31","59966","0.0-13.0-2.0","","null","","null","delaylearn","learning","feedback_duration_window","659817d80a3213cd1b4dced3","Cky2w6eXF2f7kdwKRdBT7tS4jjm2","","","","","","","","","","","","","","","","","","3000","","",""
"html-keyboard-response","32","61474","0.0-13.0-3.0","","null","<div style='margin:auto;width: auto; font-size: 150%'><span style='font-weight: bold; font-size: 100px; color: green;'>+10 points!</span><br><br></div>","null","delaylearn","learning","feedback_image_window","659817d80a3213cd1b4dced3","Cky2w6eXF2f7kdwKRdBT7tS4jjm2","","","","","","","","","","","","","","","","","","","","",""
"html-keyboard-response","33","63349","0.0-14.0","","null","<div style=""font-size:100px;"">+</div>","null","delaylearn","learning","ITI","659817d80a3213cd1b4dced3","Cky2w6eXF2f7kdwKRdBT7tS4jjm2","","","","","","","","","","","","","","","","","","","1865","",""
"html-keyboard-response","34","64630","0.0-15.0-0.0","","1275.5999999940395","<div style=""display: flex; flex-direction: column; align-items: center; margin-top: -40px;""><img src=""images/demo_images/pattern_1.png"" style=""width: 234px; height: 230px; margin-top: -50px;""><div style=""display: flex; justify-content: space-between; margin-top: 33px;""><img src=""images/demo_images/choice_trial_2.png"" style=""width: 408px; height: 417px; margin-right: 200px;""><img src=""images/demo_images/choice_trial_1.png"" style=""width: 408px; height: 417px;""></div></div>","j","delaylearn","learning","trial","659817d80a3213cd1b4dced3","Cky2w6eXF2f7kdwKRdBT7tS4jjm2","2","images/demo_images/choice_trial_2.png","images/demo_images/choice_trial_1.png","images/demo_images/pattern_1.png","j","j","3000","2","1","20","1","7","1","1","1","50","","","","",""
"html-keyboard-response","35","65653","0.0-15.0-1.0","","null","<div style=""display: flex; flex-direction: column; align-items: center; margin-top: -40px;""><img src=""images/demo_images/pattern_1.png"" style=""width: 234px; height: 230px; margin-top: -50px;""><div style=""display: flex; justify-content: space-between; margin-top: 33px;""><img src=""images/demo_images/choice_trial_1.png"" style=""width: 408px; height: 417px; margin-left:608px;""></div></div>","null","delaylearn","learning","display_response","659817d80a3213cd1b4dced3","Cky2w6eXF2f7kdwKRdBT7tS4jjm2","","","","","","","","","","","","","","","","","chosen stimuli: images/demo_images/choice_trial_1.png","","","",""
"html-keyboard-response","36","68664","0.0-15.0-2.0","","null","","null","delaylearn","learning","feedback_duration_window","659817d80a3213cd1b4dced3","Cky2w6eXF2f7kdwKRdBT7tS4jjm2","","","","","","","","","","","","","","","","","","3000","","",""
"html-keyboard-response","37","70176","0.0-15.0-3.0","","null","<div style='margin:auto;width: auto; font-size: 150%'><span style='font-weight: bold; font-size: 100px; color: green;'>+10 points!</span><br><br></div>","null","delaylearn","learning","feedback_image_window","659817d80a3213cd1b4dced3","Cky2w6eXF2f7kdwKRdBT7tS4jjm2","","","","","","","","","","","","","","","","","","","","",""
"html-keyboard-response","38","72174","0.0-16.0","","null","<div style=""font-size:100px;"">+</div>","null","delaylearn","learning","ITI","659817d80a3213cd1b4dced3","Cky2w6eXF2f7kdwKRdBT7tS4jjm2","","","","","","","","","","","","","","","","","","","1982","",""
"html-keyboard-response","39","73153","0.0-17.0-0.0","","973.3000000119209","<div style=""display: flex; flex-direction: column; align-items: center; margin-top: -40px;""><img src=""images/demo_images/pattern_1.png"" style=""width: 234px; height: 230px; margin-top: -50px;""><div style=""display: flex; justify-content: space-between; margin-top: 33px;""><img src=""images/demo_images/choice_trial_1.png"" style=""width: 408px; height: 417px; margin-right: 200px;""><img src=""images/demo_images/choice_trial_2.png"" style=""width: 408px; height: 417px;""></div></div>","f","delaylearn","learning","trial","659817d80a3213cd1b4dced3","Cky2w6eXF2f7kdwKRdBT7tS4jjm2","2","images/demo_images/choice_trial_1.png","images/demo_images/choice_trial_2.png","images/demo_images/pattern_1.png","f","f","3000","1","2","20","0","8","1","1","1","60","","","","",""
"html-keyboard-response","40","74175","0.0-17.0-1.0","","null","<div style=""display: flex; flex-direction: column; align-items: center; margin-top: -40px;""><img src=""images/demo_images/pattern_1.png"" style=""width: 234px; height: 230px; margin-top: -50px;""><div style=""display: flex; justify-content: space-between; margin-top: 33px;""><img src=""images/demo_images/choice_trial_1.png"" style=""width: 408px; height: 417px; margin-right: 608px;""></div></div>","null","delaylearn","learning","display_response","659817d80a3213cd1b4dced3","Cky2w6eXF2f7kdwKRdBT7tS4jjm2","","","","","","","","","","","","","","","","","chosen stimuli: images/demo_images/choice_trial_1.png","","","",""
"html-keyboard-response","41","77184","0.0-17.0-2.0","","null","","null","delaylearn","learning","feedback_duration_window","659817d80a3213cd1b4dced3","Cky2w6eXF2f7kdwKRdBT7tS4jjm2","","","","","","","","","","","","","","","","","","3000","","",""
"html-keyboard-response","42","78693","0.0-17.0-3.0","","null","<div style='margin:auto;width: auto; font-size: 150%'><span style='font-weight: bold; font-size: 100px; color: green;'>+10 points!</span><br><br></div>","null","delaylearn","learning","feedback_image_window","659817d80a3213cd1b4dced3","Cky2w6eXF2f7kdwKRdBT7tS4jjm2","","","","","","","","","","","","","","","","","","","","",""
"html-button-response","43","83570","0.0-18.0","","4870.5","
  <div style=""display: flex; align-items: center; justify-content: center; height: 80vh;"">
  <div>
          <img src=""images/inst_demo_finish.png"" style=""width: 80vw; height:auto;"">
          <br><br>
      </div>
      <br><br>
  </div>","0","","","","","","","","","","","","","","","","","","","","","","","","","",""
"html-keyboard-response","44","92699","0.0-19.0","","9126.5","
  <div style=""display: flex; align-items: center; justify-content: center; height: 80vh;"">
  <div>
          <img src=""images/inst_6.png"" style=""width: 80vw; height:auto;"">
          <br><br>
      </div>
      <br><br>
  </div>","j","","","","","","","","","","","","","","","","","","","","","","","","","",""
"html-keyboard-response","45","95722","0.0-20.0","","null","<div style=""font-size:100px;"">+</div>","null","delaylearn","learning","pre_fixation","659817d80a3213cd1b4dced3","","","","","","","","","","","","","","","","","","","","","",""
"html-keyboard-response","46","97561","0.0-21.0","","null","<div style=""font-size:100px;"">+</div>","null","delaylearn","learning","ITI","659817d80a3213cd1b4dced3","Cky2w6eXF2f7kdwKRdBT7tS4jjm2","","","","","","","","","","","","","","","","","","","1827","",""
"html-keyboard-response","47","99007","0.0-22.0-0.0","","1441.199999988079","<div style=""display: flex; flex-direction: column; align-items: center; margin-top: -40px;""><img src=""images/pattern_3.png"" style=""width: 234px; height: 230px; margin-top: -50px;""><div style=""display: flex; justify-content: space-between; margin-top: 33px;""><img src=""images/choice_trial_12.png"" style=""width: 408px; height: 417px; margin-right: 200px;""><img src=""images/choice_trial_14.png"" style=""width: 408px; height: 417px;""></div></div>","j","delaylearn","learning","trial","659817d80a3213cd1b4dced3","Cky2w6eXF2f7kdwKRdBT7tS4jjm2","2","images/choice_trial_12.png","images/choice_trial_14.png","images/pattern_3.png","f","f","7000","12","14","2","0","9","0","0","14","60","","","","",""
"html-keyboard-response","48","100013","0.0-22.0-1.0","","null","<div style=""display: flex; flex-direction: column; align-items: center; margin-top: -40px;""><img src=""images/pattern_3.png"" style=""width: 234px; height: 230px; margin-top: -50px;""><div style=""display: flex; justify-content: space-between; margin-top: 33px;""><img src=""images/choice_trial_14.png"" style=""width: 408px; height: 417px; margin-left:608px;""></div></div>","null","delaylearn","learning","display_response","659817d80a3213cd1b4dced3","Cky2w6eXF2f7kdwKRdBT7tS4jjm2","","","","","","","","","","","","","","","","","chosen stimuli: images/choice_trial_14.png","","","",""
"html-keyboard-response","49","107025","0.0-22.0-2.0","","null","","null","delaylearn","learning","feedback_duration_window","659817d80a3213cd1b4dced3","Cky2w6eXF2f7kdwKRdBT7tS4jjm2","","","","","","","","","","","","","","","","","","7000","","",""
"html-keyboard-response","50","108533","0.0-22.0-3.0","","null","<div style='margin:auto;width: auto; font-size: 150%'><span style='font-weight: bold; font-size: 100px; color: red;'>0 points!</span><br><br></div>","null","delaylearn","learning","feedback_image_window","659817d80a3213cd1b4dced3","Cky2w6eXF2f7kdwKRdBT7tS4jjm2","","","","","","","","","","","","","","","","","","","","",""
"html-keyboard-response","51","110411","0.0-23.0","","null","<div style=""font-size:100px;"">+</div>","null","delaylearn","learning","ITI","659817d80a3213cd1b4dced3","Cky2w6eXF2f7kdwKRdBT7tS4jjm2","","","","","","","","","","","","","","","","","","","1869","",""
"html-keyboard-response","52","112166","0.0-24.0-0.0","","1750.2000000178814","<div style=""display: flex; flex-direction: column; align-items: center; margin-top: -40px;""><img src=""images/pattern_7.png"" style=""width: 234px; height: 230px; margin-top: -50px;""><div style=""display: flex; justify-content: space-between; margin-top: 33px;""><img src=""images/choice_trial_15.png"" style=""width: 408px; height: 417px; margin-right: 200px;""><img src=""images/choice_trial_8.png"" style=""width: 408px; height: 417px;""></div></div>","f","delaylearn","learning","trial","659817d80a3213cd1b4dced3","Cky2w6eXF2f7kdwKRdBT7tS4jjm2","2","images/choice_trial_15.png","images/choice_trial_8.png","images/pattern_7.png","j","j","750","15","8","6","1","10","0","0","15","60","","","","",""
"html-keyboard-response","53","113185","0.0-24.0-1.0","","null","<div style=""display: flex; flex-direction: column; align-items: center; margin-top: -40px;""><img src=""images/pattern_7.png"" style=""width: 234px; height: 230px; margin-top: -50px;""><div style=""display: flex; justify-content: space-between; margin-top: 33px;""><img src=""images/choice_trial_15.png"" style=""width: 408px; height: 417px; margin-right: 608px;""></div></div>","null","delaylearn","learning","display_response","659817d80a3213cd1b4dced3","Cky2w6eXF2f7kdwKRdBT7tS4jjm2","","","","","","","","","","","","","","","","","chosen stimuli: images/choice_trial_15.png","","","",""
"html-keyboard-response","54","113945","0.0-24.0-2.0","","null","","null","delaylearn","learning","feedback_duration_window","659817d80a3213cd1b4dced3","Cky2w6eXF2f7kdwKRdBT7tS4jjm2","","","","","","","","","","","","","","","","","","750","","",""
"html-keyboard-response","55","115454","0.0-24.0-3.0","","null","<div style='margin:auto;width: auto; font-size: 150%'><span style='font-weight: bold; font-size: 100px; color: red;'>0 points!</span><br><br></div>","null","delaylearn","learning","feedback_image_window","659817d80a3213cd1b4dced3","Cky2w6eXF2f7kdwKRdBT7tS4jjm2","","","","","","","","","","","","","","","","","","","","",""
"html-keyboard-response","56","117562","0.0-25.0","","null","<div style=""font-size:100px;"">+</div>","null","delaylearn","learning","ITI","659817d80a3213cd1b4dced3","Cky2w6eXF2f7kdwKRdBT7tS4jjm2","","","","","","","","","","","","","","","","","","","2090","",""
"html-keyboard-response","57","119369","0.0-26.0-0.0","","1802.300000011921","<div style=""display: flex; flex-direction: column; align-items: center; margin-top: -40px;""><img src=""images/pattern_4.png"" style=""width: 234px; height: 230px; margin-top: -50px;""><div style=""display: flex; justify-content: space-between; margin-top: 33px;""><img src=""images/choice_trial_4.png"" style=""width: 408px; height: 417px; margin-right: 200px;""><img src=""images/choice_trial_16.png"" style=""width: 408px; height: 417px;""></div></div>","j","delaylearn","learning","trial","659817d80a3213cd1b4dced3","Cky2w6eXF2f7kdwKRdBT7tS4jjm2","2","images/choice_trial_4.png","images/choice_trial_16.png","images/pattern_4.png","f","f","7000","4","16","3","0","11","0","0","16","60","","","","",""
"html-keyboard-response","58","120378","0.0-26.0-1.0","","null","<div style=""display: flex; flex-direction: column; align-items: center; margin-top: -40px;""><img src=""images/pattern_4.png"" style=""width: 234px; height: 230px; margin-top: -50px;""><div style=""display: flex; justify-content: space-between; margin-top: 33px;""><img src=""images/choice_trial_16.png"" style=""width: 408px; height: 417px; margin-left:608px;""></div></div>","null","delaylearn","learning","display_response","659817d80a3213cd1b4dced3","Cky2w6eXF2f7kdwKRdBT7tS4jjm2","","","","","","","","","","","","","","","","","chosen stimuli: images/choice_trial_16.png","","","",""
"html-keyboard-response","59","127383","0.0-26.0-2.0","","null","","null","delaylearn","learning","feedback_duration_window","659817d80a3213cd1b4dced3","Cky2w6eXF2f7kdwKRdBT7tS4jjm2","","","","","","","","","","","","","","","","","","7000","","",""
"html-keyboard-response","60","128893","0.0-26.0-3.0","","null","<div style='margin:auto;width: auto; font-size: 150%'><span style='font-weight: bold; font-size: 100px; color: red;'>0 points!</span><br><br></div>","null","delaylearn","learning","feedback_image_window","659817d80a3213cd1b4dced3","Cky2w6eXF2f7kdwKRdBT7tS4jjm2","","","","","","","","","","","","","","","","","","","","",""
"html-keyboard-response","61","130694","0.0-27.0","","null","<div style=""font-size:100px;"">+</div>","null","delaylearn","learning","ITI","659817d80a3213cd1b4dced3","Cky2w6eXF2f7kdwKRdBT7tS4jjm2","","","","","","","","","","","","","","","","","","","1785","",""
"html-keyboard-response","62","131827","0.0-28.0-0.0","","1127.2000000178814","<div style=""display: flex; flex-direction: column; align-items: center; margin-top: -40px;""><img src=""images/pattern_5.png"" style=""width: 234px; height: 230px; margin-top: -50px;""><div style=""display: flex; justify-content: space-between; margin-top: 33px;""><img src=""images/choice_trial_9.png"" style=""width: 408px; height: 417px; margin-right: 200px;""><img src=""images/choice_trial_2.png"" style=""width: 408px; height: 417px;""></div></div>","f","delaylearn","learning","trial","659817d80a3213cd1b4dced3","Cky2w6eXF2f7kdwKRdBT7tS4jjm2","2","images/choice_trial_9.png","images/choice_trial_2.png","images/pattern_5.png","j","j","750","9","2","4","1","12","0","0","9","60","","","","",""
"html-keyboard-response","63","132841","0.0-28.0-1.0","","null","<div style=""display: flex; flex-direction: column; align-items: center; margin-top: -40px;""><img src=""images/pattern_5.png"" style=""width: 234px; height: 230px; margin-top: -50px;""><div style=""display: flex; justify-content: space-between; margin-top: 33px;""><img src=""images/choice_trial_9.png"" style=""width: 408px; height: 417px; margin-right: 608px;""></div></div>","null","delaylearn","learning","display_response","659817d80a3213cd1b4dced3","Cky2w6eXF2f7kdwKRdBT7tS4jjm2","","","","","","","","","","","","","","","","","chosen stimuli: images/choice_trial_9.png","","","",""
"html-keyboard-response","64","133603","0.0-28.0-2.0","","null","","null","delaylearn","learning","feedback_duration_window","659817d80a3213cd1b4dced3","Cky2w6eXF2f7kdwKRdBT7tS4jjm2","","","","","","","","","","","","","","","","","","750","","",""
"html-keyboard-response","65","135120","0.0-28.0-3.0","","null","<div style='margin:auto;width: auto; font-size: 150%'><span style='font-weight: bold; font-size: 100px; color: red;'>0 points!</span><br><br></div>","null","delaylearn","learning","feedback_image_window","659817d80a3213cd1b4dced3","Cky2w6eXF2f7kdwKRdBT7tS4jjm2","","","","","","","","","","","","","","","","","","","","",""
"html-keyboard-response","66","137195","0.0-29.0","","null","<div style=""font-size:100px;"">+</div>","null","delaylearn","learning","ITI","659817d80a3213cd1b4dced3","Cky2w6eXF2f7kdwKRdBT7tS4jjm2","","","","","","","","","","","","","","","","","","","2042","",""
"html-keyboard-response","67","138195","0.0-30.0-0.0","","996.4000000059605","<div style=""display: flex; flex-direction: column; align-items: center; margin-top: -40px;""><img src=""images/pattern_6.png"" style=""width: 234px; height: 230px; margin-top: -50px;""><div style=""display: flex; justify-content: space-between; margin-top: 33px;""><img src=""images/choice_trial_11.png"" style=""width: 408px; height: 417px; margin-right: 200px;""><img src=""images/choice_trial_5.png"" style=""width: 408px; height: 417px;""></div></div>","f","delaylearn","learning","trial","659817d80a3213cd1b4dced3","Cky2w6eXF2f7kdwKRdBT7tS4jjm2","2","images/choice_trial_11.png","images/choice_trial_5.png","images/pattern_6.png","j","f","750","11","5","5","0","13","1","0","11","60","","","","",""
"html-keyboard-response","68","139204","0.0-30.0-1.0","","null","<div style=""display: flex; flex-direction: column; align-items: center; margin-top: -40px;""><img src=""images/pattern_6.png"" style=""width: 234px; height: 230px; margin-top: -50px;""><div style=""display: flex; justify-content: space-between; margin-top: 33px;""><img src=""images/choice_trial_11.png"" style=""width: 408px; height: 417px; margin-right: 608px;""></div></div>","null","delaylearn","learning","display_response","659817d80a3213cd1b4dced3","Cky2w6eXF2f7kdwKRdBT7tS4jjm2","","","","","","","","","","","","","","","","","chosen stimuli: images/choice_trial_11.png","","","",""
"html-keyboard-response","69","139966","0.0-30.0-2.0","","null","","null","delaylearn","learning","feedback_duration_window","659817d80a3213cd1b4dced3","Cky2w6eXF2f7kdwKRdBT7tS4jjm2","","","","","","","","","","","","","","","","","","750","","",""
"html-keyboard-response","70","141487","0.0-30.0-3.0","","null","<div style='margin:auto;width: auto; font-size: 150%'><span style='font-weight: bold; font-size: 100px; color: red;'>0 points!</span><br><br></div>","null","delaylearn","learning","feedback_image_window","659817d80a3213cd1b4dced3","Cky2w6eXF2f7kdwKRdBT7tS4jjm2","","","","","","","","","","","","","","","","","","","","",""
"html-keyboard-response","71","141992","0.0-31.0-0.0","","null","","null","","","mood_trial_fixation","","","","","","","","","","","","","","","","","","","","","","",""
"lmdlab-html-vas-response","72","148073","0.0-31.0-1.0","","5065","How happy are you right now?","0.833743197417874","delaylearn","learning","mood_trial","659817d80a3213cd1b4dced3","Cky2w6eXF2f7kdwKRdBT7tS4jjm2","","","","","","","","","","","","","","","","","","","","[""Very unhappy"",""Very happy""]",""
"html-keyboard-response","73","150296","0.0-32.0","","null","<div style=""font-size:100px;"">+</div>","null","delaylearn","learning","ITI","659817d80a3213cd1b4dced3","Cky2w6eXF2f7kdwKRdBT7tS4jjm2","","","","","","","","","","","","","","","","","","","2208","",""
"html-keyboard-response","74","151248","0.0-33.0-0.0","","947.5999999940395","<div style=""display: flex; flex-direction: column; align-items: center; margin-top: -40px;""><img src=""images/pattern_1.png"" style=""width: 234px; height: 230px; margin-top: -50px;""><div style=""display: flex; justify-content: space-between; margin-top: 33px;""><img src=""images/choice_trial_10.png"" style=""width: 408px; height: 417px; margin-right: 200px;""><img src=""images/choice_trial_3.png"" style=""width: 408px; height: 417px;""></div></div>","j","delaylearn","learning","trial","659817d80a3213cd1b4dced3","Cky2w6eXF2f7kdwKRdBT7tS4jjm2","2","images/choice_trial_10.png","images/choice_trial_3.png","images/pattern_1.png","j","j","7000","10","3","1","1","14","1","1","3","70","","","","",""
"html-keyboard-response","75","152262","0.0-33.0-1.0","","null","<div style=""display: flex; flex-direction: column; align-items: center; margin-top: -40px;""><img src=""images/pattern_1.png"" style=""width: 234px; height: 230px; margin-top: -50px;""><div style=""display: flex; justify-content: space-between; margin-top: 33px;""><img src=""images/choice_trial_3.png"" style=""width: 408px; height: 417px; margin-left:608px;""></div></div>","null","delaylearn","learning","display_response","659817d80a3213cd1b4dced3","Cky2w6eXF2f7kdwKRdBT7tS4jjm2","","","","","","","","","","","","","","","","","chosen stimuli: images/choice_trial_3.png","","","",""
"html-keyboard-response","76","159274","0.0-33.0-2.0","","null","","null","delaylearn","learning","feedback_duration_window","659817d80a3213cd1b4dced3","Cky2w6eXF2f7kdwKRdBT7tS4jjm2","","","","","","","","","","","","","","","","","","7000","","",""
"html-keyboard-response","77","160791","0.0-33.0-3.0","","null","<div style='margin:auto;width: auto; font-size: 150%'><span style='font-weight: bold; font-size: 100px; color: green;'>+10 points!</span><br><br></div>","null","delaylearn","learning","feedback_image_window","659817d80a3213cd1b4dced3","Cky2w6eXF2f7kdwKRdBT7tS4jjm2","","","","","","","","","","","","","","","","","","","","",""
"html-keyboard-response","78","162504","0.0-34.0","","null","<div style=""font-size:100px;"">+</div>","null","delaylearn","learning","ITI","659817d80a3213cd1b4dced3","Cky2w6eXF2f7kdwKRdBT7tS4jjm2","","","","","","","","","","","","","","","","","","","1702","",""
"html-keyboard-response","79","164072","0.0-35.0-0.0","","1563.0999999940395","<div style=""display: flex; flex-direction: column; align-items: center; margin-top: -40px;""><img src=""images/pattern_3.png"" style=""width: 234px; height: 230px; margin-top: -50px;""><div style=""display: flex; justify-content: space-between; margin-top: 33px;""><img src=""images/choice_trial_14.png"" style=""width: 408px; height: 417px; margin-right: 200px;""><img src=""images/choice_trial_12.png"" style=""width: 408px; height: 417px;""></div></div>","f","delaylearn","learning","trial","659817d80a3213cd1b4dced3","Cky2w6eXF2f7kdwKRdBT7tS4jjm2","2","images/choice_trial_14.png","images/choice_trial_12.png","images/pattern_3.png","f","j","7000","14","12","2","1","15","0","1","14","80","","","","",""
"html-keyboard-response","80","165083","0.0-35.0-1.0","","null","<div style=""display: flex; flex-direction: column; align-items: center; margin-top: -40px;""><img src=""images/pattern_3.png"" style=""width: 234px; height: 230px; margin-top: -50px;""><div style=""display: flex; justify-content: space-between; margin-top: 33px;""><img src=""images/choice_trial_14.png"" style=""width: 408px; height: 417px; margin-right: 608px;""></div></div>","null","delaylearn","learning","display_response","659817d80a3213cd1b4dced3","Cky2w6eXF2f7kdwKRdBT7tS4jjm2","","","","","","","","","","","","","","","","","chosen stimuli: images/choice_trial_14.png","","","",""
"html-keyboard-response","81","172096","0.0-35.0-2.0","","null","","null","delaylearn","learning","feedback_duration_window","659817d80a3213cd1b4dced3","Cky2w6eXF2f7kdwKRdBT7tS4jjm2","","","","","","","","","","","","","","","","","","7000","","",""
"html-keyboard-response","82","173612","0.0-35.0-3.0","","null","<div style='margin:auto;width: auto; font-size: 150%'><span style='font-weight: bold; font-size: 100px; color: green;'>+10 points!</span><br><br></div>","null","delaylearn","learning","feedback_image_window","659817d80a3213cd1b4dced3","Cky2w6eXF2f7kdwKRdBT7tS4jjm2","","","","","","","","","","","","","","","","","","","","",""
"html-keyboard-response","83","175394","0.0-36.0","","null","<div style=""font-size:100px;"">+</div>","null","delaylearn","learning","ITI","659817d80a3213cd1b4dced3","Cky2w6eXF2f7kdwKRdBT7tS4jjm2","","","","","","","","","","","","","","","","","","","1772","",""
"html-keyboard-response","84","176099","0.0-37.0-0.0","","699.5","<div style=""display: flex; flex-direction: column; align-items: center; margin-top: -40px;""><img src=""images/pattern_5.png"" style=""width: 234px; height: 230px; margin-top: -50px;""><div style=""display: flex; justify-content: space-between; margin-top: 33px;""><img src=""images/choice_trial_2.png"" style=""width: 408px; height: 417px; margin-right: 200px;""><img src=""images/choice_trial_9.png"" style=""width: 408px; height: 417px;""></div></div>","f","delaylearn","learning","trial","659817d80a3213cd1b4dced3","Cky2w6eXF2f7kdwKRdBT7tS4jjm2","2","images/choice_trial_2.png","images/choice_trial_9.png","images/pattern_5.png","f","f","750","2","9","4","0","16","1","1","2","90","","","","",""
"html-keyboard-response","85","177113","0.0-37.0-1.0","","null","<div style=""display: flex; flex-direction: column; align-items: center; margin-top: -40px;""><img src=""images/pattern_5.png"" style=""width: 234px; height: 230px; margin-top: -50px;""><div style=""display: flex; justify-content: space-between; margin-top: 33px;""><img src=""images/choice_trial_2.png"" style=""width: 408px; height: 417px; margin-right: 608px;""></div></div>","null","delaylearn","learning","display_response","659817d80a3213cd1b4dced3","Cky2w6eXF2f7kdwKRdBT7tS4jjm2","","","","","","","","","","","","","","","","","chosen stimuli: images/choice_trial_2.png","","","",""
"html-keyboard-response","86","177876","0.0-37.0-2.0","","null","","null","delaylearn","learning","feedback_duration_window","659817d80a3213cd1b4dced3","Cky2w6eXF2f7kdwKRdBT7tS4jjm2","","","","","","","","","","","","","","","","","","750","","",""
"html-keyboard-response","87","179388","0.0-37.0-3.0","","null","<div style='margin:auto;width: auto; font-size: 150%'><span style='font-weight: bold; font-size: 100px; color: green;'>+10 points!</span><br><br></div>","null","delaylearn","learning","feedback_image_window","659817d80a3213cd1b4dced3","Cky2w6eXF2f7kdwKRdBT7tS4jjm2","","","","","","","","","","","","","","","","","","","","",""
"html-keyboard-response","88","179894","0.0-38.0-0.0","","null","","null","","","mood_trial_fixation","","","","","","","","","","","","","","","","","","","","","","",""
"lmdlab-html-vas-response","89","185172","0.0-38.0-1.0","","4256","How happy are you right now?","0.8086660381050563","delaylearn","learning","mood_trial","659817d80a3213cd1b4dced3","Cky2w6eXF2f7kdwKRdBT7tS4jjm2","","","","","","","","","","","","","","","","","","","","[""Very unhappy"",""Very happy""]",""
"html-keyboard-response","90","187441","0.0-39.0","","null","<div style=""font-size:100px;"">+</div>","null","delaylearn","learning","ITI","659817d80a3213cd1b4dced3","Cky2w6eXF2f7kdwKRdBT7tS4jjm2","","","","","","","","","","","","","","","","","","","2249","",""
"html-keyboard-response","91","188928","0.0-40.0-0.0","","1482.9000000059605","<div style=""display: flex; flex-direction: column; align-items: center; margin-top: -40px;""><img src=""images/pattern_6.png"" style=""width: 234px; height: 230px; margin-top: -50px;""><div style=""display: flex; justify-content: space-between; margin-top: 33px;""><img src=""images/choice_trial_11.png"" style=""width: 408px; height: 417px; margin-right: 200px;""><img src=""images/choice_trial_5.png"" style=""width: 408px; height: 417px;""></div></div>","j","delaylearn","learning","trial","659817d80a3213cd1b4dced3","Cky2w6eXF2f7kdwKRdBT7tS4jjm2","2","images/choice_trial_11.png","images/choice_trial_5.png","images/pattern_6.png","f","f","750","11","5","5","0","17","0","0","5","90","","","","",""
"html-keyboard-response","92","189945","0.0-40.0-1.0","","null","<div style=""display: flex; flex-direction: column; align-items: center; margin-top: -40px;""><img src=""images/pattern_6.png"" style=""width: 234px; height: 230px; margin-top: -50px;""><div style=""display: flex; justify-content: space-between; margin-top: 33px;""><img src=""images/choice_trial_5.png"" style=""width: 408px; height: 417px; margin-left:608px;""></div></div>","null","delaylearn","learning","display_response","659817d80a3213cd1b4dced3","Cky2w6eXF2f7kdwKRdBT7tS4jjm2","","","","","","","","","","","","","","","","","chosen stimuli: images/choice_trial_5.png","","","",""
"html-keyboard-response","93","190712","0.0-40.0-2.0","","null","","null","delaylearn","learning","feedback_duration_window","659817d80a3213cd1b4dced3","Cky2w6eXF2f7kdwKRdBT7tS4jjm2","","","","","","","","","","","","","","","","","","750","","",""
"html-keyboard-response","94","192227","0.0-40.0-3.0","","null","<div style='margin:auto;width: auto; font-size: 150%'><span style='font-weight: bold; font-size: 100px; color: red;'>0 points!</span><br><br></div>","null","delaylearn","learning","feedback_image_window","659817d80a3213cd1b4dced3","Cky2w6eXF2f7kdwKRdBT7tS4jjm2","","","","","","","","","","","","","","","","","","","","",""
"html-keyboard-response","95","193777","0.0-41.0","","null","<div style=""font-size:100px;"">+</div>","null","delaylearn","learning","ITI","659817d80a3213cd1b4dced3","Cky2w6eXF2f7kdwKRdBT7tS4jjm2","","","","","","","","","","","","","","","","","","","1539","",""
"html-keyboard-response","96","194719","0.0-42.0-0.0","","937.2999999821186","<div style=""display: flex; flex-direction: column; align-items: center; margin-top: -40px;""><img src=""images/pattern_4.png"" style=""width: 234px; height: 230px; margin-top: -50px;""><div style=""display: flex; justify-content: space-between; margin-top: 33px;""><img src=""images/choice_trial_16.png"" style=""width: 408px; height: 417px; margin-right: 200px;""><img src=""images/choice_trial_4.png"" style=""width: 408px; height: 417px;""></div></div>","f","delaylearn","learning","trial","659817d80a3213cd1b4dced3","Cky2w6eXF2f7kdwKRdBT7tS4jjm2","2","images/choice_trial_16.png","images/choice_trial_4.png","images/pattern_4.png","j","j","7000","16","4","3","1","18","0","0","16","90","","","","",""
"html-keyboard-response","97","195724","0.0-42.0-1.0","","null","<div style=""display: flex; flex-direction: column; align-items: center; margin-top: -40px;""><img src=""images/pattern_4.png"" style=""width: 234px; height: 230px; margin-top: -50px;""><div style=""display: flex; justify-content: space-between; margin-top: 33px;""><img src=""images/choice_trial_16.png"" style=""width: 408px; height: 417px; margin-right: 608px;""></div></div>","null","delaylearn","learning","display_response","659817d80a3213cd1b4dced3","Cky2w6eXF2f7kdwKRdBT7tS4jjm2","","","","","","","","","","","","","","","","","chosen stimuli: images/choice_trial_16.png","","","",""
"html-keyboard-response","98","202735","0.0-42.0-2.0","","null","","null","delaylearn","learning","feedback_duration_window","659817d80a3213cd1b4dced3","Cky2w6eXF2f7kdwKRdBT7tS4jjm2","","","","","","","","","","","","","","","","","","7000","","",""
"html-keyboard-response","99","204247","0.0-42.0-3.0","","null","<div style='margin:auto;width: auto; font-size: 150%'><span style='font-weight: bold; font-size: 100px; color: red;'>0 points!</span><br><br></div>","null","delaylearn","learning","feedback_image_window","659817d80a3213cd1b4dced3","Cky2w6eXF2f7kdwKRdBT7tS4jjm2","","","","","","","","","","","","","","","","","","","","",""
"html-keyboard-response","100","206225","0.0-43.0","","null","<div style=""font-size:100px;"">+</div>","null","delaylearn","learning","ITI","659817d80a3213cd1b4dced3","Cky2w6eXF2f7kdwKRdBT7tS4jjm2","","","","","","","","","","","","","","","","","","","1969","",""
"html-keyboard-response","101","207161","0.0-44.0-0.0","","930.5","<div style=""display: flex; flex-direction: column; align-items: center; margin-top: -40px;""><img src=""images/pattern_7.png"" style=""width: 234px; height: 230px; margin-top: -50px;""><div style=""display: flex; justify-content: space-between; margin-top: 33px;""><img src=""images/choice_trial_8.png"" style=""width: 408px; height: 417px; margin-right: 200px;""><img src=""images/choice_trial_15.png"" style=""width: 408px; height: 417px;""></div></div>","j","delaylearn","learning","trial","659817d80a3213cd1b4dced3","Cky2w6eXF2f7kdwKRdBT7tS4jjm2","2","images/choice_trial_8.png","images/choice_trial_15.png","images/pattern_7.png","j","f","750","8","15","6","0","19","0","1","15","100","","","","",""
"html-keyboard-response","102","208177","0.0-44.0-1.0","","null","<div style=""display: flex; flex-direction: column; align-items: center; margin-top: -40px;""><img src=""images/pattern_7.png"" style=""width: 234px; height: 230px; margin-top: -50px;""><div style=""display: flex; justify-content: space-between; margin-top: 33px;""><img src=""images/choice_trial_15.png"" style=""width: 408px; height: 417px; margin-left:608px;""></div></div>","null","delaylearn","learning","display_response","659817d80a3213cd1b4dced3","Cky2w6eXF2f7kdwKRdBT7tS4jjm2","","","","","","","","","","","","","","","","","chosen stimuli: images/choice_trial_15.png","","","",""
"html-keyboard-response","103","208945","0.0-44.0-2.0","","null","","null","delaylearn","learning","feedback_duration_window","659817d80a3213cd1b4dced3","Cky2w6eXF2f7kdwKRdBT7tS4jjm2","","","","","","","","","","","","","","","","","","750","","",""
"html-keyboard-response","104","210462","0.0-44.0-3.0","","null","<div style='margin:auto;width: auto; font-size: 150%'><span style='font-weight: bold; font-size: 100px; color: green;'>+10 points!</span><br><br></div>","null","delaylearn","learning","feedback_image_window","659817d80a3213cd1b4dced3","Cky2w6eXF2f7kdwKRdBT7tS4jjm2","","","","","","","","","","","","","","","","","","","","",""
"html-keyboard-response","105","212745","0.0-45.0","","null","<div style=""font-size:100px;"">+</div>","null","delaylearn","learning","ITI","659817d80a3213cd1b4dced3","Cky2w6eXF2f7kdwKRdBT7tS4jjm2","","","","","","","","","","","","","","","","","","","2264","",""
"html-keyboard-response","106","213805","0.0-46.0-0.0","","1054.7000000178814","<div style=""display: flex; flex-direction: column; align-items: center; margin-top: -40px;""><img src=""images/pattern_1.png"" style=""width: 234px; height: 230px; margin-top: -50px;""><div style=""display: flex; justify-content: space-between; margin-top: 33px;""><img src=""images/choice_trial_3.png"" style=""width: 408px; height: 417px; margin-right: 200px;""><img src=""images/choice_trial_10.png"" style=""width: 408px; height: 417px;""></div></div>","j","delaylearn","learning","trial","659817d80a3213cd1b4dced3","Cky2w6eXF2f7kdwKRdBT7tS4jjm2","2","images/choice_trial_3.png","images/choice_trial_10.png","images/pattern_1.png","f","f","7000","3","10","1","0","20","0","0","10","100","","","","",""
"html-keyboard-response","107","214812","0.0-46.0-1.0","","null","<div style=""display: flex; flex-direction: column; align-items: center; margin-top: -40px;""><img src=""images/pattern_1.png"" style=""width: 234px; height: 230px; margin-top: -50px;""><div style=""display: flex; justify-content: space-between; margin-top: 33px;""><img src=""images/choice_trial_10.png"" style=""width: 408px; height: 417px; margin-left:608px;""></div></div>","null","delaylearn","learning","display_response","659817d80a3213cd1b4dced3","Cky2w6eXF2f7kdwKRdBT7tS4jjm2","","","","","","","","","","","","","","","","","chosen stimuli: images/choice_trial_10.png","","","",""
"html-keyboard-response","108","221860","0.0-46.0-2.0","","null","","null","delaylearn","learning","feedback_duration_window","659817d80a3213cd1b4dced3","Cky2w6eXF2f7kdwKRdBT7tS4jjm2","","","","","","","","","","","","","","","","","","7000","","",""
"html-keyboard-response","109","223371","0.0-46.0-3.0","","null","<div style='margin:auto;width: auto; font-size: 150%'><span style='font-weight: bold; font-size: 100px; color: red;'>0 points!</span><br><br></div>","null","delaylearn","learning","feedback_image_window","659817d80a3213cd1b4dced3","Cky2w6eXF2f7kdwKRdBT7tS4jjm2","","","","","","","","","","","","","","","","","","","","",""
"html-keyboard-response","110","225453","0.0-47.0","","null","<div style=""font-size:100px;"">+</div>","null","delaylearn","learning","ITI","659817d80a3213cd1b4dced3","Cky2w6eXF2f7kdwKRdBT7tS4jjm2","","","","","","","","","","","","","","","","","","","2074","",""
"html-keyboard-response","111","226654","0.0-48.0-0.0","","1195.800000011921","<div style=""display: flex; flex-direction: column; align-items: center; margin-top: -40px;""><img src=""images/pattern_6.png"" style=""width: 234px; height: 230px; margin-top: -50px;""><div style=""display: flex; justify-content: space-between; margin-top: 33px;""><img src=""images/choice_trial_5.png"" style=""width: 408px; height: 417px; margin-right: 200px;""><img src=""images/choice_trial_11.png"" style=""width: 408px; height: 417px;""></div></div>","f","delaylearn","learning","trial","659817d80a3213cd1b4dced3","Cky2w6eXF2f7kdwKRdBT7tS4jjm2","2","images/choice_trial_5.png","images/choice_trial_11.png","images/pattern_6.png","j","j","750","5","11","5","1","21","0","0","5","100","","","","",""
"html-keyboard-response","112","227675","0.0-48.0-1.0","","null","<div style=""display: flex; flex-direction: column; align-items: center; margin-top: -40px;""><img src=""images/pattern_6.png"" style=""width: 234px; height: 230px; margin-top: -50px;""><div style=""display: flex; justify-content: space-between; margin-top: 33px;""><img src=""images/choice_trial_5.png"" style=""width: 408px; height: 417px; margin-right: 608px;""></div></div>","null","delaylearn","learning","display_response","659817d80a3213cd1b4dced3","Cky2w6eXF2f7kdwKRdBT7tS4jjm2","","","","","","","","","","","","","","","","","chosen stimuli: images/choice_trial_5.png","","","",""
"html-keyboard-response","113","228442","0.0-48.0-2.0","","null","","null","delaylearn","learning","feedback_duration_window","659817d80a3213cd1b4dced3","Cky2w6eXF2f7kdwKRdBT7tS4jjm2","","","","","","","","","","","","","","","","","","750","","",""
"html-keyboard-response","114","229945","0.0-48.0-3.0","","null","<div style='margin:auto;width: auto; font-size: 150%'><span style='font-weight: bold; font-size: 100px; color: red;'>0 points!</span><br><br></div>","null","delaylearn","learning","feedback_image_window","659817d80a3213cd1b4dced3","Cky2w6eXF2f7kdwKRdBT7tS4jjm2","","","","","","","","","","","","","","","","","","","","",""
"html-keyboard-response","115","231895","0.0-49.0","","null","<div style=""font-size:100px;"">+</div>","null","delaylearn","learning","ITI","659817d80a3213cd1b4dced3","Cky2w6eXF2f7kdwKRdBT7tS4jjm2","","","","","","","","","","","","","","","","","","","1944","",""
"html-keyboard-response","116","233167","0.0-50.0-0.0","","1266.0999999940395","<div style=""display: flex; flex-direction: column; align-items: center; margin-top: -40px;""><img src=""images/pattern_4.png"" style=""width: 234px; height: 230px; margin-top: -50px;""><div style=""display: flex; justify-content: space-between; margin-top: 33px;""><img src=""images/choice_trial_4.png"" style=""width: 408px; height: 417px; margin-right: 200px;""><img src=""images/choice_trial_16.png"" style=""width: 408px; height: 417px;""></div></div>","j","delaylearn","learning","trial","659817d80a3213cd1b4dced3","Cky2w6eXF2f7kdwKRdBT7tS4jjm2","2","images/choice_trial_4.png","images/choice_trial_16.png","images/pattern_4.png","f","f","7000","4","16","3","0","22","0","0","16","100","","","","",""
"html-keyboard-response","117","234177","0.0-50.0-1.0","","null","<div style=""display: flex; flex-direction: column; align-items: center; margin-top: -40px;""><img src=""images/pattern_4.png"" style=""width: 234px; height: 230px; margin-top: -50px;""><div style=""display: flex; justify-content: space-between; margin-top: 33px;""><img src=""images/choice_trial_16.png"" style=""width: 408px; height: 417px; margin-left:608px;""></div></div>","null","delaylearn","learning","display_response","659817d80a3213cd1b4dced3","Cky2w6eXF2f7kdwKRdBT7tS4jjm2","","","","","","","","","","","","","","","","","chosen stimuli: images/choice_trial_16.png","","","",""
"html-keyboard-response","118","241186","0.0-50.0-2.0","","null","","null","delaylearn","learning","feedback_duration_window","659817d80a3213cd1b4dced3","Cky2w6eXF2f7kdwKRdBT7tS4jjm2","","","","","","","","","","","","","","","","","","7000","","",""
"html-keyboard-response","119","242690","0.0-50.0-3.0","","null","<div style='margin:auto;width: auto; font-size: 150%'><span style='font-weight: bold; font-size: 100px; color: red;'>0 points!</span><br><br></div>","null","delaylearn","learning","feedback_image_window","659817d80a3213cd1b4dced3","Cky2w6eXF2f7kdwKRdBT7tS4jjm2","","","","","","","","","","","","","","","","","","","","",""
"html-keyboard-response","120","243202","0.0-51.0-0.0","","null","","null","","","mood_trial_fixation","","","","","","","","","","","","","","","","","","","","","","",""
"lmdlab-html-vas-response","121","248656","0.0-51.0-1.0","","4438","How happy are you right now?","0.8549623322210274","delaylearn","learning","mood_trial","659817d80a3213cd1b4dced3","Cky2w6eXF2f7kdwKRdBT7tS4jjm2","","","","","","","","","","","","","","","","","","","","[""Very unhappy"",""Very happy""]",""
"html-keyboard-response","122","250853","0.0-52.0","","null","<div style=""font-size:100px;"">+</div>","null","delaylearn","learning","ITI","659817d80a3213cd1b4dced3","Cky2w6eXF2f7kdwKRdBT7tS4jjm2","","","","","","","","","","","","","","","","","","","2182","",""
"html-keyboard-response","123","253562","0.0-53.0-0.0","","2704.5","<div style=""display: flex; flex-direction: column; align-items: center; margin-top: -40px;""><img src=""images/pattern_7.png"" style=""width: 234px; height: 230px; margin-top: -50px;""><div style=""display: flex; justify-content: space-between; margin-top: 33px;""><img src=""images/choice_trial_15.png"" style=""width: 408px; height: 417px; margin-right: 200px;""><img src=""images/choice_trial_8.png"" style=""width: 408px; height: 417px;""></div></div>","f","delaylearn","learning","trial","659817d80a3213cd1b4dced3","Cky2w6eXF2f7kdwKRdBT7tS4jjm2","2","images/choice_trial_15.png","images/choice_trial_8.png","images/pattern_7.png","j","j","750","15","8","6","1","23","0","0","15","100","","","","",""
"html-keyboard-response","124","254574","0.0-53.0-1.0","","null","<div style=""display: flex; flex-direction: column; align-items: center; margin-top: -40px;""><img src=""images/pattern_7.png"" style=""width: 234px; height: 230px; margin-top: -50px;""><div style=""display: flex; justify-content: space-between; margin-top: 33px;""><img src=""images/choice_trial_15.png"" style=""width: 408px; height: 417px; margin-right: 608px;""></div></div>","null","delaylearn","learning","display_response","659817d80a3213cd1b4dced3","Cky2w6eXF2f7kdwKRdBT7tS4jjm2","","","","","","","","","","","","","","","","","chosen stimuli: images/choice_trial_15.png","","","",""
"html-keyboard-response","125","255332","0.0-53.0-2.0","","null","","null","delaylearn","learning","feedback_duration_window","659817d80a3213cd1b4dced3","Cky2w6eXF2f7kdwKRdBT7tS4jjm2","","","","","","","","","","","","","","","","","","750","","",""
"html-keyboard-response","126","256846","0.0-53.0-3.0","","null","<div style='margin:auto;width: auto; font-size: 150%'><span style='font-weight: bold; font-size: 100px; color: red;'>0 points!</span><br><br></div>","null","delaylearn","learning","feedback_image_window","659817d80a3213cd1b4dced3","Cky2w6eXF2f7kdwKRdBT7tS4jjm2","","","","","","","","","","","","","","","","","","","","",""
"html-keyboard-response","127","258410","0.0-54.0","","null","<div style=""font-size:100px;"">+</div>","null","delaylearn","learning","ITI","659817d80a3213cd1b4dced3","Cky2w6eXF2f7kdwKRdBT7tS4jjm2","","","","","","","","","","","","","","","","","","","1555","",""
"html-keyboard-response","128","260900","0.0-55.0-0.0","","2484","<div style=""display: flex; flex-direction: column; align-items: center; margin-top: -40px;""><img src=""images/pattern_1.png"" style=""width: 234px; height: 230px; margin-top: -50px;""><div style=""display: flex; justify-content: space-between; margin-top: 33px;""><img src=""images/choice_trial_10.png"" style=""width: 408px; height: 417px; margin-right: 200px;""><img src=""images/choice_trial_3.png"" style=""width: 408px; height: 417px;""></div></div>","f","delaylearn","learning","trial","659817d80a3213cd1b4dced3","Cky2w6eXF2f7kdwKRdBT7tS4jjm2","2","images/choice_trial_10.png","images/choice_trial_3.png","images/pattern_1.png","f","j","7000","10","3","1","1","24","0","1","10","110","","","","",""
"html-keyboard-response","129","261911","0.0-55.0-1.0","","null","<div style=""display: flex; flex-direction: column; align-items: center; margin-top: -40px;""><img src=""images/pattern_1.png"" style=""width: 234px; height: 230px; margin-top: -50px;""><div style=""display: flex; justify-content: space-between; margin-top: 33px;""><img src=""images/choice_trial_10.png"" style=""width: 408px; height: 417px; margin-right: 608px;""></div></div>","null","delaylearn","learning","display_response","659817d80a3213cd1b4dced3","Cky2w6eXF2f7kdwKRdBT7tS4jjm2","","","","","","","","","","","","","","","","","chosen stimuli: images/choice_trial_10.png","","","",""
"html-keyboard-response","130","268920","0.0-55.0-2.0","","null","","null","delaylearn","learning","feedback_duration_window","659817d80a3213cd1b4dced3","Cky2w6eXF2f7kdwKRdBT7tS4jjm2","","","","","","","","","","","","","","","","","","7000","","",""
"html-keyboard-response","131","270435","0.0-55.0-3.0","","null","<div style='margin:auto;width: auto; font-size: 150%'><span style='font-weight: bold; font-size: 100px; color: green;'>+10 points!</span><br><br></div>","null","delaylearn","learning","feedback_image_window","659817d80a3213cd1b4dced3","Cky2w6eXF2f7kdwKRdBT7tS4jjm2","","","","","","","","","","","","","","","","","","","","",""
"html-keyboard-response","132","272204","0.0-56.0","","null","<div style=""font-size:100px;"">+</div>","null","delaylearn","learning","ITI","659817d80a3213cd1b4dced3","Cky2w6eXF2f7kdwKRdBT7tS4jjm2","","","","","","","","","","","","","","","","","","","1757","",""
"html-keyboard-response","133","274052","0.0-57.0-0.0","","1842.300000011921","<div style=""display: flex; flex-direction: column; align-items: center; margin-top: -40px;""><img src=""images/pattern_5.png"" style=""width: 234px; height: 230px; margin-top: -50px;""><div style=""display: flex; justify-content: space-between; margin-top: 33px;""><img src=""images/choice_trial_9.png"" style=""width: 408px; height: 417px; margin-right: 200px;""><img src=""images/choice_trial_2.png"" style=""width: 408px; height: 417px;""></div></div>","j","delaylearn","learning","trial","659817d80a3213cd1b4dced3","Cky2w6eXF2f7kdwKRdBT7tS4jjm2","2","images/choice_trial_9.png","images/choice_trial_2.png","images/pattern_5.png","j","j","750","9","2","4","1","25","1","1","2","120","","","","",""
"html-keyboard-response","134","275061","0.0-57.0-1.0","","null","<div style=""display: flex; flex-direction: column; align-items: center; margin-top: -40px;""><img src=""images/pattern_5.png"" style=""width: 234px; height: 230px; margin-top: -50px;""><div style=""display: flex; justify-content: space-between; margin-top: 33px;""><img src=""images/choice_trial_2.png"" style=""width: 408px; height: 417px; margin-left:608px;""></div></div>","null","delaylearn","learning","display_response","659817d80a3213cd1b4dced3","Cky2w6eXF2f7kdwKRdBT7tS4jjm2","","","","","","","","","","","","","","","","","chosen stimuli: images/choice_trial_2.png","","","",""
"html-keyboard-response","135","275824","0.0-57.0-2.0","","null","","null","delaylearn","learning","feedback_duration_window","659817d80a3213cd1b4dced3","Cky2w6eXF2f7kdwKRdBT7tS4jjm2","","","","","","","","","","","","","","","","","","750","","",""
"html-keyboard-response","136","277341","0.0-57.0-3.0","","null","<div style='margin:auto;width: auto; font-size: 150%'><span style='font-weight: bold; font-size: 100px; color: green;'>+10 points!</span><br><br></div>","null","delaylearn","learning","feedback_image_window","659817d80a3213cd1b4dced3","Cky2w6eXF2f7kdwKRdBT7tS4jjm2","","","","","","","","","","","","","","","","","","","","",""
"html-keyboard-response","137","279276","0.0-58.0","","null","<div style=""font-size:100px;"">+</div>","null","delaylearn","learning","ITI","659817d80a3213cd1b4dced3","Cky2w6eXF2f7kdwKRdBT7tS4jjm2","","","","","","","","","","","","","","","","","","","1913","",""
"html-keyboard-response","138","280890","0.0-59.0-0.0","","1608","<div style=""display: flex; flex-direction: column; align-items: center; margin-top: -40px;""><img src=""images/pattern_3.png"" style=""width: 234px; height: 230px; margin-top: -50px;""><div style=""display: flex; justify-content: space-between; margin-top: 33px;""><img src=""images/choice_trial_14.png"" style=""width: 408px; height: 417px; margin-right: 200px;""><img src=""images/choice_trial_12.png"" style=""width: 408px; height: 417px;""></div></div>","j","delaylearn","learning","trial","659817d80a3213cd1b4dced3","Cky2w6eXF2f7kdwKRdBT7tS4jjm2","2","images/choice_trial_14.png","images/choice_trial_12.png","images/pattern_3.png","j","j","7000","14","12","2","1","26","1","1","12","130","","","","",""
"html-keyboard-response","139","281904","0.0-59.0-1.0","","null","<div style=""display: flex; flex-direction: column; align-items: center; margin-top: -40px;""><img src=""images/pattern_3.png"" style=""width: 234px; height: 230px; margin-top: -50px;""><div style=""display: flex; justify-content: space-between; margin-top: 33px;""><img src=""images/choice_trial_12.png"" style=""width: 408px; height: 417px; margin-left:608px;""></div></div>","null","delaylearn","learning","display_response","659817d80a3213cd1b4dced3","Cky2w6eXF2f7kdwKRdBT7tS4jjm2","","","","","","","","","","","","","","","","","chosen stimuli: images/choice_trial_12.png","","","",""
"html-keyboard-response","140","288920","0.0-59.0-2.0","","null","","null","delaylearn","learning","feedback_duration_window","659817d80a3213cd1b4dced3","Cky2w6eXF2f7kdwKRdBT7tS4jjm2","","","","","","","","","","","","","","","","","","7000","","",""
"html-keyboard-response","141","290424","0.0-59.0-3.0","","null","<div style='margin:auto;width: auto; font-size: 150%'><span style='font-weight: bold; font-size: 100px; color: green;'>+10 points!</span><br><br></div>","null","delaylearn","learning","feedback_image_window","659817d80a3213cd1b4dced3","Cky2w6eXF2f7kdwKRdBT7tS4jjm2","","","","","","","","","","","","","","","","","","","","",""
"lmdlab-html-vas-response","142","299043","0.0-60.0-0.0","","7084","*How <b><u>confident</u></b> are you feeling about your answers at this moment?*","0.3823301935864581","rewlearn","rate_confidence","","659817d80a3213cd1b4dced3","Cky2w6eXF2f7kdwKRdBT7tS4jjm2","","","","","","","","","","","","","","","","","","","","[""No confidence"",""Complete confidence""]",""
"lmdlab-rest-trial-limit","143","488552","0.0-60.0-1.0","","188000","<div style=""font-size:40px;""><b>Please take a break!</b><br><br><br><br><p>Great work: you earned 130 points.<br><br><br><p>You have completed part(s) 1 of 5.<br><br><br><br>When you are ready to continue<br><br><br>please click the button.</p><br><br>","0","delaylearn","learning","break","659817d80a3213cd1b4dced3","Cky2w6eXF2f7kdwKRdBT7tS4jjm2","","","","","","","","","","","","","","","","","","","","","0"
"html-keyboard-response","144","491564","0.0-60.0-2.0","","null","<div style=""font-size:100px;"">+</div>","null","delaylearn","learning","pre_fixation","659817d80a3213cd1b4dced3","","","","","","","","","","","","","","","","","","","","","",""
"lmdlab-html-vas-response","145","496418","0.0-60.0-3.0-0.0","","3830","How happy are you right now?","0.8260271483985454","delaylearn","learning","mood_baseline","659817d80a3213cd1b4dced3","Cky2w6eXF2f7kdwKRdBT7tS4jjm2","","","","","","","","","","","","","","","","","","","","[""Very unhappy"",""Very happy""]",""
"html-keyboard-response","146","497943","0.0-60.0-3.0-1.0","","null","","null","","","mood_baseline_fixation","","","","","","","","","","","","","","","","","","","","","","",""
"html-keyboard-response","147","500195","0.0-61.0","","null","<div style=""font-size:100px;"">+</div>","null","delaylearn","learning","ITI","659817d80a3213cd1b4dced3","Cky2w6eXF2f7kdwKRdBT7tS4jjm2","","","","","","","","","","","","","","","","","","","2241","",""
"html-keyboard-response","148","501863","0.0-62.0-0.0","","1663.2000000178814","<div style=""display: flex; flex-direction: column; align-items: center; margin-top: -40px;""><img src=""images/pattern_7.png"" style=""width: 234px; height: 230px; margin-top: -50px;""><div style=""display: flex; justify-content: space-between; margin-top: 33px;""><img src=""images/choice_trial_15.png"" style=""width: 408px; height: 417px; margin-right: 200px;""><img src=""images/choice_trial_8.png"" style=""width: 408px; height: 417px;""></div></div>","j","delaylearn","learning","trial","659817d80a3213cd1b4dced3","Cky2w6eXF2f7kdwKRdBT7tS4jjm2","2","images/choice_trial_15.png","images/choice_trial_8.png","images/pattern_7.png","j","j","750","15","8","6","1","27","1","1","8","140","","","","",""
"html-keyboard-response","149","502875","0.0-62.0-1.0","","null","<div style=""display: flex; flex-direction: column; align-items: center; margin-top: -40px;""><img src=""images/pattern_7.png"" style=""width: 234px; height: 230px; margin-top: -50px;""><div style=""display: flex; justify-content: space-between; margin-top: 33px;""><img src=""images/choice_trial_8.png"" style=""width: 408px; height: 417px; margin-left:608px;""></div></div>","null","delaylearn","learning","display_response","659817d80a3213cd1b4dced3","Cky2w6eXF2f7kdwKRdBT7tS4jjm2","","","","","","","","","","","","","","","","","chosen stimuli: images/choice_trial_8.png","","","",""
"html-keyboard-response","150","503643","0.0-62.0-2.0","","null","","null","delaylearn","learning","feedback_duration_window","659817d80a3213cd1b4dced3","Cky2w6eXF2f7kdwKRdBT7tS4jjm2","","","","","","","","","","","","","","","","","","750","","",""
"html-keyboard-response","151","505152","0.0-62.0-3.0","","null","<div style='margin:auto;width: auto; font-size: 150%'><span style='font-weight: bold; font-size: 100px; color: green;'>+10 points!</span><br><br></div>","null","delaylearn","learning","feedback_image_window","659817d80a3213cd1b4dced3","Cky2w6eXF2f7kdwKRdBT7tS4jjm2","","","","","","","","","","","","","","","","","","","","",""
"html-keyboard-response","152","505670","0.0-63.0-0.0","","null","","null","","","mood_trial_fixation","","","","","","","","","","","","","","","","","","","","","","",""
"lmdlab-html-vas-response","153","511560","0.0-63.0-1.0","","4868","How happy are you right now?","0.9166907243756554","delaylearn","learning","mood_trial","659817d80a3213cd1b4dced3","Cky2w6eXF2f7kdwKRdBT7tS4jjm2","","","","","","","","","","","","","","","","","","","","[""Very unhappy"",""Very happy""]",""
"html-keyboard-response","154","513123","0.0-64.0","","null","<div style=""font-size:100px;"">+</div>","null","delaylearn","learning","ITI","659817d80a3213cd1b4dced3","Cky2w6eXF2f7kdwKRdBT7tS4jjm2","","","","","","","","","","","","","","","","","","","1546","",""
"html-keyboard-response","155","515849","0.0-65.0-0.0","","2721.4000000059605","<div style=""display: flex; flex-direction: column; align-items: center; margin-top: -40px;""><img src=""images/pattern_1.png"" style=""width: 234px; height: 230px; margin-top: -50px;""><div style=""display: flex; justify-content: space-between; margin-top: 33px;""><img src=""images/choice_trial_3.png"" style=""width: 408px; height: 417px; margin-right: 200px;""><img src=""images/choice_trial_10.png"" style=""width: 408px; height: 417px;""></div></div>","j","delaylearn","learning","trial","659817d80a3213cd1b4dced3","Cky2w6eXF2f7kdwKRdBT7tS4jjm2","2","images/choice_trial_3.png","images/choice_trial_10.png","images/pattern_1.png","f","f","7000","3","10","1","0","28","0","0","10","140","","","","",""
"html-keyboard-response","156","516861","0.0-65.0-1.0","","null","<div style=""display: flex; flex-direction: column; align-items: center; margin-top: -40px;""><img src=""images/pattern_1.png"" style=""width: 234px; height: 230px; margin-top: -50px;""><div style=""display: flex; justify-content: space-between; margin-top: 33px;""><img src=""images/choice_trial_10.png"" style=""width: 408px; height: 417px; margin-left:608px;""></div></div>","null","delaylearn","learning","display_response","659817d80a3213cd1b4dced3","Cky2w6eXF2f7kdwKRdBT7tS4jjm2","","","","","","","","","","","","","","","","","chosen stimuli: images/choice_trial_10.png","","","",""
"html-keyboard-response","157","523867","0.0-65.0-2.0","","null","","null","delaylearn","learning","feedback_duration_window","659817d80a3213cd1b4dced3","Cky2w6eXF2f7kdwKRdBT7tS4jjm2","","","","","","","","","","","","","","","","","","7000","","",""
"html-keyboard-response","158","525378","0.0-65.0-3.0","","null","<div style='margin:auto;width: auto; font-size: 150%'><span style='font-weight: bold; font-size: 100px; color: red;'>0 points!</span><br><br></div>","null","delaylearn","learning","feedback_image_window","659817d80a3213cd1b4dced3","Cky2w6eXF2f7kdwKRdBT7tS4jjm2","","","","","","","","","","","","","","","","","","","","",""
"html-keyboard-response","159","527505","0.0-66.0","","null","<div style=""font-size:100px;"">+</div>","null","delaylearn","learning","ITI","659817d80a3213cd1b4dced3","Cky2w6eXF2f7kdwKRdBT7tS4jjm2","","","","","","","","","","","","","","","","","","","2116","",""
"html-keyboard-response","160","529824","0.0-67.0-0.0","","2312.5","<div style=""display: flex; flex-direction: column; align-items: center; margin-top: -40px;""><img src=""images/pattern_5.png"" style=""width: 234px; height: 230px; margin-top: -50px;""><div style=""display: flex; justify-content: space-between; margin-top: 33px;""><img src=""images/choice_trial_2.png"" style=""width: 408px; height: 417px; margin-right: 200px;""><img src=""images/choice_trial_9.png"" style=""width: 408px; height: 417px;""></div></div>","f","delaylearn","learning","trial","659817d80a3213cd1b4dced3","Cky2w6eXF2f7kdwKRdBT7tS4jjm2","2","images/choice_trial_2.png","images/choice_trial_9.png","images/pattern_5.png","f","f","750","2","9","4","0","29","1","1","2","150","","","","",""
"html-keyboard-response","161","530839","0.0-67.0-1.0","","null","<div style=""display: flex; flex-direction: column; align-items: center; margin-top: -40px;""><img src=""images/pattern_5.png"" style=""width: 234px; height: 230px; margin-top: -50px;""><div style=""display: flex; justify-content: space-between; margin-top: 33px;""><img src=""images/choice_trial_2.png"" style=""width: 408px; height: 417px; margin-right: 608px;""></div></div>","null","delaylearn","learning","display_response","659817d80a3213cd1b4dced3","Cky2w6eXF2f7kdwKRdBT7tS4jjm2","","","","","","","","","","","","","","","","","chosen stimuli: images/choice_trial_2.png","","","",""
"html-keyboard-response","162","531604","0.0-67.0-2.0","","null","","null","delaylearn","learning","feedback_duration_window","659817d80a3213cd1b4dced3","Cky2w6eXF2f7kdwKRdBT7tS4jjm2","","","","","","","","","","","","","","","","","","750","","",""
"html-keyboard-response","163","533123","0.0-67.0-3.0","","null","<div style='margin:auto;width: auto; font-size: 150%'><span style='font-weight: bold; font-size: 100px; color: green;'>+10 points!</span><br><br></div>","null","delaylearn","learning","feedback_image_window","659817d80a3213cd1b4dced3","Cky2w6eXF2f7kdwKRdBT7tS4jjm2","","","","","","","","","","","","","","","","","","","","",""
"html-keyboard-response","164","534961","0.0-68.0","","null","<div style=""font-size:100px;"">+</div>","null","delaylearn","learning","ITI","659817d80a3213cd1b4dced3","Cky2w6eXF2f7kdwKRdBT7tS4jjm2","","","","","","","","","","","","","","","","","","","1824","",""
"html-keyboard-response","165","537116","0.0-69.0-0.0","","2149.2000000178814","<div style=""display: flex; flex-direction: column; align-items: center; margin-top: -40px;""><img src=""images/pattern_6.png"" style=""width: 234px; height: 230px; margin-top: -50px;""><div style=""display: flex; justify-content: space-between; margin-top: 33px;""><img src=""images/choice_trial_5.png"" style=""width: 408px; height: 417px; margin-right: 200px;""><img src=""images/choice_trial_11.png"" style=""width: 408px; height: 417px;""></div></div>","j","delaylearn","learning","trial","659817d80a3213cd1b4dced3","Cky2w6eXF2f7kdwKRdBT7tS4jjm2","2","images/choice_trial_5.png","images/choice_trial_11.png","images/pattern_6.png","j","j","750","5","11","5","1","30","1","1","11","160","","","","",""
"html-keyboard-response","166","538123","0.0-69.0-1.0","","null","<div style=""display: flex; flex-direction: column; align-items: center; margin-top: -40px;""><img src=""images/pattern_6.png"" style=""width: 234px; height: 230px; margin-top: -50px;""><div style=""display: flex; justify-content: space-between; margin-top: 33px;""><img src=""images/choice_trial_11.png"" style=""width: 408px; height: 417px; margin-left:608px;""></div></div>","null","delaylearn","learning","display_response","659817d80a3213cd1b4dced3","Cky2w6eXF2f7kdwKRdBT7tS4jjm2","","","","","","","","","","","","","","","","","chosen stimuli: images/choice_trial_11.png","","","",""
"html-keyboard-response","167","538897","0.0-69.0-2.0","","null","","null","delaylearn","learning","feedback_duration_window","659817d80a3213cd1b4dced3","Cky2w6eXF2f7kdwKRdBT7tS4jjm2","","","","","","","","","","","","","","","","","","750","","",""
"html-keyboard-response","168","540405","0.0-69.0-3.0","","null","<div style='margin:auto;width: auto; font-size: 150%'><span style='font-weight: bold; font-size: 100px; color: green;'>+10 points!</span><br><br></div>","null","delaylearn","learning","feedback_image_window","659817d80a3213cd1b4dced3","Cky2w6eXF2f7kdwKRdBT7tS4jjm2","","","","","","","","","","","","","","","","","","","","",""
"html-keyboard-response","169","540920","0.0-70.0-0.0","","null","","null","","","mood_trial_fixation","","","","","","","","","","","","","","","","","","","","","","",""
"lmdlab-html-vas-response","170","546222","0.0-70.0-1.0","","4278","How happy are you right now?","0.8183110993792169","delaylearn","learning","mood_trial","659817d80a3213cd1b4dced3","Cky2w6eXF2f7kdwKRdBT7tS4jjm2","","","","","","","","","","","","","","","","","","","","[""Very unhappy"",""Very happy""]",""
"html-keyboard-response","171","547795","0.0-71.0","","null","<div style=""font-size:100px;"">+</div>","null","delaylearn","learning","ITI","659817d80a3213cd1b4dced3","Cky2w6eXF2f7kdwKRdBT7tS4jjm2","","","","","","","","","","","","","","","","","","","1545","",""
"html-keyboard-response","172","549720","0.0-72.0-0.0","","1918.8999999761581","<div style=""display: flex; flex-direction: column; align-items: center; margin-top: -40px;""><img src=""images/pattern_4.png"" style=""width: 234px; height: 230px; margin-top: -50px;""><div style=""display: flex; justify-content: space-between; margin-top: 33px;""><img src=""images/choice_trial_16.png"" style=""width: 408px; height: 417px; margin-right: 200px;""><img src=""images/choice_trial_4.png"" style=""width: 408px; height: 417px;""></div></div>","j","delaylearn","learning","trial","659817d80a3213cd1b4dced3","Cky2w6eXF2f7kdwKRdBT7tS4jjm2","2","images/choice_trial_16.png","images/choice_trial_4.png","images/pattern_4.png","j","j","7000","16","4","3","1","31","1","1","4","170","","","","",""
"html-keyboard-response","173","550733","0.0-72.0-1.0","","null","<div style=""display: flex; flex-direction: column; align-items: center; margin-top: -40px;""><img src=""images/pattern_4.png"" style=""width: 234px; height: 230px; margin-top: -50px;""><div style=""display: flex; justify-content: space-between; margin-top: 33px;""><img src=""images/choice_trial_4.png"" style=""width: 408px; height: 417px; margin-left:608px;""></div></div>","null","delaylearn","learning","display_response","659817d80a3213cd1b4dced3","Cky2w6eXF2f7kdwKRdBT7tS4jjm2","","","","","","","","","","","","","","","","","chosen stimuli: images/choice_trial_4.png","","","",""
"html-keyboard-response","174","557744","0.0-72.0-2.0","","null","","null","delaylearn","learning","feedback_duration_window","659817d80a3213cd1b4dced3","Cky2w6eXF2f7kdwKRdBT7tS4jjm2","","","","","","","","","","","","","","","","","","7000","","",""
"html-keyboard-response","175","559257","0.0-72.0-3.0","","null","<div style='margin:auto;width: auto; font-size: 150%'><span style='font-weight: bold; font-size: 100px; color: green;'>+10 points!</span><br><br></div>","null","delaylearn","learning","feedback_image_window","659817d80a3213cd1b4dced3","Cky2w6eXF2f7kdwKRdBT7tS4jjm2","","","","","","","","","","","","","","","","","","","","",""
"html-keyboard-response","176","560979","0.0-73.0","","null","<div style=""font-size:100px;"">+</div>","null","delaylearn","learning","ITI","659817d80a3213cd1b4dced3","Cky2w6eXF2f7kdwKRdBT7tS4jjm2","","","","","","","","","","","","","","","","","","","1714","",""
"html-keyboard-response","177","563660","0.0-74.0-0.0","","2674.600000023842","<div style=""display: flex; flex-direction: column; align-items: center; margin-top: -40px;""><img src=""images/pattern_3.png"" style=""width: 234px; height: 230px; margin-top: -50px;""><div style=""display: flex; justify-content: space-between; margin-top: 33px;""><img src=""images/choice_trial_14.png"" style=""width: 408px; height: 417px; margin-right: 200px;""><img src=""images/choice_trial_12.png"" style=""width: 408px; height: 417px;""></div></div>","j","delaylearn","learning","trial","659817d80a3213cd1b4dced3","Cky2w6eXF2f7kdwKRdBT7tS4jjm2","2","images/choice_trial_14.png","images/choice_trial_12.png","images/pattern_3.png","j","j","7000","14","12","2","1","32","1","1","12","180","","","","",""
"html-keyboard-response","178","564674","0.0-74.0-1.0","","null","<div style=""display: flex; flex-direction: column; align-items: center; margin-top: -40px;""><img src=""images/pattern_3.png"" style=""width: 234px; height: 230px; margin-top: -50px;""><div style=""display: flex; justify-content: space-between; margin-top: 33px;""><img src=""images/choice_trial_12.png"" style=""width: 408px; height: 417px; margin-left:608px;""></div></div>","null","delaylearn","learning","display_response","659817d80a3213cd1b4dced3","Cky2w6eXF2f7kdwKRdBT7tS4jjm2","","","","","","","","","","","","","","","","","chosen stimuli: images/choice_trial_12.png","","","",""
"html-keyboard-response","179","571694","0.0-74.0-2.0","","null","","null","delaylearn","learning","feedback_duration_window","659817d80a3213cd1b4dced3","Cky2w6eXF2f7kdwKRdBT7tS4jjm2","","","","","","","","","","","","","","","","","","7000","","",""
"html-keyboard-response","180","573212","0.0-74.0-3.0","","null","<div style='margin:auto;width: auto; font-size: 150%'><span style='font-weight: bold; font-size: 100px; color: green;'>+10 points!</span><br><br></div>","null","delaylearn","learning","feedback_image_window","659817d80a3213cd1b4dced3","Cky2w6eXF2f7kdwKRdBT7tS4jjm2","","","","","","","","","","","","","","","","","","","","",""
"html-keyboard-response","181","575656","0.0-75.0","","null","<div style=""font-size:100px;"">+</div>","null","delaylearn","learning","ITI","659817d80a3213cd1b4dced3","Cky2w6eXF2f7kdwKRdBT7tS4jjm2","","","","","","","","","","","","","","","","","","","2427","",""
"html-keyboard-response","182","578674","0.0-76.0-0.0","","null","<div style=""display: flex; flex-direction: column; align-items: center; margin-top: -40px;""><img src=""images/pattern_5.png"" style=""width: 234px; height: 230px; margin-top: -50px;""><div style=""display: flex; justify-content: space-between; margin-top: 33px;""><img src=""images/choice_trial_2.png"" style=""width: 408px; height: 417px; margin-right: 200px;""><img src=""images/choice_trial_9.png"" style=""width: 408px; height: 417px;""></div></div>","null","delaylearn","learning","trial","659817d80a3213cd1b4dced3","Cky2w6eXF2f7kdwKRdBT7tS4jjm2","2","images/choice_trial_2.png","images/choice_trial_9.png","images/pattern_5.png","j","f","750","2","9","4","0","33","0","0","0","180","","","","",""
"html-keyboard-response","183","579691","0.0-76.0-1.0","","null","<div style='font-weight: bold; font-size: 75px; color: red;'>Missed Trial <br><br><br><br> Please respond faster</div>","null","delaylearn","learning","display_response","659817d80a3213cd1b4dced3","Cky2w6eXF2f7kdwKRdBT7tS4jjm2","","","","","","","","","","","","","","","","","Missed trial","","","",""
"html-keyboard-response","184","579698","0.0-76.0-2.0","","null","","null","delaylearn","learning","feedback_duration_window","659817d80a3213cd1b4dced3","Cky2w6eXF2f7kdwKRdBT7tS4jjm2","","","","","","","","","","","","","","","","","","0","","",""
"html-keyboard-response","185","579706","0.0-76.0-3.0","","null","","null","delaylearn","learning","feedback_image_window","659817d80a3213cd1b4dced3","Cky2w6eXF2f7kdwKRdBT7tS4jjm2","","","","","","","","","","","","","","","","","","","","",""
"html-keyboard-response","186","581728","0.0-77.0","","null","<div style=""font-size:100px;"">+</div>","null","delaylearn","learning","ITI","659817d80a3213cd1b4dced3","Cky2w6eXF2f7kdwKRdBT7tS4jjm2","","","","","","","","","","","","","","","","","","","2014","",""
"html-keyboard-response","187","583447","0.0-78.0-0.0","","1713","<div style=""display: flex; flex-direction: column; align-items: center; margin-top: -40px;""><img src=""images/pattern_1.png"" style=""width: 234px; height: 230px; margin-top: -50px;""><div style=""display: flex; justify-content: space-between; margin-top: 33px;""><img src=""images/choice_trial_3.png"" style=""width: 408px; height: 417px; margin-right: 200px;""><img src=""images/choice_trial_10.png"" style=""width: 408px; height: 417px;""></div></div>","j","delaylearn","learning","trial","659817d80a3213cd1b4dced3","Cky2w6eXF2f7kdwKRdBT7tS4jjm2","2","images/choice_trial_3.png","images/choice_trial_10.png","images/pattern_1.png","f","f","7000","3","10","1","0","34","0","0","10","180","","","","",""
"html-keyboard-response","188","584454","0.0-78.0-1.0","","null","<div style=""display: flex; flex-direction: column; align-items: center; margin-top: -40px;""><img src=""images/pattern_1.png"" style=""width: 234px; height: 230px; margin-top: -50px;""><div style=""display: flex; justify-content: space-between; margin-top: 33px;""><img src=""images/choice_trial_10.png"" style=""width: 408px; height: 417px; margin-left:608px;""></div></div>","null","delaylearn","learning","display_response","659817d80a3213cd1b4dced3","Cky2w6eXF2f7kdwKRdBT7tS4jjm2","","","","","","","","","","","","","","","","","chosen stimuli: images/choice_trial_10.png","","","",""
"html-keyboard-response","189","591474","0.0-78.0-2.0","","null","","null","delaylearn","learning","feedback_duration_window","659817d80a3213cd1b4dced3","Cky2w6eXF2f7kdwKRdBT7tS4jjm2","","","","","","","","","","","","","","","","","","7000","","",""
"html-keyboard-response","190","592978","0.0-78.0-3.0","","null","<div style='margin:auto;width: auto; font-size: 150%'><span style='font-weight: bold; font-size: 100px; color: red;'>0 points!</span><br><br></div>","null","delaylearn","learning","feedback_image_window","659817d80a3213cd1b4dced3","Cky2w6eXF2f7kdwKRdBT7tS4jjm2","","","","","","","","","","","","","","","","","","","","",""
"html-keyboard-response","191","593481","0.0-79.0-0.0","","null","","null","","","mood_trial_fixation","","","","","","","","","","","","","","","","","","","","","","",""
"lmdlab-html-vas-response","192","597992","0.0-79.0-1.0","","3498","How happy are you right now?","0.9186197366304875","delaylearn","learning","mood_trial","659817d80a3213cd1b4dced3","Cky2w6eXF2f7kdwKRdBT7tS4jjm2","","","","","","","","","","","","","","","","","","","","[""Very unhappy"",""Very happy""]",""
"html-keyboard-response","193","600025","0.0-80.0","","null","<div style=""font-size:100px;"">+</div>","null","delaylearn","learning","ITI","659817d80a3213cd1b4dced3","Cky2w6eXF2f7kdwKRdBT7tS4jjm2","","","","","","","","","","","","","","","","","","","2010","",""
"html-keyboard-response","194","602243","0.0-81.0-0.0","","2212.399999976158","<div style=""display: flex; flex-direction: column; align-items: center; margin-top: -40px;""><img src=""images/pattern_6.png"" style=""width: 234px; height: 230px; margin-top: -50px;""><div style=""display: flex; justify-content: space-between; margin-top: 33px;""><img src=""images/choice_trial_11.png"" style=""width: 408px; height: 417px; margin-right: 200px;""><img src=""images/choice_trial_5.png"" style=""width: 408px; height: 417px;""></div></div>","f","delaylearn","learning","trial","659817d80a3213cd1b4dced3","Cky2w6eXF2f7kdwKRdBT7tS4jjm2","2","images/choice_trial_11.png","images/choice_trial_5.png","images/pattern_6.png","j","f","750","11","5","5","0","35","1","0","11","180","","","","",""
"html-keyboard-response","195","603254","0.0-81.0-1.0","","null","<div style=""display: flex; flex-direction: column; align-items: center; margin-top: -40px;""><img src=""images/pattern_6.png"" style=""width: 234px; height: 230px; margin-top: -50px;""><div style=""display: flex; justify-content: space-between; margin-top: 33px;""><img src=""images/choice_trial_11.png"" style=""width: 408px; height: 417px; margin-right: 608px;""></div></div>","null","delaylearn","learning","display_response","659817d80a3213cd1b4dced3","Cky2w6eXF2f7kdwKRdBT7tS4jjm2","","","","","","","","","","","","","","","","","chosen stimuli: images/choice_trial_11.png","","","",""
"html-keyboard-response","196","604012","0.0-81.0-2.0","","null","","null","delaylearn","learning","feedback_duration_window","659817d80a3213cd1b4dced3","Cky2w6eXF2f7kdwKRdBT7tS4jjm2","","","","","","","","","","","","","","","","","","750","","",""
"html-keyboard-response","197","605545","0.0-81.0-3.0","","null","<div style='margin:auto;width: auto; font-size: 150%'><span style='font-weight: bold; font-size: 100px; color: red;'>0 points!</span><br><br></div>","null","delaylearn","learning","feedback_image_window","659817d80a3213cd1b4dced3","Cky2w6eXF2f7kdwKRdBT7tS4jjm2","","","","","","","","","","","","","","","","","","","","",""
"html-keyboard-response","198","607805","0.0-82.0","","null","<div style=""font-size:100px;"">+</div>","null","delaylearn","learning","ITI","659817d80a3213cd1b4dced3","Cky2w6eXF2f7kdwKRdBT7tS4jjm2","","","","","","","","","","","","","","","","","","","2249","",""
"html-keyboard-response","199","609661","0.0-83.0-0.0","","1849.0999999940395","<div style=""display: flex; flex-direction: column; align-items: center; margin-top: -40px;""><img src=""images/pattern_3.png"" style=""width: 234px; height: 230px; margin-top: -50px;""><div style=""display: flex; justify-content: space-between; margin-top: 33px;""><img src=""images/choice_trial_14.png"" style=""width: 408px; height: 417px; margin-right: 200px;""><img src=""images/choice_trial_12.png"" style=""width: 408px; height: 417px;""></div></div>","j","delaylearn","learning","trial","659817d80a3213cd1b4dced3","Cky2w6eXF2f7kdwKRdBT7tS4jjm2","2","images/choice_trial_14.png","images/choice_trial_12.png","images/pattern_3.png","j","j","7000","14","12","2","1","36","1","1","12","190","","","","",""
"html-keyboard-response","200","610676","0.0-83.0-1.0","","null","<div style=""display: flex; flex-direction: column; align-items: center; margin-top: -40px;""><img src=""images/pattern_3.png"" style=""width: 234px; height: 230px; margin-top: -50px;""><div style=""display: flex; justify-content: space-between; margin-top: 33px;""><img src=""images/choice_trial_12.png"" style=""width: 408px; height: 417px; margin-left:608px;""></div></div>","null","delaylearn","learning","display_response","659817d80a3213cd1b4dced3","Cky2w6eXF2f7kdwKRdBT7tS4jjm2","","","","","","","","","","","","","","","","","chosen stimuli: images/choice_trial_12.png","","","",""
"html-keyboard-response","201","617682","0.0-83.0-2.0","","null","","null","delaylearn","learning","feedback_duration_window","659817d80a3213cd1b4dced3","Cky2w6eXF2f7kdwKRdBT7tS4jjm2","","","","","","","","","","","","","","","","","","7000","","",""
"html-keyboard-response","202","619196","0.0-83.0-3.0","","null","<div style='margin:auto;width: auto; font-size: 150%'><span style='font-weight: bold; font-size: 100px; color: green;'>+10 points!</span><br><br></div>","null","delaylearn","learning","feedback_image_window","659817d80a3213cd1b4dced3","Cky2w6eXF2f7kdwKRdBT7tS4jjm2","","","","","","","","","","","","","","","","","","","","",""
"html-keyboard-response","203","621174","0.0-84.0","","null","<div style=""font-size:100px;"">+</div>","null","delaylearn","learning","ITI","659817d80a3213cd1b4dced3","Cky2w6eXF2f7kdwKRdBT7tS4jjm2","","","","","","","","","","","","","","","","","","","1965","",""
"html-keyboard-response","204","622770","0.0-85.0-0.0","","1590.199999988079","<div style=""display: flex; flex-direction: column; align-items: center; margin-top: -40px;""><img src=""images/pattern_4.png"" style=""width: 234px; height: 230px; margin-top: -50px;""><div style=""display: flex; justify-content: space-between; margin-top: 33px;""><img src=""images/choice_trial_16.png"" style=""width: 408px; height: 417px; margin-right: 200px;""><img src=""images/choice_trial_4.png"" style=""width: 408px; height: 417px;""></div></div>","f","delaylearn","learning","trial","659817d80a3213cd1b4dced3","Cky2w6eXF2f7kdwKRdBT7tS4jjm2","2","images/choice_trial_16.png","images/choice_trial_4.png","images/pattern_4.png","f","j","7000","16","4","3","1","37","0","1","16","200","","","","",""
"html-keyboard-response","205","623791","0.0-85.0-1.0","","null","<div style=""display: flex; flex-direction: column; align-items: center; margin-top: -40px;""><img src=""images/pattern_4.png"" style=""width: 234px; height: 230px; margin-top: -50px;""><div style=""display: flex; justify-content: space-between; margin-top: 33px;""><img src=""images/choice_trial_16.png"" style=""width: 408px; height: 417px; margin-right: 608px;""></div></div>","null","delaylearn","learning","display_response","659817d80a3213cd1b4dced3","Cky2w6eXF2f7kdwKRdBT7tS4jjm2","","","","","","","","","","","","","","","","","chosen stimuli: images/choice_trial_16.png","","","",""
"html-keyboard-response","206","630803","0.0-85.0-2.0","","null","","null","delaylearn","learning","feedback_duration_window","659817d80a3213cd1b4dced3","Cky2w6eXF2f7kdwKRdBT7tS4jjm2","","","","","","","","","","","","","","","","","","7000","","",""
"html-keyboard-response","207","632324","0.0-85.0-3.0","","null","<div style='margin:auto;width: auto; font-size: 150%'><span style='font-weight: bold; font-size: 100px; color: green;'>+10 points!</span><br><br></div>","null","delaylearn","learning","feedback_image_window","659817d80a3213cd1b4dced3","Cky2w6eXF2f7kdwKRdBT7tS4jjm2","","","","","","","","","","","","","","","","","","","","",""
"html-keyboard-response","208","634554","0.0-86.0","","null","<div style=""font-size:100px;"">+</div>","null","delaylearn","learning","ITI","659817d80a3213cd1b4dced3","Cky2w6eXF2f7kdwKRdBT7tS4jjm2","","","","","","","","","","","","","","","","","","","2224","",""
"html-keyboard-response","209","637437","0.0-87.0-0.0","","2876.5999999940395","<div style=""display: flex; flex-direction: column; align-items: center; margin-top: -40px;""><img src=""images/pattern_7.png"" style=""width: 234px; height: 230px; margin-top: -50px;""><div style=""display: flex; justify-content: space-between; margin-top: 33px;""><img src=""images/choice_trial_8.png"" style=""width: 408px; height: 417px; margin-right: 200px;""><img src=""images/choice_trial_15.png"" style=""width: 408px; height: 417px;""></div></div>","f","delaylearn","learning","trial","659817d80a3213cd1b4dced3","Cky2w6eXF2f7kdwKRdBT7tS4jjm2","2","images/choice_trial_8.png","images/choice_trial_15.png","images/pattern_7.png","f","f","750","8","15","6","0","38","1","1","8","210","","","","",""
"html-keyboard-response","210","638451","0.0-87.0-1.0","","null","<div style=""display: flex; flex-direction: column; align-items: center; margin-top: -40px;""><img src=""images/pattern_7.png"" style=""width: 234px; height: 230px; margin-top: -50px;""><div style=""display: flex; justify-content: space-between; margin-top: 33px;""><img src=""images/choice_trial_8.png"" style=""width: 408px; height: 417px; margin-right: 608px;""></div></div>","null","delaylearn","learning","display_response","659817d80a3213cd1b4dced3","Cky2w6eXF2f7kdwKRdBT7tS4jjm2","","","","","","","","","","","","","","","","","chosen stimuli: images/choice_trial_8.png","","","",""
"html-keyboard-response","211","639204","0.0-87.0-2.0","","null","","null","delaylearn","learning","feedback_duration_window","659817d80a3213cd1b4dced3","Cky2w6eXF2f7kdwKRdBT7tS4jjm2","","","","","","","","","","","","","","","","","","750","","",""
"html-keyboard-response","212","640713","0.0-87.0-3.0","","null","<div style='margin:auto;width: auto; font-size: 150%'><span style='font-weight: bold; font-size: 100px; color: green;'>+10 points!</span><br><br></div>","null","delaylearn","learning","feedback_image_window","659817d80a3213cd1b4dced3","Cky2w6eXF2f7kdwKRdBT7tS4jjm2","","","","","","","","","","","","","","","","","","","","",""
"html-keyboard-response","213","642654","0.0-88.0","","null","<div style=""font-size:100px;"">+</div>","null","delaylearn","learning","ITI","659817d80a3213cd1b4dced3","Cky2w6eXF2f7kdwKRdBT7tS4jjm2","","","","","","","","","","","","","","","","","","","1937","",""
"html-keyboard-response","214","644514","0.0-89.0-0.0","","1853.5999999940395","<div style=""display: flex; flex-direction: column; align-items: center; margin-top: -40px;""><img src=""images/pattern_1.png"" style=""width: 234px; height: 230px; margin-top: -50px;""><div style=""display: flex; justify-content: space-between; margin-top: 33px;""><img src=""images/choice_trial_3.png"" style=""width: 408px; height: 417px; margin-right: 200px;""><img src=""images/choice_trial_10.png"" style=""width: 408px; height: 417px;""></div></div>","j","delaylearn","learning","trial","659817d80a3213cd1b4dced3","Cky2w6eXF2f7kdwKRdBT7tS4jjm2","2","images/choice_trial_3.png","images/choice_trial_10.png","images/pattern_1.png","f","f","7000","3","10","1","0","39","0","0","10","210","","","","",""
"html-keyboard-response","215","645529","0.0-89.0-1.0","","null","<div style=""display: flex; flex-direction: column; align-items: center; margin-top: -40px;""><img src=""images/pattern_1.png"" style=""width: 234px; height: 230px; margin-top: -50px;""><div style=""display: flex; justify-content: space-between; margin-top: 33px;""><img src=""images/choice_trial_10.png"" style=""width: 408px; height: 417px; margin-left:608px;""></div></div>","null","delaylearn","learning","display_response","659817d80a3213cd1b4dced3","Cky2w6eXF2f7kdwKRdBT7tS4jjm2","","","","","","","","","","","","","","","","","chosen stimuli: images/choice_trial_10.png","","","",""
"html-keyboard-response","216","652535","0.0-89.0-2.0","","null","","null","delaylearn","learning","feedback_duration_window","659817d80a3213cd1b4dced3","Cky2w6eXF2f7kdwKRdBT7tS4jjm2","","","","","","","","","","","","","","","","","","7000","","",""
"html-keyboard-response","217","654046","0.0-89.0-3.0","","null","<div style='margin:auto;width: auto; font-size: 150%'><span style='font-weight: bold; font-size: 100px; color: red;'>0 points!</span><br><br></div>","null","delaylearn","learning","feedback_image_window","659817d80a3213cd1b4dced3","Cky2w6eXF2f7kdwKRdBT7tS4jjm2","","","","","","","","","","","","","","","","","","","","",""
"html-keyboard-response","218","654550","0.0-90.0-0.0","","null","","null","","","mood_trial_fixation","","","","","","","","","","","","","","","","","","","","","","",""
"lmdlab-html-vas-response","219","659024","0.0-90.0-1.0","","3452","How happy are you right now?","0.9012586263369984","delaylearn","learning","mood_trial","659817d80a3213cd1b4dced3","Cky2w6eXF2f7kdwKRdBT7tS4jjm2","","","","","","","","","","","","","","","","","","","","[""Very unhappy"",""Very happy""]",""
"html-keyboard-response","220","660912","0.0-91.0","","null","<div style=""font-size:100px;"">+</div>","null","delaylearn","learning","ITI","659817d80a3213cd1b4dced3","Cky2w6eXF2f7kdwKRdBT7tS4jjm2","","","","","","","","","","","","","","","","","","","1879","",""
