"trial_type","trial_index","time_elapsed","internal_node_id","participant","rt","stimulus","response","exp_name","exp_stage","test_part","subjectID","databaseID","counterbal","choice_stimuli_1","choice_stimuli_2","pattern_stimuli","rewarded_answer","correct_answer","feedback_duration_times","stim_left","stim_right","pair","leftright_counter","trial","response_correct","response_rewarded","chosen_stim","counter","displayed_choice","feedback_durations","ITI_duration","labels","rest_warning"
"pavlovia","0","454","0.0-0.0","","","","","","","","","","","","","","","","","","","","","","","","","","","","","",""
"html-keyboard-response","1","3470","0.0-1.0","","null","<div style=""font-size:100px;"">+</div>","null","delaylearn","learning","pre_fixation","5c4068a67f81e900012b281e","","","","","","","","","","","","","","","","","","","","","",""
"html-keyboard-response","2","5060","0.0-2.0-0.0","","1588.8999999994412","<div style=""display: flex; flex-direction: column; align-items: center; margin-top: -40px;""><img src=""images/demo_images/pattern_1.png"" style=""width: 234px; height: 230px; margin-top: -50px;""><div style=""display: flex; justify-content: space-between; margin-top: 33px;""><img src=""images/demo_images/choice_trial_2.png"" style=""width: 408px; height: 417px; margin-right: 200px;""><img src=""images/demo_images/choice_trial_1.png"" style=""width: 408px; height: 417px;""></div></div>","j","delaylearn","learning","trial","5c4068a67f81e900012b281e","l64fJTO72RMtCCO99thFg0jCTzh1","2","images/demo_images/choice_trial_2.png","images/demo_images/choice_trial_1.png","images/demo_images/pattern_1.png","j","j","3000","2","1","20","1","1","1","1","1","10","","","","",""
"html-keyboard-response","3","6062","0.0-2.0-1.0","","null","<div style=""display: flex; flex-direction: column; align-items: center; margin-top: -40px;""><img src=""images/demo_images/pattern_1.png"" style=""width: 234px; height: 230px; margin-top: -50px;""><div style=""display: flex; justify-content: space-between; margin-top: 33px;""><img src=""images/demo_images/choice_trial_1.png"" style=""width: 408px; height: 417px; margin-left:608px;""></div></div>","null","delaylearn","learning","display_response","5c4068a67f81e900012b281e","l64fJTO72RMtCCO99thFg0jCTzh1","","","","","","","","","","","","","","","","","chosen stimuli: images/demo_images/choice_trial_1.png","","","",""
"html-keyboard-response","4","9063","0.0-2.0-2.0","","null","","null","delaylearn","learning","feedback_duration_window","5c4068a67f81e900012b281e","l64fJTO72RMtCCO99thFg0jCTzh1","","","","","","","","","","","","","","","","","","3000","","",""
"html-keyboard-response","5","10565","0.0-2.0-3.0","","null","<div style='margin:auto;width: auto; font-size: 150%'><span style='font-weight: bold; font-size: 100px; color: green;'>+10 points!</span><br><br></div>","null","delaylearn","learning","feedback_image_window","5c4068a67f81e900012b281e","l64fJTO72RMtCCO99thFg0jCTzh1","","","","","","","","","","","","","","","","","","","","",""
"html-keyboard-response","6","12563","0.0-3.0","","null","<div style=""font-size:100px;"">+</div>","null","delaylearn","learning","ITI","5c4068a67f81e900012b281e","l64fJTO72RMtCCO99thFg0jCTzh1","","","","","","","","","","","","","","","","","","","1997","",""
"html-keyboard-response","7","14213","0.0-4.0-0.0","","1648.800000000745","<div style=""display: flex; flex-direction: column; align-items: center; margin-top: -40px;""><img src=""images/demo_images/pattern_1.png"" style=""width: 234px; height: 230px; margin-top: -50px;""><div style=""display: flex; justify-content: space-between; margin-top: 33px;""><img src=""images/demo_images/choice_trial_2.png"" style=""width: 408px; height: 417px; margin-right: 200px;""><img src=""images/demo_images/choice_trial_1.png"" style=""width: 408px; height: 417px;""></div></div>","j","delaylearn","learning","trial","5c4068a67f81e900012b281e","l64fJTO72RMtCCO99thFg0jCTzh1","2","images/demo_images/choice_trial_2.png","images/demo_images/choice_trial_1.png","images/demo_images/pattern_1.png","j","j","3000","2","1","20","1","2","1","1","1","20","","","","",""
"html-keyboard-response","8","15215","0.0-4.0-1.0","","null","<div style=""display: flex; flex-direction: column; align-items: center; margin-top: -40px;""><img src=""images/demo_images/pattern_1.png"" style=""width: 234px; height: 230px; margin-top: -50px;""><div style=""display: flex; justify-content: space-between; margin-top: 33px;""><img src=""images/demo_images/choice_trial_1.png"" style=""width: 408px; height: 417px; margin-left:608px;""></div></div>","null","delaylearn","learning","display_response","5c4068a67f81e900012b281e","l64fJTO72RMtCCO99thFg0jCTzh1","","","","","","","","","","","","","","","","","chosen stimuli: images/demo_images/choice_trial_1.png","","","",""
"html-keyboard-response","9","18216","0.0-4.0-2.0","","null","","null","delaylearn","learning","feedback_duration_window","5c4068a67f81e900012b281e","l64fJTO72RMtCCO99thFg0jCTzh1","","","","","","","","","","","","","","","","","","3000","","",""
"html-keyboard-response","10","19718","0.0-4.0-3.0","","null","<div style='margin:auto;width: auto; font-size: 150%'><span style='font-weight: bold; font-size: 100px; color: green;'>+10 points!</span><br><br></div>","null","delaylearn","learning","feedback_image_window","5c4068a67f81e900012b281e","l64fJTO72RMtCCO99thFg0jCTzh1","","","","","","","","","","","","","","","","","","","","",""
"html-keyboard-response","11","21572","0.0-5.0","","null","<div style=""font-size:100px;"">+</div>","null","delaylearn","learning","ITI","5c4068a67f81e900012b281e","l64fJTO72RMtCCO99thFg0jCTzh1","","","","","","","","","","","","","","","","","","","1853","",""
"html-keyboard-response","12","22870","0.0-6.0-0.0","","1296.7999999998137","<div style=""display: flex; flex-direction: column; align-items: center; margin-top: -40px;""><img src=""images/demo_images/pattern_1.png"" style=""width: 234px; height: 230px; margin-top: -50px;""><div style=""display: flex; justify-content: space-between; margin-top: 33px;""><img src=""images/demo_images/choice_trial_1.png"" style=""width: 408px; height: 417px; margin-right: 200px;""><img src=""images/demo_images/choice_trial_2.png"" style=""width: 408px; height: 417px;""></div></div>","f","delaylearn","learning","trial","5c4068a67f81e900012b281e","l64fJTO72RMtCCO99thFg0jCTzh1","2","images/demo_images/choice_trial_1.png","images/demo_images/choice_trial_2.png","images/demo_images/pattern_1.png","j","f","3000","1","2","20","0","3","1","0","1","20","","","","",""
"html-keyboard-response","13","23872","0.0-6.0-1.0","","null","<div style=""display: flex; flex-direction: column; align-items: center; margin-top: -40px;""><img src=""images/demo_images/pattern_1.png"" style=""width: 234px; height: 230px; margin-top: -50px;""><div style=""display: flex; justify-content: space-between; margin-top: 33px;""><img src=""images/demo_images/choice_trial_1.png"" style=""width: 408px; height: 417px; margin-right: 608px;""></div></div>","null","delaylearn","learning","display_response","5c4068a67f81e900012b281e","l64fJTO72RMtCCO99thFg0jCTzh1","","","","","","","","","","","","","","","","","chosen stimuli: images/demo_images/choice_trial_1.png","","","",""
"html-keyboard-response","14","26874","0.0-6.0-2.0","","null","","null","delaylearn","learning","feedback_duration_window","5c4068a67f81e900012b281e","l64fJTO72RMtCCO99thFg0jCTzh1","","","","","","","","","","","","","","","","","","3000","","",""
"html-keyboard-response","15","28376","0.0-6.0-3.0","","null","<div style='margin:auto;width: auto; font-size: 150%'><span style='font-weight: bold; font-size: 100px; color: red;'>0 points!</span><br><br></div>","null","delaylearn","learning","feedback_image_window","5c4068a67f81e900012b281e","l64fJTO72RMtCCO99thFg0jCTzh1","","","","","","","","","","","","","","","","","","","","",""
"html-keyboard-response","16","29884","0.0-7.0","","null","<div style=""font-size:100px;"">+</div>","null","delaylearn","learning","ITI","5c4068a67f81e900012b281e","l64fJTO72RMtCCO99thFg0jCTzh1","","","","","","","","","","","","","","","","","","","1507","",""
"html-keyboard-response","17","32199","0.0-8.0-0.0","","2313.5999999996275","<div style=""display: flex; flex-direction: column; align-items: center; margin-top: -40px;""><img src=""images/demo_images/pattern_1.png"" style=""width: 234px; height: 230px; margin-top: -50px;""><div style=""display: flex; justify-content: space-between; margin-top: 33px;""><img src=""images/demo_images/choice_trial_1.png"" style=""width: 408px; height: 417px; margin-right: 200px;""><img src=""images/demo_images/choice_trial_2.png"" style=""width: 408px; height: 417px;""></div></div>","j","delaylearn","learning","trial","5c4068a67f81e900012b281e","l64fJTO72RMtCCO99thFg0jCTzh1","2","images/demo_images/choice_trial_1.png","images/demo_images/choice_trial_2.png","images/demo_images/pattern_1.png","f","f","3000","1","2","20","0","4","0","0","2","20","","","","",""
"html-keyboard-response","18","33201","0.0-8.0-1.0","","null","<div style=""display: flex; flex-direction: column; align-items: center; margin-top: -40px;""><img src=""images/demo_images/pattern_1.png"" style=""width: 234px; height: 230px; margin-top: -50px;""><div style=""display: flex; justify-content: space-between; margin-top: 33px;""><img src=""images/demo_images/choice_trial_2.png"" style=""width: 408px; height: 417px; margin-left:608px;""></div></div>","null","delaylearn","learning","display_response","5c4068a67f81e900012b281e","l64fJTO72RMtCCO99thFg0jCTzh1","","","","","","","","","","","","","","","","","chosen stimuli: images/demo_images/choice_trial_2.png","","","",""
"html-keyboard-response","19","36202","0.0-8.0-2.0","","null","","null","delaylearn","learning","feedback_duration_window","5c4068a67f81e900012b281e","l64fJTO72RMtCCO99thFg0jCTzh1","","","","","","","","","","","","","","","","","","3000","","",""
"html-keyboard-response","20","37703","0.0-8.0-3.0","","null","<div style='margin:auto;width: auto; font-size: 150%'><span style='font-weight: bold; font-size: 100px; color: red;'>0 points!</span><br><br></div>","null","delaylearn","learning","feedback_image_window","5c4068a67f81e900012b281e","l64fJTO72RMtCCO99thFg0jCTzh1","","","","","","","","","","","","","","","","","","","","",""
"html-keyboard-response","21","38204","0.0-9.0-0.0","","null","","null","","","mood_trial_fixation","","","","","","","","","","","","","","","","","","","","","","",""
"lmdlab-html-vas-response","22","42392","0.0-9.0-1.0","","3179","How happy are you right now?","0.5370370370370371","delaylearn","learning","mood_trial","5c4068a67f81e900012b281e","l64fJTO72RMtCCO99thFg0jCTzh1","","","","","","","","","","","","","","","","","","","","[""Very unhappy"",""Very happy""]",""
"html-keyboard-response","23","44161","0.0-10.0","","null","<div style=""font-size:100px;"">+</div>","null","delaylearn","learning","ITI","5c4068a67f81e900012b281e","l64fJTO72RMtCCO99thFg0jCTzh1","","","","","","","","","","","","","","","","","","","1767","",""
"html-keyboard-response","24","45384","0.0-11.0-0.0","","1222.5","<div style=""display: flex; flex-direction: column; align-items: center; margin-top: -40px;""><img src=""images/demo_images/pattern_1.png"" style=""width: 234px; height: 230px; margin-top: -50px;""><div style=""display: flex; justify-content: space-between; margin-top: 33px;""><img src=""images/demo_images/choice_trial_2.png"" style=""width: 408px; height: 417px; margin-right: 200px;""><img src=""images/demo_images/choice_trial_1.png"" style=""width: 408px; height: 417px;""></div></div>","j","delaylearn","learning","trial","5c4068a67f81e900012b281e","l64fJTO72RMtCCO99thFg0jCTzh1","2","images/demo_images/choice_trial_2.png","images/demo_images/choice_trial_1.png","images/demo_images/pattern_1.png","j","j","3000","2","1","20","1","5","1","1","1","30","","","","",""
"html-keyboard-response","25","46386","0.0-11.0-1.0","","null","<div style=""display: flex; flex-direction: column; align-items: center; margin-top: -40px;""><img src=""images/demo_images/pattern_1.png"" style=""width: 234px; height: 230px; margin-top: -50px;""><div style=""display: flex; justify-content: space-between; margin-top: 33px;""><img src=""images/demo_images/choice_trial_1.png"" style=""width: 408px; height: 417px; margin-left:608px;""></div></div>","null","delaylearn","learning","display_response","5c4068a67f81e900012b281e","l64fJTO72RMtCCO99thFg0jCTzh1","","","","","","","","","","","","","","","","","chosen stimuli: images/demo_images/choice_trial_1.png","","","",""
"html-keyboard-response","26","49387","0.0-11.0-2.0","","null","","null","delaylearn","learning","feedback_duration_window","5c4068a67f81e900012b281e","l64fJTO72RMtCCO99thFg0jCTzh1","","","","","","","","","","","","","","","","","","3000","","",""
"html-keyboard-response","27","50889","0.0-11.0-3.0","","null","<div style='margin:auto;width: auto; font-size: 150%'><span style='font-weight: bold; font-size: 100px; color: green;'>+10 points!</span><br><br></div>","null","delaylearn","learning","feedback_image_window","5c4068a67f81e900012b281e","l64fJTO72RMtCCO99thFg0jCTzh1","","","","","","","","","","","","","","","","","","","","",""
"html-keyboard-response","28","52558","0.0-12.0","","null","<div style=""font-size:100px;"">+</div>","null","delaylearn","learning","ITI","5c4068a67f81e900012b281e","l64fJTO72RMtCCO99thFg0jCTzh1","","","","","","","","","","","","","","","","","","","1668","",""
"html-keyboard-response","29","53577","0.0-13.0-0.0","","1018.2000000001863","<div style=""display: flex; flex-direction: column; align-items: center; margin-top: -40px;""><img src=""images/demo_images/pattern_1.png"" style=""width: 234px; height: 230px; margin-top: -50px;""><div style=""display: flex; justify-content: space-between; margin-top: 33px;""><img src=""images/demo_images/choice_trial_1.png"" style=""width: 408px; height: 417px; margin-right: 200px;""><img src=""images/demo_images/choice_trial_2.png"" style=""width: 408px; height: 417px;""></div></div>","f","delaylearn","learning","trial","5c4068a67f81e900012b281e","l64fJTO72RMtCCO99thFg0jCTzh1","2","images/demo_images/choice_trial_1.png","images/demo_images/choice_trial_2.png","images/demo_images/pattern_1.png","f","f","3000","1","2","20","0","6","1","1","1","40","","","","",""
"html-keyboard-response","30","54579","0.0-13.0-1.0","","null","<div style=""display: flex; flex-direction: column; align-items: center; margin-top: -40px;""><img src=""images/demo_images/pattern_1.png"" style=""width: 234px; height: 230px; margin-top: -50px;""><div style=""display: flex; justify-content: space-between; margin-top: 33px;""><img src=""images/demo_images/choice_trial_1.png"" style=""width: 408px; height: 417px; margin-right: 608px;""></div></div>","null","delaylearn","learning","display_response","5c4068a67f81e900012b281e","l64fJTO72RMtCCO99thFg0jCTzh1","","","","","","","","","","","","","","","","","chosen stimuli: images/demo_images/choice_trial_1.png","","","",""
"html-keyboard-response","31","57580","0.0-13.0-2.0","","null","","null","delaylearn","learning","feedback_duration_window","5c4068a67f81e900012b281e","l64fJTO72RMtCCO99thFg0jCTzh1","","","","","","","","","","","","","","","","","","3000","","",""
"html-keyboard-response","32","59082","0.0-13.0-3.0","","null","<div style='margin:auto;width: auto; font-size: 150%'><span style='font-weight: bold; font-size: 100px; color: green;'>+10 points!</span><br><br></div>","null","delaylearn","learning","feedback_image_window","5c4068a67f81e900012b281e","l64fJTO72RMtCCO99thFg0jCTzh1","","","","","","","","","","","","","","","","","","","","",""
"html-keyboard-response","33","60869","0.0-14.0","","null","<div style=""font-size:100px;"">+</div>","null","delaylearn","learning","ITI","5c4068a67f81e900012b281e","l64fJTO72RMtCCO99thFg0jCTzh1","","","","","","","","","","","","","","","","","","","1779","",""
"html-keyboard-response","34","61722","0.0-15.0-0.0","","851","<div style=""display: flex; flex-direction: column; align-items: center; margin-top: -40px;""><img src=""images/demo_images/pattern_1.png"" style=""width: 234px; height: 230px; margin-top: -50px;""><div style=""display: flex; justify-content: space-between; margin-top: 33px;""><img src=""images/demo_images/choice_trial_2.png"" style=""width: 408px; height: 417px; margin-right: 200px;""><img src=""images/demo_images/choice_trial_1.png"" style=""width: 408px; height: 417px;""></div></div>","j","delaylearn","learning","trial","5c4068a67f81e900012b281e","l64fJTO72RMtCCO99thFg0jCTzh1","2","images/demo_images/choice_trial_2.png","images/demo_images/choice_trial_1.png","images/demo_images/pattern_1.png","j","j","3000","2","1","20","1","7","1","1","1","50","","","","",""
"html-keyboard-response","35","62727","0.0-15.0-1.0","","null","<div style=""display: flex; flex-direction: column; align-items: center; margin-top: -40px;""><img src=""images/demo_images/pattern_1.png"" style=""width: 234px; height: 230px; margin-top: -50px;""><div style=""display: flex; justify-content: space-between; margin-top: 33px;""><img src=""images/demo_images/choice_trial_1.png"" style=""width: 408px; height: 417px; margin-left:608px;""></div></div>","null","delaylearn","learning","display_response","5c4068a67f81e900012b281e","l64fJTO72RMtCCO99thFg0jCTzh1","","","","","","","","","","","","","","","","","chosen stimuli: images/demo_images/choice_trial_1.png","","","",""
"html-keyboard-response","36","65730","0.0-15.0-2.0","","null","","null","delaylearn","learning","feedback_duration_window","5c4068a67f81e900012b281e","l64fJTO72RMtCCO99thFg0jCTzh1","","","","","","","","","","","","","","","","","","3000","","",""
"html-keyboard-response","37","67232","0.0-15.0-3.0","","null","<div style='margin:auto;width: auto; font-size: 150%'><span style='font-weight: bold; font-size: 100px; color: green;'>+10 points!</span><br><br></div>","null","delaylearn","learning","feedback_image_window","5c4068a67f81e900012b281e","l64fJTO72RMtCCO99thFg0jCTzh1","","","","","","","","","","","","","","","","","","","","",""
"html-keyboard-response","38","68819","0.0-16.0","","null","<div style=""font-size:100px;"">+</div>","null","delaylearn","learning","ITI","5c4068a67f81e900012b281e","l64fJTO72RMtCCO99thFg0jCTzh1","","","","","","","","","","","","","","","","","","","1586","",""
"html-keyboard-response","39","70171","0.0-17.0-0.0","","1351.0999999996275","<div style=""display: flex; flex-direction: column; align-items: center; margin-top: -40px;""><img src=""images/demo_images/pattern_1.png"" style=""width: 234px; height: 230px; margin-top: -50px;""><div style=""display: flex; justify-content: space-between; margin-top: 33px;""><img src=""images/demo_images/choice_trial_1.png"" style=""width: 408px; height: 417px; margin-right: 200px;""><img src=""images/demo_images/choice_trial_2.png"" style=""width: 408px; height: 417px;""></div></div>","f","delaylearn","learning","trial","5c4068a67f81e900012b281e","l64fJTO72RMtCCO99thFg0jCTzh1","2","images/demo_images/choice_trial_1.png","images/demo_images/choice_trial_2.png","images/demo_images/pattern_1.png","f","f","3000","1","2","20","0","8","1","1","1","60","","","","",""
"html-keyboard-response","40","71173","0.0-17.0-1.0","","null","<div style=""display: flex; flex-direction: column; align-items: center; margin-top: -40px;""><img src=""images/demo_images/pattern_1.png"" style=""width: 234px; height: 230px; margin-top: -50px;""><div style=""display: flex; justify-content: space-between; margin-top: 33px;""><img src=""images/demo_images/choice_trial_1.png"" style=""width: 408px; height: 417px; margin-right: 608px;""></div></div>","null","delaylearn","learning","display_response","5c4068a67f81e900012b281e","l64fJTO72RMtCCO99thFg0jCTzh1","","","","","","","","","","","","","","","","","chosen stimuli: images/demo_images/choice_trial_1.png","","","",""
"html-keyboard-response","41","74174","0.0-17.0-2.0","","null","","null","delaylearn","learning","feedback_duration_window","5c4068a67f81e900012b281e","l64fJTO72RMtCCO99thFg0jCTzh1","","","","","","","","","","","","","","","","","","3000","","",""
"html-keyboard-response","42","75676","0.0-17.0-3.0","","null","<div style='margin:auto;width: auto; font-size: 150%'><span style='font-weight: bold; font-size: 100px; color: green;'>+10 points!</span><br><br></div>","null","delaylearn","learning","feedback_image_window","5c4068a67f81e900012b281e","l64fJTO72RMtCCO99thFg0jCTzh1","","","","","","","","","","","","","","","","","","","","",""
"html-button-response","43","81277","0.0-18.0","","5599.899999999441","
  <div style=""display: flex; align-items: center; justify-content: center; height: 80vh;"">
  <div>
          <img src=""images/inst_demo_finish.png"" style=""width: 80vw; height:auto;"">
          <br><br>
      </div>
      <br><br>
  </div>","0","","","","","","","","","","","","","","","","","","","","","","","","","",""
"html-keyboard-response","44","84332","0.0-19.0","","3054.4000000003725","
  <div style=""display: flex; align-items: center; justify-content: center; height: 80vh;"">
  <div>
          <img src=""images/inst_6.png"" style=""width: 80vw; height:auto;"">
          <br><br>
      </div>
      <br><br>
  </div>","f","","","","","","","","","","","","","","","","","","","","","","","","","",""
"html-keyboard-response","45","87333","0.0-20.0","","null","<div style=""font-size:100px;"">+</div>","null","delaylearn","learning","pre_fixation","5c4068a67f81e900012b281e","","","","","","","","","","","","","","","","","","","","","",""
"html-keyboard-response","46","89508","0.0-21.0","","null","<div style=""font-size:100px;"">+</div>","null","delaylearn","learning","ITI","5c4068a67f81e900012b281e","l64fJTO72RMtCCO99thFg0jCTzh1","","","","","","","","","","","","","","","","","","","2173","",""
"html-keyboard-response","47","92141","0.0-22.0-0.0","","2631.899999999441","<div style=""display: flex; flex-direction: column; align-items: center; margin-top: -40px;""><img src=""images/pattern_3.png"" style=""width: 234px; height: 230px; margin-top: -50px;""><div style=""display: flex; justify-content: space-between; margin-top: 33px;""><img src=""images/choice_trial_12.png"" style=""width: 408px; height: 417px; margin-right: 200px;""><img src=""images/choice_trial_14.png"" style=""width: 408px; height: 417px;""></div></div>","j","delaylearn","learning","trial","5c4068a67f81e900012b281e","l64fJTO72RMtCCO99thFg0jCTzh1","2","images/choice_trial_12.png","images/choice_trial_14.png","images/pattern_3.png","f","f","7000","12","14","2","0","9","0","0","14","60","","","","",""
"html-keyboard-response","48","93143","0.0-22.0-1.0","","null","<div style=""display: flex; flex-direction: column; align-items: center; margin-top: -40px;""><img src=""images/pattern_3.png"" style=""width: 234px; height: 230px; margin-top: -50px;""><div style=""display: flex; justify-content: space-between; margin-top: 33px;""><img src=""images/choice_trial_14.png"" style=""width: 408px; height: 417px; margin-left:608px;""></div></div>","null","delaylearn","learning","display_response","5c4068a67f81e900012b281e","l64fJTO72RMtCCO99thFg0jCTzh1","","","","","","","","","","","","","","","","","chosen stimuli: images/choice_trial_14.png","","","",""
"html-keyboard-response","49","100144","0.0-22.0-2.0","","null","","null","delaylearn","learning","feedback_duration_window","5c4068a67f81e900012b281e","l64fJTO72RMtCCO99thFg0jCTzh1","","","","","","","","","","","","","","","","","","7000","","",""
"html-keyboard-response","50","101645","0.0-22.0-3.0","","null","<div style='margin:auto;width: auto; font-size: 150%'><span style='font-weight: bold; font-size: 100px; color: red;'>0 points!</span><br><br></div>","null","delaylearn","learning","feedback_image_window","5c4068a67f81e900012b281e","l64fJTO72RMtCCO99thFg0jCTzh1","","","","","","","","","","","","","","","","","","","","",""
"html-keyboard-response","51","103324","0.0-23.0","","null","<div style=""font-size:100px;"">+</div>","null","delaylearn","learning","ITI","5c4068a67f81e900012b281e","l64fJTO72RMtCCO99thFg0jCTzh1","","","","","","","","","","","","","","","","","","","1678","",""
"html-keyboard-response","52","105982","0.0-24.0-0.0","","2656.899999999441","<div style=""display: flex; flex-direction: column; align-items: center; margin-top: -40px;""><img src=""images/pattern_7.png"" style=""width: 234px; height: 230px; margin-top: -50px;""><div style=""display: flex; justify-content: space-between; margin-top: 33px;""><img src=""images/choice_trial_15.png"" style=""width: 408px; height: 417px; margin-right: 200px;""><img src=""images/choice_trial_8.png"" style=""width: 408px; height: 417px;""></div></div>","j","delaylearn","learning","trial","5c4068a67f81e900012b281e","l64fJTO72RMtCCO99thFg0jCTzh1","2","images/choice_trial_15.png","images/choice_trial_8.png","images/pattern_7.png","j","j","750","15","8","6","1","10","1","1","8","70","","","","",""
"html-keyboard-response","53","106984","0.0-24.0-1.0","","null","<div style=""display: flex; flex-direction: column; align-items: center; margin-top: -40px;""><img src=""images/pattern_7.png"" style=""width: 234px; height: 230px; margin-top: -50px;""><div style=""display: flex; justify-content: space-between; margin-top: 33px;""><img src=""images/choice_trial_8.png"" style=""width: 408px; height: 417px; margin-left:608px;""></div></div>","null","delaylearn","learning","display_response","5c4068a67f81e900012b281e","l64fJTO72RMtCCO99thFg0jCTzh1","","","","","","","","","","","","","","","","","chosen stimuli: images/choice_trial_8.png","","","",""
"html-keyboard-response","54","107736","0.0-24.0-2.0","","null","","null","delaylearn","learning","feedback_duration_window","5c4068a67f81e900012b281e","l64fJTO72RMtCCO99thFg0jCTzh1","","","","","","","","","","","","","","","","","","750","","",""
"html-keyboard-response","55","109237","0.0-24.0-3.0","","null","<div style='margin:auto;width: auto; font-size: 150%'><span style='font-weight: bold; font-size: 100px; color: green;'>+10 points!</span><br><br></div>","null","delaylearn","learning","feedback_image_window","5c4068a67f81e900012b281e","l64fJTO72RMtCCO99thFg0jCTzh1","","","","","","","","","","","","","","","","","","","","",""
"html-keyboard-response","56","111034","0.0-25.0","","null","<div style=""font-size:100px;"">+</div>","null","delaylearn","learning","ITI","5c4068a67f81e900012b281e","l64fJTO72RMtCCO99thFg0jCTzh1","","","","","","","","","","","","","","","","","","","1794","",""
"html-keyboard-response","57","113455","0.0-26.0-0.0","","2419.5","<div style=""display: flex; flex-direction: column; align-items: center; margin-top: -40px;""><img src=""images/pattern_4.png"" style=""width: 234px; height: 230px; margin-top: -50px;""><div style=""display: flex; justify-content: space-between; margin-top: 33px;""><img src=""images/choice_trial_4.png"" style=""width: 408px; height: 417px; margin-right: 200px;""><img src=""images/choice_trial_16.png"" style=""width: 408px; height: 417px;""></div></div>","f","delaylearn","learning","trial","5c4068a67f81e900012b281e","l64fJTO72RMtCCO99thFg0jCTzh1","2","images/choice_trial_4.png","images/choice_trial_16.png","images/pattern_4.png","f","f","7000","4","16","3","0","11","1","1","4","80","","","","",""
"html-keyboard-response","58","114458","0.0-26.0-1.0","","null","<div style=""display: flex; flex-direction: column; align-items: center; margin-top: -40px;""><img src=""images/pattern_4.png"" style=""width: 234px; height: 230px; margin-top: -50px;""><div style=""display: flex; justify-content: space-between; margin-top: 33px;""><img src=""images/choice_trial_4.png"" style=""width: 408px; height: 417px; margin-right: 608px;""></div></div>","null","delaylearn","learning","display_response","5c4068a67f81e900012b281e","l64fJTO72RMtCCO99thFg0jCTzh1","","","","","","","","","","","","","","","","","chosen stimuli: images/choice_trial_4.png","","","",""
"html-keyboard-response","59","121461","0.0-26.0-2.0","","null","","null","delaylearn","learning","feedback_duration_window","5c4068a67f81e900012b281e","l64fJTO72RMtCCO99thFg0jCTzh1","","","","","","","","","","","","","","","","","","7000","","",""
"html-keyboard-response","60","122962","0.0-26.0-3.0","","null","<div style='margin:auto;width: auto; font-size: 150%'><span style='font-weight: bold; font-size: 100px; color: green;'>+10 points!</span><br><br></div>","null","delaylearn","learning","feedback_image_window","5c4068a67f81e900012b281e","l64fJTO72RMtCCO99thFg0jCTzh1","","","","","","","","","","","","","","","","","","","","",""
"html-keyboard-response","61","125142","0.0-27.0","","null","<div style=""font-size:100px;"">+</div>","null","delaylearn","learning","ITI","5c4068a67f81e900012b281e","l64fJTO72RMtCCO99thFg0jCTzh1","","","","","","","","","","","","","","","","","","","2174","",""
"html-keyboard-response","62","128152","0.0-28.0-0.0","","null","<div style=""display: flex; flex-direction: column; align-items: center; margin-top: -40px;""><img src=""images/pattern_5.png"" style=""width: 234px; height: 230px; margin-top: -50px;""><div style=""display: flex; justify-content: space-between; margin-top: 33px;""><img src=""images/choice_trial_9.png"" style=""width: 408px; height: 417px; margin-right: 200px;""><img src=""images/choice_trial_2.png"" style=""width: 408px; height: 417px;""></div></div>","null","delaylearn","learning","trial","5c4068a67f81e900012b281e","l64fJTO72RMtCCO99thFg0jCTzh1","2","images/choice_trial_9.png","images/choice_trial_2.png","images/pattern_5.png","j","j","750","9","2","4","1","12","0","0","0","80","","","","",""
"html-keyboard-response","63","129209","0.0-28.0-1.0","","null","<div style='font-weight: bold; font-size: 75px; color: red;'>Missed Trial <br><br><br><br> Please respond faster</div>","null","delaylearn","learning","display_response","5c4068a67f81e900012b281e","l64fJTO72RMtCCO99thFg0jCTzh1","","","","","","","","","","","","","","","","","Missed trial","","","",""
"html-keyboard-response","64","130209","0.0-28.0-2.0","","null","","null","delaylearn","learning","feedback_duration_window","5c4068a67f81e900012b281e","l64fJTO72RMtCCO99thFg0jCTzh1","","","","","","","","","","","","","","","","","","0","","",""
"html-keyboard-response","65","130262","0.0-28.0-3.0","","null","","null","delaylearn","learning","feedback_image_window","5c4068a67f81e900012b281e","l64fJTO72RMtCCO99thFg0jCTzh1","","","","","","","","","","","","","","","","","","","","",""
"html-keyboard-response","66","132153","0.0-29.0","","null","<div style=""font-size:100px;"">+</div>","null","delaylearn","learning","ITI","5c4068a67f81e900012b281e","l64fJTO72RMtCCO99thFg0jCTzh1","","","","","","","","","","","","","","","","","","","1879","",""
"html-keyboard-response","67","134065","0.0-30.0-0.0","","1910.1000000005588","<div style=""display: flex; flex-direction: column; align-items: center; margin-top: -40px;""><img src=""images/pattern_6.png"" style=""width: 234px; height: 230px; margin-top: -50px;""><div style=""display: flex; justify-content: space-between; margin-top: 33px;""><img src=""images/choice_trial_11.png"" style=""width: 408px; height: 417px; margin-right: 200px;""><img src=""images/choice_trial_5.png"" style=""width: 408px; height: 417px;""></div></div>","j","delaylearn","learning","trial","5c4068a67f81e900012b281e","l64fJTO72RMtCCO99thFg0jCTzh1","2","images/choice_trial_11.png","images/choice_trial_5.png","images/pattern_6.png","j","f","750","11","5","5","0","13","0","1","5","90","","","","",""
"html-keyboard-response","68","135066","0.0-30.0-1.0","","null","<div style=""display: flex; flex-direction: column; align-items: center; margin-top: -40px;""><img src=""images/pattern_6.png"" style=""width: 234px; height: 230px; margin-top: -50px;""><div style=""display: flex; justify-content: space-between; margin-top: 33px;""><img src=""images/choice_trial_5.png"" style=""width: 408px; height: 417px; margin-left:608px;""></div></div>","null","delaylearn","learning","display_response","5c4068a67f81e900012b281e","l64fJTO72RMtCCO99thFg0jCTzh1","","","","","","","","","","","","","","","","","chosen stimuli: images/choice_trial_5.png","","","",""
"html-keyboard-response","69","135818","0.0-30.0-2.0","","null","","null","delaylearn","learning","feedback_duration_window","5c4068a67f81e900012b281e","l64fJTO72RMtCCO99thFg0jCTzh1","","","","","","","","","","","","","","","","","","750","","",""
"html-keyboard-response","70","137320","0.0-30.0-3.0","","null","<div style='margin:auto;width: auto; font-size: 150%'><span style='font-weight: bold; font-size: 100px; color: green;'>+10 points!</span><br><br></div>","null","delaylearn","learning","feedback_image_window","5c4068a67f81e900012b281e","l64fJTO72RMtCCO99thFg0jCTzh1","","","","","","","","","","","","","","","","","","","","",""
"html-keyboard-response","71","137821","0.0-31.0-0.0","","null","","null","","","mood_trial_fixation","","","","","","","","","","","","","","","","","","","","","","",""
"lmdlab-html-vas-response","72","142092","0.0-31.0-1.0","","3268","How happy are you right now?","0.6404320987654321","delaylearn","learning","mood_trial","5c4068a67f81e900012b281e","l64fJTO72RMtCCO99thFg0jCTzh1","","","","","","","","","","","","","","","","","","","","[""Very unhappy"",""Very happy""]",""
"html-keyboard-response","73","144427","0.0-32.0","","null","<div style=""font-size:100px;"">+</div>","null","delaylearn","learning","ITI","5c4068a67f81e900012b281e","l64fJTO72RMtCCO99thFg0jCTzh1","","","","","","","","","","","","","","","","","","","2329","",""
"html-keyboard-response","74","146338","0.0-33.0-0.0","","1910.5","<div style=""display: flex; flex-direction: column; align-items: center; margin-top: -40px;""><img src=""images/pattern_1.png"" style=""width: 234px; height: 230px; margin-top: -50px;""><div style=""display: flex; justify-content: space-between; margin-top: 33px;""><img src=""images/choice_trial_10.png"" style=""width: 408px; height: 417px; margin-right: 200px;""><img src=""images/choice_trial_3.png"" style=""width: 408px; height: 417px;""></div></div>","j","delaylearn","learning","trial","5c4068a67f81e900012b281e","l64fJTO72RMtCCO99thFg0jCTzh1","2","images/choice_trial_10.png","images/choice_trial_3.png","images/pattern_1.png","j","j","7000","10","3","1","1","14","1","1","3","100","","","","",""
"html-keyboard-response","75","147339","0.0-33.0-1.0","","null","<div style=""display: flex; flex-direction: column; align-items: center; margin-top: -40px;""><img src=""images/pattern_1.png"" style=""width: 234px; height: 230px; margin-top: -50px;""><div style=""display: flex; justify-content: space-between; margin-top: 33px;""><img src=""images/choice_trial_3.png"" style=""width: 408px; height: 417px; margin-left:608px;""></div></div>","null","delaylearn","learning","display_response","5c4068a67f81e900012b281e","l64fJTO72RMtCCO99thFg0jCTzh1","","","","","","","","","","","","","","","","","chosen stimuli: images/choice_trial_3.png","","","",""
"html-keyboard-response","76","154340","0.0-33.0-2.0","","null","","null","delaylearn","learning","feedback_duration_window","5c4068a67f81e900012b281e","l64fJTO72RMtCCO99thFg0jCTzh1","","","","","","","","","","","","","","","","","","7000","","",""
"html-keyboard-response","77","155842","0.0-33.0-3.0","","null","<div style='margin:auto;width: auto; font-size: 150%'><span style='font-weight: bold; font-size: 100px; color: green;'>+10 points!</span><br><br></div>","null","delaylearn","learning","feedback_image_window","5c4068a67f81e900012b281e","l64fJTO72RMtCCO99thFg0jCTzh1","","","","","","","","","","","","","","","","","","","","",""
"html-keyboard-response","78","158125","0.0-34.0","","null","<div style=""font-size:100px;"">+</div>","null","delaylearn","learning","ITI","5c4068a67f81e900012b281e","l64fJTO72RMtCCO99thFg0jCTzh1","","","","","","","","","","","","","","","","","","","2283","",""
"html-keyboard-response","79","159923","0.0-35.0-0.0","","1796.7000000001863","<div style=""display: flex; flex-direction: column; align-items: center; margin-top: -40px;""><img src=""images/pattern_3.png"" style=""width: 234px; height: 230px; margin-top: -50px;""><div style=""display: flex; justify-content: space-between; margin-top: 33px;""><img src=""images/choice_trial_14.png"" style=""width: 408px; height: 417px; margin-right: 200px;""><img src=""images/choice_trial_12.png"" style=""width: 408px; height: 417px;""></div></div>","f","delaylearn","learning","trial","5c4068a67f81e900012b281e","l64fJTO72RMtCCO99thFg0jCTzh1","2","images/choice_trial_14.png","images/choice_trial_12.png","images/pattern_3.png","f","j","7000","14","12","2","1","15","0","1","14","110","","","","",""
"html-keyboard-response","80","160934","0.0-35.0-1.0","","null","<div style=""display: flex; flex-direction: column; align-items: center; margin-top: -40px;""><img src=""images/pattern_3.png"" style=""width: 234px; height: 230px; margin-top: -50px;""><div style=""display: flex; justify-content: space-between; margin-top: 33px;""><img src=""images/choice_trial_14.png"" style=""width: 408px; height: 417px; margin-right: 608px;""></div></div>","null","delaylearn","learning","display_response","5c4068a67f81e900012b281e","l64fJTO72RMtCCO99thFg0jCTzh1","","","","","","","","","","","","","","","","","chosen stimuli: images/choice_trial_14.png","","","",""
"html-keyboard-response","81","167936","0.0-35.0-2.0","","null","","null","delaylearn","learning","feedback_duration_window","5c4068a67f81e900012b281e","l64fJTO72RMtCCO99thFg0jCTzh1","","","","","","","","","","","","","","","","","","7000","","",""
"html-keyboard-response","82","169438","0.0-35.0-3.0","","null","<div style='margin:auto;width: auto; font-size: 150%'><span style='font-weight: bold; font-size: 100px; color: green;'>+10 points!</span><br><br></div>","null","delaylearn","learning","feedback_image_window","5c4068a67f81e900012b281e","l64fJTO72RMtCCO99thFg0jCTzh1","","","","","","","","","","","","","","","","","","","","",""
"html-keyboard-response","83","171393","0.0-36.0","","null","<div style=""font-size:100px;"">+</div>","null","delaylearn","learning","ITI","5c4068a67f81e900012b281e","l64fJTO72RMtCCO99thFg0jCTzh1","","","","","","","","","","","","","","","","","","","1954","",""
"html-keyboard-response","84","173173","0.0-37.0-0.0","","1778.2999999998137","<div style=""display: flex; flex-direction: column; align-items: center; margin-top: -40px;""><img src=""images/pattern_5.png"" style=""width: 234px; height: 230px; margin-top: -50px;""><div style=""display: flex; justify-content: space-between; margin-top: 33px;""><img src=""images/choice_trial_2.png"" style=""width: 408px; height: 417px; margin-right: 200px;""><img src=""images/choice_trial_9.png"" style=""width: 408px; height: 417px;""></div></div>","j","delaylearn","learning","trial","5c4068a67f81e900012b281e","l64fJTO72RMtCCO99thFg0jCTzh1","2","images/choice_trial_2.png","images/choice_trial_9.png","images/pattern_5.png","f","f","750","2","9","4","0","16","0","0","9","110","","","","",""
"html-keyboard-response","85","174182","0.0-37.0-1.0","","null","<div style=""display: flex; flex-direction: column; align-items: center; margin-top: -40px;""><img src=""images/pattern_5.png"" style=""width: 234px; height: 230px; margin-top: -50px;""><div style=""display: flex; justify-content: space-between; margin-top: 33px;""><img src=""images/choice_trial_9.png"" style=""width: 408px; height: 417px; margin-left:608px;""></div></div>","null","delaylearn","learning","display_response","5c4068a67f81e900012b281e","l64fJTO72RMtCCO99thFg0jCTzh1","","","","","","","","","","","","","","","","","chosen stimuli: images/choice_trial_9.png","","","",""
"html-keyboard-response","86","174934","0.0-37.0-2.0","","null","","null","delaylearn","learning","feedback_duration_window","5c4068a67f81e900012b281e","l64fJTO72RMtCCO99thFg0jCTzh1","","","","","","","","","","","","","","","","","","750","","",""
"html-keyboard-response","87","176437","0.0-37.0-3.0","","null","<div style='margin:auto;width: auto; font-size: 150%'><span style='font-weight: bold; font-size: 100px; color: red;'>0 points!</span><br><br></div>","null","delaylearn","learning","feedback_image_window","5c4068a67f81e900012b281e","l64fJTO72RMtCCO99thFg0jCTzh1","","","","","","","","","","","","","","","","","","","","",""
"html-keyboard-response","88","176939","0.0-38.0-0.0","","null","","null","","","mood_trial_fixation","","","","","","","","","","","","","","","","","","","","","","",""
"lmdlab-html-vas-response","89","200951","0.0-38.0-1.0","","null","How happy are you right now?","","delaylearn","learning","mood_trial","5c4068a67f81e900012b281e","l64fJTO72RMtCCO99thFg0jCTzh1","","","","","","","","","","","","","","","","","","","","[""Very unhappy"",""Very happy""]",""
"html-keyboard-response","90","202659","0.0-39.0","","null","<div style=""font-size:100px;"">+</div>","null","delaylearn","learning","ITI","5c4068a67f81e900012b281e","l64fJTO72RMtCCO99thFg0jCTzh1","","","","","","","","","","","","","","","","","","","1707","",""
"html-keyboard-response","91","205177","0.0-40.0-0.0","","2516.100000000559","<div style=""display: flex; flex-direction: column; align-items: center; margin-top: -40px;""><img src=""images/pattern_6.png"" style=""width: 234px; height: 230px; margin-top: -50px;""><div style=""display: flex; justify-content: space-between; margin-top: 33px;""><img src=""images/choice_trial_11.png"" style=""width: 408px; height: 417px; margin-right: 200px;""><img src=""images/choice_trial_5.png"" style=""width: 408px; height: 417px;""></div></div>","f","delaylearn","learning","trial","5c4068a67f81e900012b281e","l64fJTO72RMtCCO99thFg0jCTzh1","2","images/choice_trial_11.png","images/choice_trial_5.png","images/pattern_6.png","f","f","750","11","5","5","0","17","1","1","11","120","","","","",""
"html-keyboard-response","92","206186","0.0-40.0-1.0","","null","<div style=""display: flex; flex-direction: column; align-items: center; margin-top: -40px;""><img src=""images/pattern_6.png"" style=""width: 234px; height: 230px; margin-top: -50px;""><div style=""display: flex; justify-content: space-between; margin-top: 33px;""><img src=""images/choice_trial_11.png"" style=""width: 408px; height: 417px; margin-right: 608px;""></div></div>","null","delaylearn","learning","display_response","5c4068a67f81e900012b281e","l64fJTO72RMtCCO99thFg0jCTzh1","","","","","","","","","","","","","","","","","chosen stimuli: images/choice_trial_11.png","","","",""
"html-keyboard-response","93","206938","0.0-40.0-2.0","","null","","null","delaylearn","learning","feedback_duration_window","5c4068a67f81e900012b281e","l64fJTO72RMtCCO99thFg0jCTzh1","","","","","","","","","","","","","","","","","","750","","",""
"html-keyboard-response","94","208439","0.0-40.0-3.0","","null","<div style='margin:auto;width: auto; font-size: 150%'><span style='font-weight: bold; font-size: 100px; color: green;'>+10 points!</span><br><br></div>","null","delaylearn","learning","feedback_image_window","5c4068a67f81e900012b281e","l64fJTO72RMtCCO99thFg0jCTzh1","","","","","","","","","","","","","","","","","","","","",""
"html-keyboard-response","95","210830","0.0-41.0","","null","<div style=""font-size:100px;"">+</div>","null","delaylearn","learning","ITI","5c4068a67f81e900012b281e","l64fJTO72RMtCCO99thFg0jCTzh1","","","","","","","","","","","","","","","","","","","2390","",""
"html-keyboard-response","96","213305","0.0-42.0-0.0","","2474","<div style=""display: flex; flex-direction: column; align-items: center; margin-top: -40px;""><img src=""images/pattern_4.png"" style=""width: 234px; height: 230px; margin-top: -50px;""><div style=""display: flex; justify-content: space-between; margin-top: 33px;""><img src=""images/choice_trial_16.png"" style=""width: 408px; height: 417px; margin-right: 200px;""><img src=""images/choice_trial_4.png"" style=""width: 408px; height: 417px;""></div></div>","j","delaylearn","learning","trial","5c4068a67f81e900012b281e","l64fJTO72RMtCCO99thFg0jCTzh1","2","images/choice_trial_16.png","images/choice_trial_4.png","images/pattern_4.png","j","j","7000","16","4","3","1","18","1","1","4","130","","","","",""
"html-keyboard-response","97","214308","0.0-42.0-1.0","","null","<div style=""display: flex; flex-direction: column; align-items: center; margin-top: -40px;""><img src=""images/pattern_4.png"" style=""width: 234px; height: 230px; margin-top: -50px;""><div style=""display: flex; justify-content: space-between; margin-top: 33px;""><img src=""images/choice_trial_4.png"" style=""width: 408px; height: 417px; margin-left:608px;""></div></div>","null","delaylearn","learning","display_response","5c4068a67f81e900012b281e","l64fJTO72RMtCCO99thFg0jCTzh1","","","","","","","","","","","","","","","","","chosen stimuli: images/choice_trial_4.png","","","",""
"html-keyboard-response","98","221312","0.0-42.0-2.0","","null","","null","delaylearn","learning","feedback_duration_window","5c4068a67f81e900012b281e","l64fJTO72RMtCCO99thFg0jCTzh1","","","","","","","","","","","","","","","","","","7000","","",""
"html-keyboard-response","99","222821","0.0-42.0-3.0","","null","<div style='margin:auto;width: auto; font-size: 150%'><span style='font-weight: bold; font-size: 100px; color: green;'>+10 points!</span><br><br></div>","null","delaylearn","learning","feedback_image_window","5c4068a67f81e900012b281e","l64fJTO72RMtCCO99thFg0jCTzh1","","","","","","","","","","","","","","","","","","","","",""
"html-keyboard-response","100","224546","0.0-43.0","","null","<div style=""font-size:100px;"">+</div>","null","delaylearn","learning","ITI","5c4068a67f81e900012b281e","l64fJTO72RMtCCO99thFg0jCTzh1","","","","","","","","","","","","","","","","","","","1723","",""
"html-keyboard-response","101","226475","0.0-44.0-0.0","","1927.7000000001863","<div style=""display: flex; flex-direction: column; align-items: center; margin-top: -40px;""><img src=""images/pattern_7.png"" style=""width: 234px; height: 230px; margin-top: -50px;""><div style=""display: flex; justify-content: space-between; margin-top: 33px;""><img src=""images/choice_trial_8.png"" style=""width: 408px; height: 417px; margin-right: 200px;""><img src=""images/choice_trial_15.png"" style=""width: 408px; height: 417px;""></div></div>","f","delaylearn","learning","trial","5c4068a67f81e900012b281e","l64fJTO72RMtCCO99thFg0jCTzh1","2","images/choice_trial_8.png","images/choice_trial_15.png","images/pattern_7.png","j","f","750","8","15","6","0","19","1","0","8","130","","","","",""
"html-keyboard-response","102","227476","0.0-44.0-1.0","","null","<div style=""display: flex; flex-direction: column; align-items: center; margin-top: -40px;""><img src=""images/pattern_7.png"" style=""width: 234px; height: 230px; margin-top: -50px;""><div style=""display: flex; justify-content: space-between; margin-top: 33px;""><img src=""images/choice_trial_8.png"" style=""width: 408px; height: 417px; margin-right: 608px;""></div></div>","null","delaylearn","learning","display_response","5c4068a67f81e900012b281e","l64fJTO72RMtCCO99thFg0jCTzh1","","","","","","","","","","","","","","","","","chosen stimuli: images/choice_trial_8.png","","","",""
"html-keyboard-response","103","228227","0.0-44.0-2.0","","null","","null","delaylearn","learning","feedback_duration_window","5c4068a67f81e900012b281e","l64fJTO72RMtCCO99thFg0jCTzh1","","","","","","","","","","","","","","","","","","750","","",""
"html-keyboard-response","104","229727","0.0-44.0-3.0","","null","<div style='margin:auto;width: auto; font-size: 150%'><span style='font-weight: bold; font-size: 100px; color: red;'>0 points!</span><br><br></div>","null","delaylearn","learning","feedback_image_window","5c4068a67f81e900012b281e","l64fJTO72RMtCCO99thFg0jCTzh1","","","","","","","","","","","","","","","","","","","","",""
"html-keyboard-response","105","231940","0.0-45.0","","null","<div style=""font-size:100px;"">+</div>","null","delaylearn","learning","ITI","5c4068a67f81e900012b281e","l64fJTO72RMtCCO99thFg0jCTzh1","","","","","","","","","","","","","","","","","","","2206","",""
"html-keyboard-response","106","233883","0.0-46.0-0.0","","1941.7000000001863","<div style=""display: flex; flex-direction: column; align-items: center; margin-top: -40px;""><img src=""images/pattern_1.png"" style=""width: 234px; height: 230px; margin-top: -50px;""><div style=""display: flex; justify-content: space-between; margin-top: 33px;""><img src=""images/choice_trial_3.png"" style=""width: 408px; height: 417px; margin-right: 200px;""><img src=""images/choice_trial_10.png"" style=""width: 408px; height: 417px;""></div></div>","f","delaylearn","learning","trial","5c4068a67f81e900012b281e","l64fJTO72RMtCCO99thFg0jCTzh1","2","images/choice_trial_3.png","images/choice_trial_10.png","images/pattern_1.png","f","f","7000","3","10","1","0","20","1","1","3","140","","","","",""
"html-keyboard-response","107","234885","0.0-46.0-1.0","","null","<div style=""display: flex; flex-direction: column; align-items: center; margin-top: -40px;""><img src=""images/pattern_1.png"" style=""width: 234px; height: 230px; margin-top: -50px;""><div style=""display: flex; justify-content: space-between; margin-top: 33px;""><img src=""images/choice_trial_3.png"" style=""width: 408px; height: 417px; margin-right: 608px;""></div></div>","null","delaylearn","learning","display_response","5c4068a67f81e900012b281e","l64fJTO72RMtCCO99thFg0jCTzh1","","","","","","","","","","","","","","","","","chosen stimuli: images/choice_trial_3.png","","","",""
"html-keyboard-response","108","241886","0.0-46.0-2.0","","null","","null","delaylearn","learning","feedback_duration_window","5c4068a67f81e900012b281e","l64fJTO72RMtCCO99thFg0jCTzh1","","","","","","","","","","","","","","","","","","7000","","",""
"html-keyboard-response","109","243387","0.0-46.0-3.0","","null","<div style='margin:auto;width: auto; font-size: 150%'><span style='font-weight: bold; font-size: 100px; color: green;'>+10 points!</span><br><br></div>","null","delaylearn","learning","feedback_image_window","5c4068a67f81e900012b281e","l64fJTO72RMtCCO99thFg0jCTzh1","","","","","","","","","","","","","","","","","","","","",""
"html-keyboard-response","110","244922","0.0-47.0","","null","<div style=""font-size:100px;"">+</div>","null","delaylearn","learning","ITI","5c4068a67f81e900012b281e","l64fJTO72RMtCCO99thFg0jCTzh1","","","","","","","","","","","","","","","","","","","1530","",""
"html-keyboard-response","111","246717","0.0-48.0-0.0","","1793.800000000745","<div style=""display: flex; flex-direction: column; align-items: center; margin-top: -40px;""><img src=""images/pattern_6.png"" style=""width: 234px; height: 230px; margin-top: -50px;""><div style=""display: flex; justify-content: space-between; margin-top: 33px;""><img src=""images/choice_trial_5.png"" style=""width: 408px; height: 417px; margin-right: 200px;""><img src=""images/choice_trial_11.png"" style=""width: 408px; height: 417px;""></div></div>","j","delaylearn","learning","trial","5c4068a67f81e900012b281e","l64fJTO72RMtCCO99thFg0jCTzh1","2","images/choice_trial_5.png","images/choice_trial_11.png","images/pattern_6.png","j","j","750","5","11","5","1","21","1","1","11","150","","","","",""
"html-keyboard-response","112","247718","0.0-48.0-1.0","","null","<div style=""display: flex; flex-direction: column; align-items: center; margin-top: -40px;""><img src=""images/pattern_6.png"" style=""width: 234px; height: 230px; margin-top: -50px;""><div style=""display: flex; justify-content: space-between; margin-top: 33px;""><img src=""images/choice_trial_11.png"" style=""width: 408px; height: 417px; margin-left:608px;""></div></div>","null","delaylearn","learning","display_response","5c4068a67f81e900012b281e","l64fJTO72RMtCCO99thFg0jCTzh1","","","","","","","","","","","","","","","","","chosen stimuli: images/choice_trial_11.png","","","",""
"html-keyboard-response","113","248470","0.0-48.0-2.0","","null","","null","delaylearn","learning","feedback_duration_window","5c4068a67f81e900012b281e","l64fJTO72RMtCCO99thFg0jCTzh1","","","","","","","","","","","","","","","","","","750","","",""
"html-keyboard-response","114","249971","0.0-48.0-3.0","","null","<div style='margin:auto;width: auto; font-size: 150%'><span style='font-weight: bold; font-size: 100px; color: green;'>+10 points!</span><br><br></div>","null","delaylearn","learning","feedback_image_window","5c4068a67f81e900012b281e","l64fJTO72RMtCCO99thFg0jCTzh1","","","","","","","","","","","","","","","","","","","","",""
"html-keyboard-response","115","251892","0.0-49.0","","null","<div style=""font-size:100px;"">+</div>","null","delaylearn","learning","ITI","5c4068a67f81e900012b281e","l64fJTO72RMtCCO99thFg0jCTzh1","","","","","","","","","","","","","","","","","","","1921","",""
"html-keyboard-response","116","253645","0.0-50.0-0.0","","1751.7999999998137","<div style=""display: flex; flex-direction: column; align-items: center; margin-top: -40px;""><img src=""images/pattern_4.png"" style=""width: 234px; height: 230px; margin-top: -50px;""><div style=""display: flex; justify-content: space-between; margin-top: 33px;""><img src=""images/choice_trial_4.png"" style=""width: 408px; height: 417px; margin-right: 200px;""><img src=""images/choice_trial_16.png"" style=""width: 408px; height: 417px;""></div></div>","f","delaylearn","learning","trial","5c4068a67f81e900012b281e","l64fJTO72RMtCCO99thFg0jCTzh1","2","images/choice_trial_4.png","images/choice_trial_16.png","images/pattern_4.png","f","f","7000","4","16","3","0","22","1","1","4","160","","","","",""
"html-keyboard-response","117","254655","0.0-50.0-1.0","","null","<div style=""display: flex; flex-direction: column; align-items: center; margin-top: -40px;""><img src=""images/pattern_4.png"" style=""width: 234px; height: 230px; margin-top: -50px;""><div style=""display: flex; justify-content: space-between; margin-top: 33px;""><img src=""images/choice_trial_4.png"" style=""width: 408px; height: 417px; margin-right: 608px;""></div></div>","null","delaylearn","learning","display_response","5c4068a67f81e900012b281e","l64fJTO72RMtCCO99thFg0jCTzh1","","","","","","","","","","","","","","","","","chosen stimuli: images/choice_trial_4.png","","","",""
"html-keyboard-response","118","261665","0.0-50.0-2.0","","null","","null","delaylearn","learning","feedback_duration_window","5c4068a67f81e900012b281e","l64fJTO72RMtCCO99thFg0jCTzh1","","","","","","","","","","","","","","","","","","7000","","",""
"html-keyboard-response","119","263166","0.0-50.0-3.0","","null","<div style='margin:auto;width: auto; font-size: 150%'><span style='font-weight: bold; font-size: 100px; color: green;'>+10 points!</span><br><br></div>","null","delaylearn","learning","feedback_image_window","5c4068a67f81e900012b281e","l64fJTO72RMtCCO99thFg0jCTzh1","","","","","","","","","","","","","","","","","","","","",""
"html-keyboard-response","120","263667","0.0-51.0-0.0","","null","","null","","","mood_trial_fixation","","","","","","","","","","","","","","","","","","","","","","",""
"lmdlab-html-vas-response","121","266494","0.0-51.0-1.0","","1823","How happy are you right now?","0.625","delaylearn","learning","mood_trial","5c4068a67f81e900012b281e","l64fJTO72RMtCCO99thFg0jCTzh1","","","","","","","","","","","","","","","","","","","","[""Very unhappy"",""Very happy""]",""
"html-keyboard-response","122","268818","0.0-52.0","","null","<div style=""font-size:100px;"">+</div>","null","delaylearn","learning","ITI","5c4068a67f81e900012b281e","l64fJTO72RMtCCO99thFg0jCTzh1","","","","","","","","","","","","","","","","","","","2324","",""
"html-keyboard-response","123","270559","0.0-53.0-0.0","","1739.5999999996275","<div style=""display: flex; flex-direction: column; align-items: center; margin-top: -40px;""><img src=""images/pattern_7.png"" style=""width: 234px; height: 230px; margin-top: -50px;""><div style=""display: flex; justify-content: space-between; margin-top: 33px;""><img src=""images/choice_trial_15.png"" style=""width: 408px; height: 417px; margin-right: 200px;""><img src=""images/choice_trial_8.png"" style=""width: 408px; height: 417px;""></div></div>","j","delaylearn","learning","trial","5c4068a67f81e900012b281e","l64fJTO72RMtCCO99thFg0jCTzh1","2","images/choice_trial_15.png","images/choice_trial_8.png","images/pattern_7.png","j","j","750","15","8","6","1","23","1","1","8","170","","","","",""
"html-keyboard-response","124","271561","0.0-53.0-1.0","","null","<div style=""display: flex; flex-direction: column; align-items: center; margin-top: -40px;""><img src=""images/pattern_7.png"" style=""width: 234px; height: 230px; margin-top: -50px;""><div style=""display: flex; justify-content: space-between; margin-top: 33px;""><img src=""images/choice_trial_8.png"" style=""width: 408px; height: 417px; margin-left:608px;""></div></div>","null","delaylearn","learning","display_response","5c4068a67f81e900012b281e","l64fJTO72RMtCCO99thFg0jCTzh1","","","","","","","","","","","","","","","","","chosen stimuli: images/choice_trial_8.png","","","",""
"html-keyboard-response","125","272311","0.0-53.0-2.0","","null","","null","delaylearn","learning","feedback_duration_window","5c4068a67f81e900012b281e","l64fJTO72RMtCCO99thFg0jCTzh1","","","","","","","","","","","","","","","","","","750","","",""
"html-keyboard-response","126","273812","0.0-53.0-3.0","","null","<div style='margin:auto;width: auto; font-size: 150%'><span style='font-weight: bold; font-size: 100px; color: green;'>+10 points!</span><br><br></div>","null","delaylearn","learning","feedback_image_window","5c4068a67f81e900012b281e","l64fJTO72RMtCCO99thFg0jCTzh1","","","","","","","","","","","","","","","","","","","","",""
"html-keyboard-response","127","275406","0.0-54.0","","null","<div style=""font-size:100px;"">+</div>","null","delaylearn","learning","ITI","5c4068a67f81e900012b281e","l64fJTO72RMtCCO99thFg0jCTzh1","","","","","","","","","","","","","","","","","","","1585","",""
"html-keyboard-response","128","277184","0.0-55.0-0.0","","1777.199999999255","<div style=""display: flex; flex-direction: column; align-items: center; margin-top: -40px;""><img src=""images/pattern_1.png"" style=""width: 234px; height: 230px; margin-top: -50px;""><div style=""display: flex; justify-content: space-between; margin-top: 33px;""><img src=""images/choice_trial_10.png"" style=""width: 408px; height: 417px; margin-right: 200px;""><img src=""images/choice_trial_3.png"" style=""width: 408px; height: 417px;""></div></div>","j","delaylearn","learning","trial","5c4068a67f81e900012b281e","l64fJTO72RMtCCO99thFg0jCTzh1","2","images/choice_trial_10.png","images/choice_trial_3.png","images/pattern_1.png","f","j","7000","10","3","1","1","24","1","0","3","170","","","","",""
"html-keyboard-response","129","278185","0.0-55.0-1.0","","null","<div style=""display: flex; flex-direction: column; align-items: center; margin-top: -40px;""><img src=""images/pattern_1.png"" style=""width: 234px; height: 230px; margin-top: -50px;""><div style=""display: flex; justify-content: space-between; margin-top: 33px;""><img src=""images/choice_trial_3.png"" style=""width: 408px; height: 417px; margin-left:608px;""></div></div>","null","delaylearn","learning","display_response","5c4068a67f81e900012b281e","l64fJTO72RMtCCO99thFg0jCTzh1","","","","","","","","","","","","","","","","","chosen stimuli: images/choice_trial_3.png","","","",""
"html-keyboard-response","130","285186","0.0-55.0-2.0","","null","","null","delaylearn","learning","feedback_duration_window","5c4068a67f81e900012b281e","l64fJTO72RMtCCO99thFg0jCTzh1","","","","","","","","","","","","","","","","","","7000","","",""
"html-keyboard-response","131","286687","0.0-55.0-3.0","","null","<div style='margin:auto;width: auto; font-size: 150%'><span style='font-weight: bold; font-size: 100px; color: red;'>0 points!</span><br><br></div>","null","delaylearn","learning","feedback_image_window","5c4068a67f81e900012b281e","l64fJTO72RMtCCO99thFg0jCTzh1","","","","","","","","","","","","","","","","","","","","",""
"html-keyboard-response","132","288769","0.0-56.0","","null","<div style=""font-size:100px;"">+</div>","null","delaylearn","learning","ITI","5c4068a67f81e900012b281e","l64fJTO72RMtCCO99thFg0jCTzh1","","","","","","","","","","","","","","","","","","","2081","",""
"html-keyboard-response","133","290290","0.0-57.0-0.0","","1518.699999999255","<div style=""display: flex; flex-direction: column; align-items: center; margin-top: -40px;""><img src=""images/pattern_5.png"" style=""width: 234px; height: 230px; margin-top: -50px;""><div style=""display: flex; justify-content: space-between; margin-top: 33px;""><img src=""images/choice_trial_9.png"" style=""width: 408px; height: 417px; margin-right: 200px;""><img src=""images/choice_trial_2.png"" style=""width: 408px; height: 417px;""></div></div>","f","delaylearn","learning","trial","5c4068a67f81e900012b281e","l64fJTO72RMtCCO99thFg0jCTzh1","2","images/choice_trial_9.png","images/choice_trial_2.png","images/pattern_5.png","j","j","750","9","2","4","1","25","0","0","9","170","","","","",""
"html-keyboard-response","134","291291","0.0-57.0-1.0","","null","<div style=""display: flex; flex-direction: column; align-items: center; margin-top: -40px;""><img src=""images/pattern_5.png"" style=""width: 234px; height: 230px; margin-top: -50px;""><div style=""display: flex; justify-content: space-between; margin-top: 33px;""><img src=""images/choice_trial_9.png"" style=""width: 408px; height: 417px; margin-right: 608px;""></div></div>","null","delaylearn","learning","display_response","5c4068a67f81e900012b281e","l64fJTO72RMtCCO99thFg0jCTzh1","","","","","","","","","","","","","","","","","chosen stimuli: images/choice_trial_9.png","","","",""
"html-keyboard-response","135","292043","0.0-57.0-2.0","","null","","null","delaylearn","learning","feedback_duration_window","5c4068a67f81e900012b281e","l64fJTO72RMtCCO99thFg0jCTzh1","","","","","","","","","","","","","","","","","","750","","",""
"html-keyboard-response","136","293544","0.0-57.0-3.0","","null","<div style='margin:auto;width: auto; font-size: 150%'><span style='font-weight: bold; font-size: 100px; color: red;'>0 points!</span><br><br></div>","null","delaylearn","learning","feedback_image_window","5c4068a67f81e900012b281e","l64fJTO72RMtCCO99thFg0jCTzh1","","","","","","","","","","","","","","","","","","","","",""
"html-keyboard-response","137","295782","0.0-58.0","","null","<div style=""font-size:100px;"">+</div>","null","delaylearn","learning","ITI","5c4068a67f81e900012b281e","l64fJTO72RMtCCO99thFg0jCTzh1","","","","","","","","","","","","","","","","","","","2237","",""
"html-keyboard-response","138","297922","0.0-59.0-0.0","","2138.5","<div style=""display: flex; flex-direction: column; align-items: center; margin-top: -40px;""><img src=""images/pattern_3.png"" style=""width: 234px; height: 230px; margin-top: -50px;""><div style=""display: flex; justify-content: space-between; margin-top: 33px;""><img src=""images/choice_trial_14.png"" style=""width: 408px; height: 417px; margin-right: 200px;""><img src=""images/choice_trial_12.png"" style=""width: 408px; height: 417px;""></div></div>","f","delaylearn","learning","trial","5c4068a67f81e900012b281e","l64fJTO72RMtCCO99thFg0jCTzh1","2","images/choice_trial_14.png","images/choice_trial_12.png","images/pattern_3.png","j","j","7000","14","12","2","1","26","0","0","14","170","","","","",""
"html-keyboard-response","139","298923","0.0-59.0-1.0","","null","<div style=""display: flex; flex-direction: column; align-items: center; margin-top: -40px;""><img src=""images/pattern_3.png"" style=""width: 234px; height: 230px; margin-top: -50px;""><div style=""display: flex; justify-content: space-between; margin-top: 33px;""><img src=""images/choice_trial_14.png"" style=""width: 408px; height: 417px; margin-right: 608px;""></div></div>","null","delaylearn","learning","display_response","5c4068a67f81e900012b281e","l64fJTO72RMtCCO99thFg0jCTzh1","","","","","","","","","","","","","","","","","chosen stimuli: images/choice_trial_14.png","","","",""
"html-keyboard-response","140","305924","0.0-59.0-2.0","","null","","null","delaylearn","learning","feedback_duration_window","5c4068a67f81e900012b281e","l64fJTO72RMtCCO99thFg0jCTzh1","","","","","","","","","","","","","","","","","","7000","","",""
"html-keyboard-response","141","307425","0.0-59.0-3.0","","null","<div style='margin:auto;width: auto; font-size: 150%'><span style='font-weight: bold; font-size: 100px; color: red;'>0 points!</span><br><br></div>","null","delaylearn","learning","feedback_image_window","5c4068a67f81e900012b281e","l64fJTO72RMtCCO99thFg0jCTzh1","","","","","","","","","","","","","","","","","","","","",""
"lmdlab-html-vas-response","142","312356","0.0-60.0-0.0","","3422","*How <b><u>confident</u></b> are you feeling about your answers at this moment?*","0.21296296296296297","rewlearn","rate_confidence","","5c4068a67f81e900012b281e","l64fJTO72RMtCCO99thFg0jCTzh1","","","","","","","","","","","","","","","","","","","","[""No confidence"",""Complete confidence""]",""
"lmdlab-rest-trial-limit","143","376994","0.0-60.0-1.0","","63121.40000000037","<div style=""font-size:40px;""><b>Please take a break!</b><br><br><br><br><p>Great work: you earned 170 points.<br><br><br><p>You have completed part(s) 1 of 5.<br><br><br><br>When you are ready to continue<br><br><br>please click the button.</p><br><br>","0","delaylearn","learning","break","5c4068a67f81e900012b281e","l64fJTO72RMtCCO99thFg0jCTzh1","","","","","","","","","","","","","","","","","","","","","0"
"html-keyboard-response","144","379995","0.0-60.0-2.0","","null","<div style=""font-size:100px;"">+</div>","null","delaylearn","learning","pre_fixation","5c4068a67f81e900012b281e","","","","","","","","","","","","","","","","","","","","","",""
"lmdlab-html-vas-response","145","382784","0.0-60.0-3.0-0.0","","1782","How happy are you right now?","0.4305555555555556","delaylearn","learning","mood_baseline","5c4068a67f81e900012b281e","l64fJTO72RMtCCO99thFg0jCTzh1","","","","","","","","","","","","","","","","","","","","[""Very unhappy"",""Very happy""]",""
"html-keyboard-response","146","384285","0.0-60.0-3.0-1.0","","null","","null","","","mood_baseline_fixation","","","","","","","","","","","","","","","","","","","","","","",""
"html-keyboard-response","147","385799","0.0-61.0","","null","<div style=""font-size:100px;"">+</div>","null","delaylearn","learning","ITI","5c4068a67f81e900012b281e","l64fJTO72RMtCCO99thFg0jCTzh1","","","","","","","","","","","","","","","","","","","1513","",""
"html-keyboard-response","148","387339","0.0-62.0-0.0","","1538.9000000003725","<div style=""display: flex; flex-direction: column; align-items: center; margin-top: -40px;""><img src=""images/pattern_7.png"" style=""width: 234px; height: 230px; margin-top: -50px;""><div style=""display: flex; justify-content: space-between; margin-top: 33px;""><img src=""images/choice_trial_15.png"" style=""width: 408px; height: 417px; margin-right: 200px;""><img src=""images/choice_trial_8.png"" style=""width: 408px; height: 417px;""></div></div>","j","delaylearn","learning","trial","5c4068a67f81e900012b281e","l64fJTO72RMtCCO99thFg0jCTzh1","2","images/choice_trial_15.png","images/choice_trial_8.png","images/pattern_7.png","j","j","750","15","8","6","1","27","1","1","8","180","","","","",""
"html-keyboard-response","149","388341","0.0-62.0-1.0","","null","<div style=""display: flex; flex-direction: column; align-items: center; margin-top: -40px;""><img src=""images/pattern_7.png"" style=""width: 234px; height: 230px; margin-top: -50px;""><div style=""display: flex; justify-content: space-between; margin-top: 33px;""><img src=""images/choice_trial_8.png"" style=""width: 408px; height: 417px; margin-left:608px;""></div></div>","null","delaylearn","learning","display_response","5c4068a67f81e900012b281e","l64fJTO72RMtCCO99thFg0jCTzh1","","","","","","","","","","","","","","","","","chosen stimuli: images/choice_trial_8.png","","","",""
"html-keyboard-response","150","389092","0.0-62.0-2.0","","null","","null","delaylearn","learning","feedback_duration_window","5c4068a67f81e900012b281e","l64fJTO72RMtCCO99thFg0jCTzh1","","","","","","","","","","","","","","","","","","750","","",""
"html-keyboard-response","151","390602","0.0-62.0-3.0","","null","<div style='margin:auto;width: auto; font-size: 150%'><span style='font-weight: bold; font-size: 100px; color: green;'>+10 points!</span><br><br></div>","null","delaylearn","learning","feedback_image_window","5c4068a67f81e900012b281e","l64fJTO72RMtCCO99thFg0jCTzh1","","","","","","","","","","","","","","","","","","","","",""
"html-keyboard-response","152","391112","0.0-63.0-0.0","","null","","null","","","mood_trial_fixation","","","","","","","","","","","","","","","","","","","","","","",""
"lmdlab-html-vas-response","153","394638","0.0-63.0-1.0","","2524","How happy are you right now?","0.5015432098765432","delaylearn","learning","mood_trial","5c4068a67f81e900012b281e","l64fJTO72RMtCCO99thFg0jCTzh1","","","","","","","","","","","","","","","","","","","","[""Very unhappy"",""Very happy""]",""
"html-keyboard-response","154","396639","0.0-64.0","","null","<div style=""font-size:100px;"">+</div>","null","delaylearn","learning","ITI","5c4068a67f81e900012b281e","l64fJTO72RMtCCO99thFg0jCTzh1","","","","","","","","","","","","","","","","","","","2000","",""
"html-keyboard-response","155","398316","0.0-65.0-0.0","","1676.1000000005588","<div style=""display: flex; flex-direction: column; align-items: center; margin-top: -40px;""><img src=""images/pattern_1.png"" style=""width: 234px; height: 230px; margin-top: -50px;""><div style=""display: flex; justify-content: space-between; margin-top: 33px;""><img src=""images/choice_trial_3.png"" style=""width: 408px; height: 417px; margin-right: 200px;""><img src=""images/choice_trial_10.png"" style=""width: 408px; height: 417px;""></div></div>","f","delaylearn","learning","trial","5c4068a67f81e900012b281e","l64fJTO72RMtCCO99thFg0jCTzh1","2","images/choice_trial_3.png","images/choice_trial_10.png","images/pattern_1.png","f","f","7000","3","10","1","0","28","1","1","3","190","","","","",""
"html-keyboard-response","156","399317","0.0-65.0-1.0","","null","<div style=""display: flex; flex-direction: column; align-items: center; margin-top: -40px;""><img src=""images/pattern_1.png"" style=""width: 234px; height: 230px; margin-top: -50px;""><div style=""display: flex; justify-content: space-between; margin-top: 33px;""><img src=""images/choice_trial_3.png"" style=""width: 408px; height: 417px; margin-right: 608px;""></div></div>","null","delaylearn","learning","display_response","5c4068a67f81e900012b281e","l64fJTO72RMtCCO99thFg0jCTzh1","","","","","","","","","","","","","","","","","chosen stimuli: images/choice_trial_3.png","","","",""
"html-keyboard-response","157","406320","0.0-65.0-2.0","","null","","null","delaylearn","learning","feedback_duration_window","5c4068a67f81e900012b281e","l64fJTO72RMtCCO99thFg0jCTzh1","","","","","","","","","","","","","","","","","","7000","","",""
"html-keyboard-response","158","407828","0.0-65.0-3.0","","null","<div style='margin:auto;width: auto; font-size: 150%'><span style='font-weight: bold; font-size: 100px; color: green;'>+10 points!</span><br><br></div>","null","delaylearn","learning","feedback_image_window","5c4068a67f81e900012b281e","l64fJTO72RMtCCO99thFg0jCTzh1","","","","","","","","","","","","","","","","","","","","",""
"html-keyboard-response","159","409857","0.0-66.0","","null","<div style=""font-size:100px;"">+</div>","null","delaylearn","learning","ITI","5c4068a67f81e900012b281e","l64fJTO72RMtCCO99thFg0jCTzh1","","","","","","","","","","","","","","","","","","","2028","",""
"html-keyboard-response","160","412078","0.0-67.0-0.0","","2219.100000000559","<div style=""display: flex; flex-direction: column; align-items: center; margin-top: -40px;""><img src=""images/pattern_5.png"" style=""width: 234px; height: 230px; margin-top: -50px;""><div style=""display: flex; justify-content: space-between; margin-top: 33px;""><img src=""images/choice_trial_2.png"" style=""width: 408px; height: 417px; margin-right: 200px;""><img src=""images/choice_trial_9.png"" style=""width: 408px; height: 417px;""></div></div>","f","delaylearn","learning","trial","5c4068a67f81e900012b281e","l64fJTO72RMtCCO99thFg0jCTzh1","2","images/choice_trial_2.png","images/choice_trial_9.png","images/pattern_5.png","f","f","750","2","9","4","0","29","1","1","2","200","","","","",""
"html-keyboard-response","161","413086","0.0-67.0-1.0","","null","<div style=""display: flex; flex-direction: column; align-items: center; margin-top: -40px;""><img src=""images/pattern_5.png"" style=""width: 234px; height: 230px; margin-top: -50px;""><div style=""display: flex; justify-content: space-between; margin-top: 33px;""><img src=""images/choice_trial_2.png"" style=""width: 408px; height: 417px; margin-right: 608px;""></div></div>","null","delaylearn","learning","display_response","5c4068a67f81e900012b281e","l64fJTO72RMtCCO99thFg0jCTzh1","","","","","","","","","","","","","","","","","chosen stimuli: images/choice_trial_2.png","","","",""
"html-keyboard-response","162","413838","0.0-67.0-2.0","","null","","null","delaylearn","learning","feedback_duration_window","5c4068a67f81e900012b281e","l64fJTO72RMtCCO99thFg0jCTzh1","","","","","","","","","","","","","","","","","","750","","",""
"html-keyboard-response","163","415339","0.0-67.0-3.0","","null","<div style='margin:auto;width: auto; font-size: 150%'><span style='font-weight: bold; font-size: 100px; color: green;'>+10 points!</span><br><br></div>","null","delaylearn","learning","feedback_image_window","5c4068a67f81e900012b281e","l64fJTO72RMtCCO99thFg0jCTzh1","","","","","","","","","","","","","","","","","","","","",""
"html-keyboard-response","164","417220","0.0-68.0","","null","<div style=""font-size:100px;"">+</div>","null","delaylearn","learning","ITI","5c4068a67f81e900012b281e","l64fJTO72RMtCCO99thFg0jCTzh1","","","","","","","","","","","","","","","","","","","1880","",""
"html-keyboard-response","165","419390","0.0-69.0-0.0","","2168.899999999441","<div style=""display: flex; flex-direction: column; align-items: center; margin-top: -40px;""><img src=""images/pattern_6.png"" style=""width: 234px; height: 230px; margin-top: -50px;""><div style=""display: flex; justify-content: space-between; margin-top: 33px;""><img src=""images/choice_trial_5.png"" style=""width: 408px; height: 417px; margin-right: 200px;""><img src=""images/choice_trial_11.png"" style=""width: 408px; height: 417px;""></div></div>","j","delaylearn","learning","trial","5c4068a67f81e900012b281e","l64fJTO72RMtCCO99thFg0jCTzh1","2","images/choice_trial_5.png","images/choice_trial_11.png","images/pattern_6.png","j","j","750","5","11","5","1","30","1","1","11","210","","","","",""
"html-keyboard-response","166","420392","0.0-69.0-1.0","","null","<div style=""display: flex; flex-direction: column; align-items: center; margin-top: -40px;""><img src=""images/pattern_6.png"" style=""width: 234px; height: 230px; margin-top: -50px;""><div style=""display: flex; justify-content: space-between; margin-top: 33px;""><img src=""images/choice_trial_11.png"" style=""width: 408px; height: 417px; margin-left:608px;""></div></div>","null","delaylearn","learning","display_response","5c4068a67f81e900012b281e","l64fJTO72RMtCCO99thFg0jCTzh1","","","","","","","","","","","","","","","","","chosen stimuli: images/choice_trial_11.png","","","",""
"html-keyboard-response","167","421143","0.0-69.0-2.0","","null","","null","delaylearn","learning","feedback_duration_window","5c4068a67f81e900012b281e","l64fJTO72RMtCCO99thFg0jCTzh1","","","","","","","","","","","","","","","","","","750","","",""
"html-keyboard-response","168","422644","0.0-69.0-3.0","","null","<div style='margin:auto;width: auto; font-size: 150%'><span style='font-weight: bold; font-size: 100px; color: green;'>+10 points!</span><br><br></div>","null","delaylearn","learning","feedback_image_window","5c4068a67f81e900012b281e","l64fJTO72RMtCCO99thFg0jCTzh1","","","","","","","","","","","","","","","","","","","","",""
"html-keyboard-response","169","423145","0.0-70.0-0.0","","null","","null","","","mood_trial_fixation","","","","","","","","","","","","","","","","","","","","","","",""
"lmdlab-html-vas-response","170","426515","0.0-70.0-1.0","","2367","How happy are you right now?","0.6867283950617284","delaylearn","learning","mood_trial","5c4068a67f81e900012b281e","l64fJTO72RMtCCO99thFg0jCTzh1","","","","","","","","","","","","","","","","","","","","[""Very unhappy"",""Very happy""]",""
"html-keyboard-response","171","428957","0.0-71.0","","null","<div style=""font-size:100px;"">+</div>","null","delaylearn","learning","ITI","5c4068a67f81e900012b281e","l64fJTO72RMtCCO99thFg0jCTzh1","","","","","","","","","","","","","","","","","","","2441","",""
"html-keyboard-response","172","430768","0.0-72.0-0.0","","1809.8999999994412","<div style=""display: flex; flex-direction: column; align-items: center; margin-top: -40px;""><img src=""images/pattern_4.png"" style=""width: 234px; height: 230px; margin-top: -50px;""><div style=""display: flex; justify-content: space-between; margin-top: 33px;""><img src=""images/choice_trial_16.png"" style=""width: 408px; height: 417px; margin-right: 200px;""><img src=""images/choice_trial_4.png"" style=""width: 408px; height: 417px;""></div></div>","f","delaylearn","learning","trial","5c4068a67f81e900012b281e","l64fJTO72RMtCCO99thFg0jCTzh1","2","images/choice_trial_16.png","images/choice_trial_4.png","images/pattern_4.png","j","j","7000","16","4","3","1","31","0","0","16","210","","","","",""
"html-keyboard-response","173","431770","0.0-72.0-1.0","","null","<div style=""display: flex; flex-direction: column; align-items: center; margin-top: -40px;""><img src=""images/pattern_4.png"" style=""width: 234px; height: 230px; margin-top: -50px;""><div style=""display: flex; justify-content: space-between; margin-top: 33px;""><img src=""images/choice_trial_16.png"" style=""width: 408px; height: 417px; margin-right: 608px;""></div></div>","null","delaylearn","learning","display_response","5c4068a67f81e900012b281e","l64fJTO72RMtCCO99thFg0jCTzh1","","","","","","","","","","","","","","","","","chosen stimuli: images/choice_trial_16.png","","","",""
"html-keyboard-response","174","438772","0.0-72.0-2.0","","null","","null","delaylearn","learning","feedback_duration_window","5c4068a67f81e900012b281e","l64fJTO72RMtCCO99thFg0jCTzh1","","","","","","","","","","","","","","","","","","7000","","",""
"html-keyboard-response","175","440286","0.0-72.0-3.0","","null","<div style='margin:auto;width: auto; font-size: 150%'><span style='font-weight: bold; font-size: 100px; color: red;'>0 points!</span><br><br></div>","null","delaylearn","learning","feedback_image_window","5c4068a67f81e900012b281e","l64fJTO72RMtCCO99thFg0jCTzh1","","","","","","","","","","","","","","","","","","","","",""
"html-keyboard-response","176","442156","0.0-73.0","","null","<div style=""font-size:100px;"">+</div>","null","delaylearn","learning","ITI","5c4068a67f81e900012b281e","l64fJTO72RMtCCO99thFg0jCTzh1","","","","","","","","","","","","","","","","","","","1863","",""
"html-keyboard-response","177","444017","0.0-74.0-0.0","","1860.1000000005588","<div style=""display: flex; flex-direction: column; align-items: center; margin-top: -40px;""><img src=""images/pattern_3.png"" style=""width: 234px; height: 230px; margin-top: -50px;""><div style=""display: flex; justify-content: space-between; margin-top: 33px;""><img src=""images/choice_trial_14.png"" style=""width: 408px; height: 417px; margin-right: 200px;""><img src=""images/choice_trial_12.png"" style=""width: 408px; height: 417px;""></div></div>","f","delaylearn","learning","trial","5c4068a67f81e900012b281e","l64fJTO72RMtCCO99thFg0jCTzh1","2","images/choice_trial_14.png","images/choice_trial_12.png","images/pattern_3.png","j","j","7000","14","12","2","1","32","0","0","14","210","","","","",""
"html-keyboard-response","178","445028","0.0-74.0-1.0","","null","<div style=""display: flex; flex-direction: column; align-items: center; margin-top: -40px;""><img src=""images/pattern_3.png"" style=""width: 234px; height: 230px; margin-top: -50px;""><div style=""display: flex; justify-content: space-between; margin-top: 33px;""><img src=""images/choice_trial_14.png"" style=""width: 408px; height: 417px; margin-right: 608px;""></div></div>","null","delaylearn","learning","display_response","5c4068a67f81e900012b281e","l64fJTO72RMtCCO99thFg0jCTzh1","","","","","","","","","","","","","","","","","chosen stimuli: images/choice_trial_14.png","","","",""
"html-keyboard-response","179","452033","0.0-74.0-2.0","","null","","null","delaylearn","learning","feedback_duration_window","5c4068a67f81e900012b281e","l64fJTO72RMtCCO99thFg0jCTzh1","","","","","","","","","","","","","","","","","","7000","","",""
"html-keyboard-response","180","453535","0.0-74.0-3.0","","null","<div style='margin:auto;width: auto; font-size: 150%'><span style='font-weight: bold; font-size: 100px; color: red;'>0 points!</span><br><br></div>","null","delaylearn","learning","feedback_image_window","5c4068a67f81e900012b281e","l64fJTO72RMtCCO99thFg0jCTzh1","","","","","","","","","","","","","","","","","","","","",""
"html-keyboard-response","181","455862","0.0-75.0","","null","<div style=""font-size:100px;"">+</div>","null","delaylearn","learning","ITI","5c4068a67f81e900012b281e","l64fJTO72RMtCCO99thFg0jCTzh1","","","","","","","","","","","","","","","","","","","2325","",""
"html-keyboard-response","182","457794","0.0-76.0-0.0","","1930.8999999994412","<div style=""display: flex; flex-direction: column; align-items: center; margin-top: -40px;""><img src=""images/pattern_5.png"" style=""width: 234px; height: 230px; margin-top: -50px;""><div style=""display: flex; justify-content: space-between; margin-top: 33px;""><img src=""images/choice_trial_2.png"" style=""width: 408px; height: 417px; margin-right: 200px;""><img src=""images/choice_trial_9.png"" style=""width: 408px; height: 417px;""></div></div>","j","delaylearn","learning","trial","5c4068a67f81e900012b281e","l64fJTO72RMtCCO99thFg0jCTzh1","2","images/choice_trial_2.png","images/choice_trial_9.png","images/pattern_5.png","j","f","750","2","9","4","0","33","0","1","9","220","","","","",""
"html-keyboard-response","183","458796","0.0-76.0-1.0","","null","<div style=""display: flex; flex-direction: column; align-items: center; margin-top: -40px;""><img src=""images/pattern_5.png"" style=""width: 234px; height: 230px; margin-top: -50px;""><div style=""display: flex; justify-content: space-between; margin-top: 33px;""><img src=""images/choice_trial_9.png"" style=""width: 408px; height: 417px; margin-left:608px;""></div></div>","null","delaylearn","learning","display_response","5c4068a67f81e900012b281e","l64fJTO72RMtCCO99thFg0jCTzh1","","","","","","","","","","","","","","","","","chosen stimuli: images/choice_trial_9.png","","","",""
"html-keyboard-response","184","459548","0.0-76.0-2.0","","null","","null","delaylearn","learning","feedback_duration_window","5c4068a67f81e900012b281e","l64fJTO72RMtCCO99thFg0jCTzh1","","","","","","","","","","","","","","","","","","750","","",""
"html-keyboard-response","185","461049","0.0-76.0-3.0","","null","<div style='margin:auto;width: auto; font-size: 150%'><span style='font-weight: bold; font-size: 100px; color: green;'>+10 points!</span><br><br></div>","null","delaylearn","learning","feedback_image_window","5c4068a67f81e900012b281e","l64fJTO72RMtCCO99thFg0jCTzh1","","","","","","","","","","","","","","","","","","","","",""
"html-keyboard-response","186","463394","0.0-77.0","","null","<div style=""font-size:100px;"">+</div>","null","delaylearn","learning","ITI","5c4068a67f81e900012b281e","l64fJTO72RMtCCO99thFg0jCTzh1","","","","","","","","","","","","","","","","","","","2337","",""
"html-keyboard-response","187","466396","0.0-78.0-0.0","","null","<div style=""display: flex; flex-direction: column; align-items: center; margin-top: -40px;""><img src=""images/pattern_1.png"" style=""width: 234px; height: 230px; margin-top: -50px;""><div style=""display: flex; justify-content: space-between; margin-top: 33px;""><img src=""images/choice_trial_3.png"" style=""width: 408px; height: 417px; margin-right: 200px;""><img src=""images/choice_trial_10.png"" style=""width: 408px; height: 417px;""></div></div>","null","delaylearn","learning","trial","5c4068a67f81e900012b281e","l64fJTO72RMtCCO99thFg0jCTzh1","2","images/choice_trial_3.png","images/choice_trial_10.png","images/pattern_1.png","f","f","7000","3","10","1","0","34","0","0","0","220","","","","",""
"html-keyboard-response","188","467397","0.0-78.0-1.0","","null","<div style='font-weight: bold; font-size: 75px; color: red;'>Missed Trial <br><br><br><br> Please respond faster</div>","null","delaylearn","learning","display_response","5c4068a67f81e900012b281e","l64fJTO72RMtCCO99thFg0jCTzh1","","","","","","","","","","","","","","","","","Missed trial","","","",""
"html-keyboard-response","189","467403","0.0-78.0-2.0","","null","","null","delaylearn","learning","feedback_duration_window","5c4068a67f81e900012b281e","l64fJTO72RMtCCO99thFg0jCTzh1","","","","","","","","","","","","","","","","","","0","","",""
"html-keyboard-response","190","467408","0.0-78.0-3.0","","null","","null","delaylearn","learning","feedback_image_window","5c4068a67f81e900012b281e","l64fJTO72RMtCCO99thFg0jCTzh1","","","","","","","","","","","","","","","","","","","","",""
"html-keyboard-response","191","467909","0.0-79.0-0.0","","null","","null","","","mood_trial_fixation","","","","","","","","","","","","","","","","","","","","","","",""
"lmdlab-html-vas-response","192","471127","0.0-79.0-1.0","","2216","How happy are you right now?","0.44598765432098764","delaylearn","learning","mood_trial","5c4068a67f81e900012b281e","l64fJTO72RMtCCO99thFg0jCTzh1","","","","","","","","","","","","","","","","","","","","[""Very unhappy"",""Very happy""]",""
"html-keyboard-response","193","472793","0.0-80.0","","null","<div style=""font-size:100px;"">+</div>","null","delaylearn","learning","ITI","5c4068a67f81e900012b281e","l64fJTO72RMtCCO99thFg0jCTzh1","","","","","","","","","","","","","","","","","","","1665","",""
"html-keyboard-response","194","474564","0.0-81.0-0.0","","1769.2999999998137","<div style=""display: flex; flex-direction: column; align-items: center; margin-top: -40px;""><img src=""images/pattern_6.png"" style=""width: 234px; height: 230px; margin-top: -50px;""><div style=""display: flex; justify-content: space-between; margin-top: 33px;""><img src=""images/choice_trial_11.png"" style=""width: 408px; height: 417px; margin-right: 200px;""><img src=""images/choice_trial_5.png"" style=""width: 408px; height: 417px;""></div></div>","j","delaylearn","learning","trial","5c4068a67f81e900012b281e","l64fJTO72RMtCCO99thFg0jCTzh1","2","images/choice_trial_11.png","images/choice_trial_5.png","images/pattern_6.png","j","f","750","11","5","5","0","35","0","1","5","230","","","","",""
"html-keyboard-response","195","475565","0.0-81.0-1.0","","null","<div style=""display: flex; flex-direction: column; align-items: center; margin-top: -40px;""><img src=""images/pattern_6.png"" style=""width: 234px; height: 230px; margin-top: -50px;""><div style=""display: flex; justify-content: space-between; margin-top: 33px;""><img src=""images/choice_trial_5.png"" style=""width: 408px; height: 417px; margin-left:608px;""></div></div>","null","delaylearn","learning","display_response","5c4068a67f81e900012b281e","l64fJTO72RMtCCO99thFg0jCTzh1","","","","","","","","","","","","","","","","","chosen stimuli: images/choice_trial_5.png","","","",""
"html-keyboard-response","196","476317","0.0-81.0-2.0","","null","","null","delaylearn","learning","feedback_duration_window","5c4068a67f81e900012b281e","l64fJTO72RMtCCO99thFg0jCTzh1","","","","","","","","","","","","","","","","","","750","","",""
"html-keyboard-response","197","477819","0.0-81.0-3.0","","null","<div style='margin:auto;width: auto; font-size: 150%'><span style='font-weight: bold; font-size: 100px; color: green;'>+10 points!</span><br><br></div>","null","delaylearn","learning","feedback_image_window","5c4068a67f81e900012b281e","l64fJTO72RMtCCO99thFg0jCTzh1","","","","","","","","","","","","","","","","","","","","",""
"html-keyboard-response","198","479867","0.0-82.0","","null","<div style=""font-size:100px;"">+</div>","null","delaylearn","learning","ITI","5c4068a67f81e900012b281e","l64fJTO72RMtCCO99thFg0jCTzh1","","","","","","","","","","","","","","","","","","","2036","",""
"html-keyboard-response","199","482197","0.0-83.0-0.0","","2328.399999999441","<div style=""display: flex; flex-direction: column; align-items: center; margin-top: -40px;""><img src=""images/pattern_3.png"" style=""width: 234px; height: 230px; margin-top: -50px;""><div style=""display: flex; justify-content: space-between; margin-top: 33px;""><img src=""images/choice_trial_14.png"" style=""width: 408px; height: 417px; margin-right: 200px;""><img src=""images/choice_trial_12.png"" style=""width: 408px; height: 417px;""></div></div>","j","delaylearn","learning","trial","5c4068a67f81e900012b281e","l64fJTO72RMtCCO99thFg0jCTzh1","2","images/choice_trial_14.png","images/choice_trial_12.png","images/pattern_3.png","j","j","7000","14","12","2","1","36","1","1","12","240","","","","",""
"html-keyboard-response","200","483198","0.0-83.0-1.0","","null","<div style=""display: flex; flex-direction: column; align-items: center; margin-top: -40px;""><img src=""images/pattern_3.png"" style=""width: 234px; height: 230px; margin-top: -50px;""><div style=""display: flex; justify-content: space-between; margin-top: 33px;""><img src=""images/choice_trial_12.png"" style=""width: 408px; height: 417px; margin-left:608px;""></div></div>","null","delaylearn","learning","display_response","5c4068a67f81e900012b281e","l64fJTO72RMtCCO99thFg0jCTzh1","","","","","","","","","","","","","","","","","chosen stimuli: images/choice_trial_12.png","","","",""
"html-keyboard-response","201","490199","0.0-83.0-2.0","","null","","null","delaylearn","learning","feedback_duration_window","5c4068a67f81e900012b281e","l64fJTO72RMtCCO99thFg0jCTzh1","","","","","","","","","","","","","","","","","","7000","","",""
"html-keyboard-response","202","491700","0.0-83.0-3.0","","null","<div style='margin:auto;width: auto; font-size: 150%'><span style='font-weight: bold; font-size: 100px; color: green;'>+10 points!</span><br><br></div>","null","delaylearn","learning","feedback_image_window","5c4068a67f81e900012b281e","l64fJTO72RMtCCO99thFg0jCTzh1","","","","","","","","","","","","","","","","","","","","",""
"html-keyboard-response","203","494136","0.0-84.0","","null","<div style=""font-size:100px;"">+</div>","null","delaylearn","learning","ITI","5c4068a67f81e900012b281e","l64fJTO72RMtCCO99thFg0jCTzh1","","","","","","","","","","","","","","","","","","","2434","",""
"html-keyboard-response","204","496007","0.0-85.0-0.0","","1868.7999999998137","<div style=""display: flex; flex-direction: column; align-items: center; margin-top: -40px;""><img src=""images/pattern_4.png"" style=""width: 234px; height: 230px; margin-top: -50px;""><div style=""display: flex; justify-content: space-between; margin-top: 33px;""><img src=""images/choice_trial_16.png"" style=""width: 408px; height: 417px; margin-right: 200px;""><img src=""images/choice_trial_4.png"" style=""width: 408px; height: 417px;""></div></div>","f","delaylearn","learning","trial","5c4068a67f81e900012b281e","l64fJTO72RMtCCO99thFg0jCTzh1","2","images/choice_trial_16.png","images/choice_trial_4.png","images/pattern_4.png","f","j","7000","16","4","3","1","37","0","1","16","250","","","","",""
"html-keyboard-response","205","497008","0.0-85.0-1.0","","null","<div style=""display: flex; flex-direction: column; align-items: center; margin-top: -40px;""><img src=""images/pattern_4.png"" style=""width: 234px; height: 230px; margin-top: -50px;""><div style=""display: flex; justify-content: space-between; margin-top: 33px;""><img src=""images/choice_trial_16.png"" style=""width: 408px; height: 417px; margin-right: 608px;""></div></div>","null","delaylearn","learning","display_response","5c4068a67f81e900012b281e","l64fJTO72RMtCCO99thFg0jCTzh1","","","","","","","","","","","","","","","","","chosen stimuli: images/choice_trial_16.png","","","",""
"html-keyboard-response","206","504009","0.0-85.0-2.0","","null","","null","delaylearn","learning","feedback_duration_window","5c4068a67f81e900012b281e","l64fJTO72RMtCCO99thFg0jCTzh1","","","","","","","","","","","","","","","","","","7000","","",""
"html-keyboard-response","207","505511","0.0-85.0-3.0","","null","<div style='margin:auto;width: auto; font-size: 150%'><span style='font-weight: bold; font-size: 100px; color: green;'>+10 points!</span><br><br></div>","null","delaylearn","learning","feedback_image_window","5c4068a67f81e900012b281e","l64fJTO72RMtCCO99thFg0jCTzh1","","","","","","","","","","","","","","","","","","","","",""
"html-keyboard-response","208","507499","0.0-86.0","","null","<div style=""font-size:100px;"">+</div>","null","delaylearn","learning","ITI","5c4068a67f81e900012b281e","l64fJTO72RMtCCO99thFg0jCTzh1","","","","","","","","","","","","","","","","","","","1987","",""
"html-keyboard-response","209","509768","0.0-87.0-0.0","","2267.5","<div style=""display: flex; flex-direction: column; align-items: center; margin-top: -40px;""><img src=""images/pattern_7.png"" style=""width: 234px; height: 230px; margin-top: -50px;""><div style=""display: flex; justify-content: space-between; margin-top: 33px;""><img src=""images/choice_trial_8.png"" style=""width: 408px; height: 417px; margin-right: 200px;""><img src=""images/choice_trial_15.png"" style=""width: 408px; height: 417px;""></div></div>","f","delaylearn","learning","trial","5c4068a67f81e900012b281e","l64fJTO72RMtCCO99thFg0jCTzh1","2","images/choice_trial_8.png","images/choice_trial_15.png","images/pattern_7.png","f","f","750","8","15","6","0","38","1","1","8","260","","","","",""
"html-keyboard-response","210","510769","0.0-87.0-1.0","","null","<div style=""display: flex; flex-direction: column; align-items: center; margin-top: -40px;""><img src=""images/pattern_7.png"" style=""width: 234px; height: 230px; margin-top: -50px;""><div style=""display: flex; justify-content: space-between; margin-top: 33px;""><img src=""images/choice_trial_8.png"" style=""width: 408px; height: 417px; margin-right: 608px;""></div></div>","null","delaylearn","learning","display_response","5c4068a67f81e900012b281e","l64fJTO72RMtCCO99thFg0jCTzh1","","","","","","","","","","","","","","","","","chosen stimuli: images/choice_trial_8.png","","","",""
"html-keyboard-response","211","511520","0.0-87.0-2.0","","null","","null","delaylearn","learning","feedback_duration_window","5c4068a67f81e900012b281e","l64fJTO72RMtCCO99thFg0jCTzh1","","","","","","","","","","","","","","","","","","750","","",""
"html-keyboard-response","212","513021","0.0-87.0-3.0","","null","<div style='margin:auto;width: auto; font-size: 150%'><span style='font-weight: bold; font-size: 100px; color: green;'>+10 points!</span><br><br></div>","null","delaylearn","learning","feedback_image_window","5c4068a67f81e900012b281e","l64fJTO72RMtCCO99thFg0jCTzh1","","","","","","","","","","","","","","","","","","","","",""
"html-keyboard-response","213","514989","0.0-88.0","","null","<div style=""font-size:100px;"">+</div>","null","delaylearn","learning","ITI","5c4068a67f81e900012b281e","l64fJTO72RMtCCO99thFg0jCTzh1","","","","","","","","","","","","","","","","","","","1967","",""
"html-keyboard-response","214","517273","0.0-89.0-0.0","","2282","<div style=""display: flex; flex-direction: column; align-items: center; margin-top: -40px;""><img src=""images/pattern_1.png"" style=""width: 234px; height: 230px; margin-top: -50px;""><div style=""display: flex; justify-content: space-between; margin-top: 33px;""><img src=""images/choice_trial_3.png"" style=""width: 408px; height: 417px; margin-right: 200px;""><img src=""images/choice_trial_10.png"" style=""width: 408px; height: 417px;""></div></div>","f","delaylearn","learning","trial","5c4068a67f81e900012b281e","l64fJTO72RMtCCO99thFg0jCTzh1","2","images/choice_trial_3.png","images/choice_trial_10.png","images/pattern_1.png","f","f","7000","3","10","1","0","39","1","1","3","270","","","","",""
"html-keyboard-response","215","518274","0.0-89.0-1.0","","null","<div style=""display: flex; flex-direction: column; align-items: center; margin-top: -40px;""><img src=""images/pattern_1.png"" style=""width: 234px; height: 230px; margin-top: -50px;""><div style=""display: flex; justify-content: space-between; margin-top: 33px;""><img src=""images/choice_trial_3.png"" style=""width: 408px; height: 417px; margin-right: 608px;""></div></div>","null","delaylearn","learning","display_response","5c4068a67f81e900012b281e","l64fJTO72RMtCCO99thFg0jCTzh1","","","","","","","","","","","","","","","","","chosen stimuli: images/choice_trial_3.png","","","",""
"html-keyboard-response","216","525275","0.0-89.0-2.0","","null","","null","delaylearn","learning","feedback_duration_window","5c4068a67f81e900012b281e","l64fJTO72RMtCCO99thFg0jCTzh1","","","","","","","","","","","","","","","","","","7000","","",""
"html-keyboard-response","217","526777","0.0-89.0-3.0","","null","<div style='margin:auto;width: auto; font-size: 150%'><span style='font-weight: bold; font-size: 100px; color: green;'>+10 points!</span><br><br></div>","null","delaylearn","learning","feedback_image_window","5c4068a67f81e900012b281e","l64fJTO72RMtCCO99thFg0jCTzh1","","","","","","","","","","","","","","","","","","","","",""
"html-keyboard-response","218","527277","0.0-90.0-0.0","","null","","null","","","mood_trial_fixation","","","","","","","","","","","","","","","","","","","","","","",""
"lmdlab-html-vas-response","219","530865","0.0-90.0-1.0","","2585","How happy are you right now?","0.5879629629629629","delaylearn","learning","mood_trial","5c4068a67f81e900012b281e","l64fJTO72RMtCCO99thFg0jCTzh1","","","","","","","","","","","","","","","","","","","","[""Very unhappy"",""Very happy""]",""
"html-keyboard-response","220","532503","0.0-91.0","","null","<div style=""font-size:100px;"">+</div>","null","delaylearn","learning","ITI","5c4068a67f81e900012b281e","l64fJTO72RMtCCO99thFg0jCTzh1","","","","","","","","","","","","","","","","","","","1637","",""
"html-keyboard-response","221","534410","0.0-92.0-0.0","","1905.699999999255","<div style=""display: flex; flex-direction: column; align-items: center; margin-top: -40px;""><img src=""images/pattern_3.png"" style=""width: 234px; height: 230px; margin-top: -50px;""><div style=""display: flex; justify-content: space-between; margin-top: 33px;""><img src=""images/choice_trial_12.png"" style=""width: 408px; height: 417px; margin-right: 200px;""><img src=""images/choice_trial_14.png"" style=""width: 408px; height: 417px;""></div></div>","j","delaylearn","learning","trial","5c4068a67f81e900012b281e","l64fJTO72RMtCCO99thFg0jCTzh1","2","images/choice_trial_12.png","images/choice_trial_14.png","images/pattern_3.png","j","f","7000","12","14","2","0","40","0","1","14","280","","","","",""
