"trial_type","trial_index","time_elapsed","internal_node_id","participant","rt","stimulus","response","exp_name","exp_stage","test_part","subjectID","databaseID","counterbal","choice_stimuli_1","choice_stimuli_2","pattern_stimuli","rewarded_answer","correct_answer","feedback_duration_times","stim_left","stim_right","pair","leftright_counter","trial","response_correct","response_rewarded","chosen_stim","counter","displayed_choice","feedback_durations","ITI_duration","labels","rest_warning"
"pavlovia","0","585","0.0-0.0","","","","","","","","","","","","","","","","","","","","","","","","","","","","","",""
"html-keyboard-response","1","3592","0.0-1.0","","null","<div style=""font-size:100px;"">+</div>","null","delaylearn","learning","pre_fixation","5918a8230afea70001a58b53","","","","","","","","","","","","","","","","","","","","","",""
"html-keyboard-response","2","4925","0.0-2.0-0.0","","1331","<div style=""display: flex; flex-direction: column; align-items: center; margin-top: -40px;""><img src=""images/demo_images/pattern_1.png"" style=""width: 234px; height: 230px; margin-top: -50px;""><div style=""display: flex; justify-content: space-between; margin-top: 33px;""><img src=""images/demo_images/choice_trial_2.png"" style=""width: 408px; height: 417px; margin-right: 200px;""><img src=""images/demo_images/choice_trial_1.png"" style=""width: 408px; height: 417px;""></div></div>","j","delaylearn","learning","trial","5918a8230afea70001a58b53","GO9jCJU5Fcar3wkLl8Mqc0AVIvt1","2","images/demo_images/choice_trial_2.png","images/demo_images/choice_trial_1.png","images/demo_images/pattern_1.png","j","j","3000","2","1","20","1","1","1","1","1","10","","","","",""
"html-keyboard-response","3","5931","0.0-2.0-1.0","","null","<div style=""display: flex; flex-direction: column; align-items: center; margin-top: -40px;""><img src=""images/demo_images/pattern_1.png"" style=""width: 234px; height: 230px; margin-top: -50px;""><div style=""display: flex; justify-content: space-between; margin-top: 33px;""><img src=""images/demo_images/choice_trial_1.png"" style=""width: 408px; height: 417px; margin-left:608px;""></div></div>","null","delaylearn","learning","display_response","5918a8230afea70001a58b53","GO9jCJU5Fcar3wkLl8Mqc0AVIvt1","","","","","","","","","","","","","","","","","chosen stimuli: images/demo_images/choice_trial_1.png","","","",""
"html-keyboard-response","4","8939","0.0-2.0-2.0","","null","","null","delaylearn","learning","feedback_duration_window","5918a8230afea70001a58b53","GO9jCJU5Fcar3wkLl8Mqc0AVIvt1","","","","","","","","","","","","","","","","","","3000","","",""
"html-keyboard-response","5","10444","0.0-2.0-3.0","","null","<div style='margin:auto;width: auto; font-size: 150%'><span style='font-weight: bold; font-size: 100px; color: green;'>+10 points!</span><br><br></div>","null","delaylearn","learning","feedback_image_window","5918a8230afea70001a58b53","GO9jCJU5Fcar3wkLl8Mqc0AVIvt1","","","","","","","","","","","","","","","","","","","","",""
"html-keyboard-response","6","12923","0.0-3.0","","null","<div style=""font-size:100px;"">+</div>","null","delaylearn","learning","ITI","5918a8230afea70001a58b53","GO9jCJU5Fcar3wkLl8Mqc0AVIvt1","","","","","","","","","","","","","","","","","","","2478","",""
"html-keyboard-response","7","13606","0.0-4.0-0.0","","679.8999999910593","<div style=""display: flex; flex-direction: column; align-items: center; margin-top: -40px;""><img src=""images/demo_images/pattern_1.png"" style=""width: 234px; height: 230px; margin-top: -50px;""><div style=""display: flex; justify-content: space-between; margin-top: 33px;""><img src=""images/demo_images/choice_trial_2.png"" style=""width: 408px; height: 417px; margin-right: 200px;""><img src=""images/demo_images/choice_trial_1.png"" style=""width: 408px; height: 417px;""></div></div>","j","delaylearn","learning","trial","5918a8230afea70001a58b53","GO9jCJU5Fcar3wkLl8Mqc0AVIvt1","2","images/demo_images/choice_trial_2.png","images/demo_images/choice_trial_1.png","images/demo_images/pattern_1.png","j","j","3000","2","1","20","1","2","1","1","1","20","","","","",""
"html-keyboard-response","8","14609","0.0-4.0-1.0","","null","<div style=""display: flex; flex-direction: column; align-items: center; margin-top: -40px;""><img src=""images/demo_images/pattern_1.png"" style=""width: 234px; height: 230px; margin-top: -50px;""><div style=""display: flex; justify-content: space-between; margin-top: 33px;""><img src=""images/demo_images/choice_trial_1.png"" style=""width: 408px; height: 417px; margin-left:608px;""></div></div>","null","delaylearn","learning","display_response","5918a8230afea70001a58b53","GO9jCJU5Fcar3wkLl8Mqc0AVIvt1","","","","","","","","","","","","","","","","","chosen stimuli: images/demo_images/choice_trial_1.png","","","",""
"html-keyboard-response","9","17613","0.0-4.0-2.0","","null","","null","delaylearn","learning","feedback_duration_window","5918a8230afea70001a58b53","GO9jCJU5Fcar3wkLl8Mqc0AVIvt1","","","","","","","","","","","","","","","","","","3000","","",""
"html-keyboard-response","10","19121","0.0-4.0-3.0","","null","<div style='margin:auto;width: auto; font-size: 150%'><span style='font-weight: bold; font-size: 100px; color: green;'>+10 points!</span><br><br></div>","null","delaylearn","learning","feedback_image_window","5918a8230afea70001a58b53","GO9jCJU5Fcar3wkLl8Mqc0AVIvt1","","","","","","","","","","","","","","","","","","","","",""
"html-keyboard-response","11","21302","0.0-5.0","","null","<div style=""font-size:100px;"">+</div>","null","delaylearn","learning","ITI","5918a8230afea70001a58b53","GO9jCJU5Fcar3wkLl8Mqc0AVIvt1","","","","","","","","","","","","","","","","","","","2178","",""
"html-keyboard-response","12","22013","0.0-6.0-0.0","","708.4000000059605","<div style=""display: flex; flex-direction: column; align-items: center; margin-top: -40px;""><img src=""images/demo_images/pattern_1.png"" style=""width: 234px; height: 230px; margin-top: -50px;""><div style=""display: flex; justify-content: space-between; margin-top: 33px;""><img src=""images/demo_images/choice_trial_1.png"" style=""width: 408px; height: 417px; margin-right: 200px;""><img src=""images/demo_images/choice_trial_2.png"" style=""width: 408px; height: 417px;""></div></div>","f","delaylearn","learning","trial","5918a8230afea70001a58b53","GO9jCJU5Fcar3wkLl8Mqc0AVIvt1","2","images/demo_images/choice_trial_1.png","images/demo_images/choice_trial_2.png","images/demo_images/pattern_1.png","j","f","3000","1","2","20","0","3","1","0","1","20","","","","",""
"html-keyboard-response","13","23020","0.0-6.0-1.0","","null","<div style=""display: flex; flex-direction: column; align-items: center; margin-top: -40px;""><img src=""images/demo_images/pattern_1.png"" style=""width: 234px; height: 230px; margin-top: -50px;""><div style=""display: flex; justify-content: space-between; margin-top: 33px;""><img src=""images/demo_images/choice_trial_1.png"" style=""width: 408px; height: 417px; margin-right: 608px;""></div></div>","null","delaylearn","learning","display_response","5918a8230afea70001a58b53","GO9jCJU5Fcar3wkLl8Mqc0AVIvt1","","","","","","","","","","","","","","","","","chosen stimuli: images/demo_images/choice_trial_1.png","","","",""
"html-keyboard-response","14","26027","0.0-6.0-2.0","","null","","null","delaylearn","learning","feedback_duration_window","5918a8230afea70001a58b53","GO9jCJU5Fcar3wkLl8Mqc0AVIvt1","","","","","","","","","","","","","","","","","","3000","","",""
"html-keyboard-response","15","27534","0.0-6.0-3.0","","null","<div style='margin:auto;width: auto; font-size: 150%'><span style='font-weight: bold; font-size: 100px; color: red;'>0 points!</span><br><br></div>","null","delaylearn","learning","feedback_image_window","5918a8230afea70001a58b53","GO9jCJU5Fcar3wkLl8Mqc0AVIvt1","","","","","","","","","","","","","","","","","","","","",""
"html-keyboard-response","16","29825","0.0-7.0","","null","<div style=""font-size:100px;"">+</div>","null","delaylearn","learning","ITI","5918a8230afea70001a58b53","GO9jCJU5Fcar3wkLl8Mqc0AVIvt1","","","","","","","","","","","","","","","","","","","2288","",""
"html-keyboard-response","17","30733","0.0-8.0-0.0","","906","<div style=""display: flex; flex-direction: column; align-items: center; margin-top: -40px;""><img src=""images/demo_images/pattern_1.png"" style=""width: 234px; height: 230px; margin-top: -50px;""><div style=""display: flex; justify-content: space-between; margin-top: 33px;""><img src=""images/demo_images/choice_trial_1.png"" style=""width: 408px; height: 417px; margin-right: 200px;""><img src=""images/demo_images/choice_trial_2.png"" style=""width: 408px; height: 417px;""></div></div>","f","delaylearn","learning","trial","5918a8230afea70001a58b53","GO9jCJU5Fcar3wkLl8Mqc0AVIvt1","2","images/demo_images/choice_trial_1.png","images/demo_images/choice_trial_2.png","images/demo_images/pattern_1.png","f","f","3000","1","2","20","0","4","1","1","1","30","","","","",""
"html-keyboard-response","18","31738","0.0-8.0-1.0","","null","<div style=""display: flex; flex-direction: column; align-items: center; margin-top: -40px;""><img src=""images/demo_images/pattern_1.png"" style=""width: 234px; height: 230px; margin-top: -50px;""><div style=""display: flex; justify-content: space-between; margin-top: 33px;""><img src=""images/demo_images/choice_trial_1.png"" style=""width: 408px; height: 417px; margin-right: 608px;""></div></div>","null","delaylearn","learning","display_response","5918a8230afea70001a58b53","GO9jCJU5Fcar3wkLl8Mqc0AVIvt1","","","","","","","","","","","","","","","","","chosen stimuli: images/demo_images/choice_trial_1.png","","","",""
"html-keyboard-response","19","34745","0.0-8.0-2.0","","null","","null","delaylearn","learning","feedback_duration_window","5918a8230afea70001a58b53","GO9jCJU5Fcar3wkLl8Mqc0AVIvt1","","","","","","","","","","","","","","","","","","3000","","",""
"html-keyboard-response","20","36253","0.0-8.0-3.0","","null","<div style='margin:auto;width: auto; font-size: 150%'><span style='font-weight: bold; font-size: 100px; color: green;'>+10 points!</span><br><br></div>","null","delaylearn","learning","feedback_image_window","5918a8230afea70001a58b53","GO9jCJU5Fcar3wkLl8Mqc0AVIvt1","","","","","","","","","","","","","","","","","","","","",""
"html-keyboard-response","21","36755","0.0-9.0-0.0","","null","","null","","","mood_trial_fixation","","","","","","","","","","","","","","","","","","","","","","",""
"lmdlab-html-vas-response","22","41050","0.0-9.0-1.0","","3282","How happy are you right now?","0.7092592592592593","delaylearn","learning","mood_trial","5918a8230afea70001a58b53","GO9jCJU5Fcar3wkLl8Mqc0AVIvt1","","","","","","","","","","","","","","","","","","","","[""Very unhappy"",""Very happy""]",""
"html-keyboard-response","23","42571","0.0-10.0","","null","<div style=""font-size:100px;"">+</div>","null","delaylearn","learning","ITI","5918a8230afea70001a58b53","GO9jCJU5Fcar3wkLl8Mqc0AVIvt1","","","","","","","","","","","","","","","","","","","1513","",""
"html-keyboard-response","24","43480","0.0-11.0-0.0","","907.5","<div style=""display: flex; flex-direction: column; align-items: center; margin-top: -40px;""><img src=""images/demo_images/pattern_1.png"" style=""width: 234px; height: 230px; margin-top: -50px;""><div style=""display: flex; justify-content: space-between; margin-top: 33px;""><img src=""images/demo_images/choice_trial_2.png"" style=""width: 408px; height: 417px; margin-right: 200px;""><img src=""images/demo_images/choice_trial_1.png"" style=""width: 408px; height: 417px;""></div></div>","j","delaylearn","learning","trial","5918a8230afea70001a58b53","GO9jCJU5Fcar3wkLl8Mqc0AVIvt1","2","images/demo_images/choice_trial_2.png","images/demo_images/choice_trial_1.png","images/demo_images/pattern_1.png","j","j","3000","2","1","20","1","5","1","1","1","40","","","","",""
"html-keyboard-response","25","44485","0.0-11.0-1.0","","null","<div style=""display: flex; flex-direction: column; align-items: center; margin-top: -40px;""><img src=""images/demo_images/pattern_1.png"" style=""width: 234px; height: 230px; margin-top: -50px;""><div style=""display: flex; justify-content: space-between; margin-top: 33px;""><img src=""images/demo_images/choice_trial_1.png"" style=""width: 408px; height: 417px; margin-left:608px;""></div></div>","null","delaylearn","learning","display_response","5918a8230afea70001a58b53","GO9jCJU5Fcar3wkLl8Mqc0AVIvt1","","","","","","","","","","","","","","","","","chosen stimuli: images/demo_images/choice_trial_1.png","","","",""
"html-keyboard-response","26","47492","0.0-11.0-2.0","","null","","null","delaylearn","learning","feedback_duration_window","5918a8230afea70001a58b53","GO9jCJU5Fcar3wkLl8Mqc0AVIvt1","","","","","","","","","","","","","","","","","","3000","","",""
"html-keyboard-response","27","49000","0.0-11.0-3.0","","null","<div style='margin:auto;width: auto; font-size: 150%'><span style='font-weight: bold; font-size: 100px; color: green;'>+10 points!</span><br><br></div>","null","delaylearn","learning","feedback_image_window","5918a8230afea70001a58b53","GO9jCJU5Fcar3wkLl8Mqc0AVIvt1","","","","","","","","","","","","","","","","","","","","",""
"html-keyboard-response","28","50529","0.0-12.0","","null","<div style=""font-size:100px;"">+</div>","null","delaylearn","learning","ITI","5918a8230afea70001a58b53","GO9jCJU5Fcar3wkLl8Mqc0AVIvt1","","","","","","","","","","","","","","","","","","","1523","",""
"html-keyboard-response","29","51507","0.0-13.0-0.0","","976.5999999940395","<div style=""display: flex; flex-direction: column; align-items: center; margin-top: -40px;""><img src=""images/demo_images/pattern_1.png"" style=""width: 234px; height: 230px; margin-top: -50px;""><div style=""display: flex; justify-content: space-between; margin-top: 33px;""><img src=""images/demo_images/choice_trial_1.png"" style=""width: 408px; height: 417px; margin-right: 200px;""><img src=""images/demo_images/choice_trial_2.png"" style=""width: 408px; height: 417px;""></div></div>","f","delaylearn","learning","trial","5918a8230afea70001a58b53","GO9jCJU5Fcar3wkLl8Mqc0AVIvt1","2","images/demo_images/choice_trial_1.png","images/demo_images/choice_trial_2.png","images/demo_images/pattern_1.png","f","f","3000","1","2","20","0","6","1","1","1","50","","","","",""
"html-keyboard-response","30","52515","0.0-13.0-1.0","","null","<div style=""display: flex; flex-direction: column; align-items: center; margin-top: -40px;""><img src=""images/demo_images/pattern_1.png"" style=""width: 234px; height: 230px; margin-top: -50px;""><div style=""display: flex; justify-content: space-between; margin-top: 33px;""><img src=""images/demo_images/choice_trial_1.png"" style=""width: 408px; height: 417px; margin-right: 608px;""></div></div>","null","delaylearn","learning","display_response","5918a8230afea70001a58b53","GO9jCJU5Fcar3wkLl8Mqc0AVIvt1","","","","","","","","","","","","","","","","","chosen stimuli: images/demo_images/choice_trial_1.png","","","",""
"html-keyboard-response","31","55522","0.0-13.0-2.0","","null","","null","delaylearn","learning","feedback_duration_window","5918a8230afea70001a58b53","GO9jCJU5Fcar3wkLl8Mqc0AVIvt1","","","","","","","","","","","","","","","","","","3000","","",""
"html-keyboard-response","32","57025","0.0-13.0-3.0","","null","<div style='margin:auto;width: auto; font-size: 150%'><span style='font-weight: bold; font-size: 100px; color: green;'>+10 points!</span><br><br></div>","null","delaylearn","learning","feedback_image_window","5918a8230afea70001a58b53","GO9jCJU5Fcar3wkLl8Mqc0AVIvt1","","","","","","","","","","","","","","","","","","","","",""
"html-keyboard-response","33","58541","0.0-14.0","","null","<div style=""font-size:100px;"">+</div>","null","delaylearn","learning","ITI","5918a8230afea70001a58b53","GO9jCJU5Fcar3wkLl8Mqc0AVIvt1","","","","","","","","","","","","","","","","","","","1514","",""
"html-keyboard-response","34","59556","0.0-15.0-0.0","","1012.7000000029802","<div style=""display: flex; flex-direction: column; align-items: center; margin-top: -40px;""><img src=""images/demo_images/pattern_1.png"" style=""width: 234px; height: 230px; margin-top: -50px;""><div style=""display: flex; justify-content: space-between; margin-top: 33px;""><img src=""images/demo_images/choice_trial_2.png"" style=""width: 408px; height: 417px; margin-right: 200px;""><img src=""images/demo_images/choice_trial_1.png"" style=""width: 408px; height: 417px;""></div></div>","j","delaylearn","learning","trial","5918a8230afea70001a58b53","GO9jCJU5Fcar3wkLl8Mqc0AVIvt1","2","images/demo_images/choice_trial_2.png","images/demo_images/choice_trial_1.png","images/demo_images/pattern_1.png","j","j","3000","2","1","20","1","7","1","1","1","60","","","","",""
"html-keyboard-response","35","60559","0.0-15.0-1.0","","null","<div style=""display: flex; flex-direction: column; align-items: center; margin-top: -40px;""><img src=""images/demo_images/pattern_1.png"" style=""width: 234px; height: 230px; margin-top: -50px;""><div style=""display: flex; justify-content: space-between; margin-top: 33px;""><img src=""images/demo_images/choice_trial_1.png"" style=""width: 408px; height: 417px; margin-left:608px;""></div></div>","null","delaylearn","learning","display_response","5918a8230afea70001a58b53","GO9jCJU5Fcar3wkLl8Mqc0AVIvt1","","","","","","","","","","","","","","","","","chosen stimuli: images/demo_images/choice_trial_1.png","","","",""
"html-keyboard-response","36","63561","0.0-15.0-2.0","","null","","null","delaylearn","learning","feedback_duration_window","5918a8230afea70001a58b53","GO9jCJU5Fcar3wkLl8Mqc0AVIvt1","","","","","","","","","","","","","","","","","","3000","","",""
"html-keyboard-response","37","65064","0.0-15.0-3.0","","null","<div style='margin:auto;width: auto; font-size: 150%'><span style='font-weight: bold; font-size: 100px; color: green;'>+10 points!</span><br><br></div>","null","delaylearn","learning","feedback_image_window","5918a8230afea70001a58b53","GO9jCJU5Fcar3wkLl8Mqc0AVIvt1","","","","","","","","","","","","","","","","","","","","",""
"html-keyboard-response","38","67402","0.0-16.0","","null","<div style=""font-size:100px;"">+</div>","null","delaylearn","learning","ITI","5918a8230afea70001a58b53","GO9jCJU5Fcar3wkLl8Mqc0AVIvt1","","","","","","","","","","","","","","","","","","","2337","",""
"html-keyboard-response","39","68351","0.0-17.0-0.0","","948","<div style=""display: flex; flex-direction: column; align-items: center; margin-top: -40px;""><img src=""images/demo_images/pattern_1.png"" style=""width: 234px; height: 230px; margin-top: -50px;""><div style=""display: flex; justify-content: space-between; margin-top: 33px;""><img src=""images/demo_images/choice_trial_1.png"" style=""width: 408px; height: 417px; margin-right: 200px;""><img src=""images/demo_images/choice_trial_2.png"" style=""width: 408px; height: 417px;""></div></div>","f","delaylearn","learning","trial","5918a8230afea70001a58b53","GO9jCJU5Fcar3wkLl8Mqc0AVIvt1","2","images/demo_images/choice_trial_1.png","images/demo_images/choice_trial_2.png","images/demo_images/pattern_1.png","f","f","3000","1","2","20","0","8","1","1","1","70","","","","",""
"html-keyboard-response","40","69354","0.0-17.0-1.0","","null","<div style=""display: flex; flex-direction: column; align-items: center; margin-top: -40px;""><img src=""images/demo_images/pattern_1.png"" style=""width: 234px; height: 230px; margin-top: -50px;""><div style=""display: flex; justify-content: space-between; margin-top: 33px;""><img src=""images/demo_images/choice_trial_1.png"" style=""width: 408px; height: 417px; margin-right: 608px;""></div></div>","null","delaylearn","learning","display_response","5918a8230afea70001a58b53","GO9jCJU5Fcar3wkLl8Mqc0AVIvt1","","","","","","","","","","","","","","","","","chosen stimuli: images/demo_images/choice_trial_1.png","","","",""
"html-keyboard-response","41","72360","0.0-17.0-2.0","","null","","null","delaylearn","learning","feedback_duration_window","5918a8230afea70001a58b53","GO9jCJU5Fcar3wkLl8Mqc0AVIvt1","","","","","","","","","","","","","","","","","","3000","","",""
"html-keyboard-response","42","73864","0.0-17.0-3.0","","null","<div style='margin:auto;width: auto; font-size: 150%'><span style='font-weight: bold; font-size: 100px; color: green;'>+10 points!</span><br><br></div>","null","delaylearn","learning","feedback_image_window","5918a8230afea70001a58b53","GO9jCJU5Fcar3wkLl8Mqc0AVIvt1","","","","","","","","","","","","","","","","","","","","",""
"html-button-response","43","76483","0.0-18.0","","2618.5","
  <div style=""display: flex; align-items: center; justify-content: center; height: 80vh;"">
  <div>
          <img src=""images/inst_demo_finish.png"" style=""width: 80vw; height:auto;"">
          <br><br>
      </div>
      <br><br>
  </div>","0","","","","","","","","","","","","","","","","","","","","","","","","","",""
"html-keyboard-response","44","79877","0.0-19.0","","3392.300000011921","
  <div style=""display: flex; align-items: center; justify-content: center; height: 80vh;"">
  <div>
          <img src=""images/inst_6.png"" style=""width: 80vw; height:auto;"">
          <br><br>
      </div>
      <br><br>
  </div>","j","","","","","","","","","","","","","","","","","","","","","","","","","",""
"html-keyboard-response","45","82884","0.0-20.0","","null","<div style=""font-size:100px;"">+</div>","null","delaylearn","learning","pre_fixation","5918a8230afea70001a58b53","","","","","","","","","","","","","","","","","","","","","",""
"html-keyboard-response","46","84839","0.0-21.0","","null","<div style=""font-size:100px;"">+</div>","null","delaylearn","learning","ITI","5918a8230afea70001a58b53","GO9jCJU5Fcar3wkLl8Mqc0AVIvt1","","","","","","","","","","","","","","","","","","","1952","",""
"html-keyboard-response","47","86224","0.0-22.0-0.0","","1383.5999999940395","<div style=""display: flex; flex-direction: column; align-items: center; margin-top: -40px;""><img src=""images/pattern_3.png"" style=""width: 234px; height: 230px; margin-top: -50px;""><div style=""display: flex; justify-content: space-between; margin-top: 33px;""><img src=""images/choice_trial_12.png"" style=""width: 408px; height: 417px; margin-right: 200px;""><img src=""images/choice_trial_14.png"" style=""width: 408px; height: 417px;""></div></div>","f","delaylearn","learning","trial","5918a8230afea70001a58b53","GO9jCJU5Fcar3wkLl8Mqc0AVIvt1","2","images/choice_trial_12.png","images/choice_trial_14.png","images/pattern_3.png","f","f","7000","12","14","2","0","9","1","1","12","80","","","","",""
"html-keyboard-response","48","87230","0.0-22.0-1.0","","null","<div style=""display: flex; flex-direction: column; align-items: center; margin-top: -40px;""><img src=""images/pattern_3.png"" style=""width: 234px; height: 230px; margin-top: -50px;""><div style=""display: flex; justify-content: space-between; margin-top: 33px;""><img src=""images/choice_trial_12.png"" style=""width: 408px; height: 417px; margin-right: 608px;""></div></div>","null","delaylearn","learning","display_response","5918a8230afea70001a58b53","GO9jCJU5Fcar3wkLl8Mqc0AVIvt1","","","","","","","","","","","","","","","","","chosen stimuli: images/choice_trial_12.png","","","",""
"html-keyboard-response","49","94236","0.0-22.0-2.0","","null","","null","delaylearn","learning","feedback_duration_window","5918a8230afea70001a58b53","GO9jCJU5Fcar3wkLl8Mqc0AVIvt1","","","","","","","","","","","","","","","","","","7000","","",""
"html-keyboard-response","50","95738","0.0-22.0-3.0","","null","<div style='margin:auto;width: auto; font-size: 150%'><span style='font-weight: bold; font-size: 100px; color: green;'>+10 points!</span><br><br></div>","null","delaylearn","learning","feedback_image_window","5918a8230afea70001a58b53","GO9jCJU5Fcar3wkLl8Mqc0AVIvt1","","","","","","","","","","","","","","","","","","","","",""
"html-keyboard-response","51","97305","0.0-23.0","","null","<div style=""font-size:100px;"">+</div>","null","delaylearn","learning","ITI","5918a8230afea70001a58b53","GO9jCJU5Fcar3wkLl8Mqc0AVIvt1","","","","","","","","","","","","","","","","","","","1563","",""
"html-keyboard-response","52","99200","0.0-24.0-0.0","","1891.7000000029802","<div style=""display: flex; flex-direction: column; align-items: center; margin-top: -40px;""><img src=""images/pattern_7.png"" style=""width: 234px; height: 230px; margin-top: -50px;""><div style=""display: flex; justify-content: space-between; margin-top: 33px;""><img src=""images/choice_trial_15.png"" style=""width: 408px; height: 417px; margin-right: 200px;""><img src=""images/choice_trial_8.png"" style=""width: 408px; height: 417px;""></div></div>","j","delaylearn","learning","trial","5918a8230afea70001a58b53","GO9jCJU5Fcar3wkLl8Mqc0AVIvt1","2","images/choice_trial_15.png","images/choice_trial_8.png","images/pattern_7.png","j","j","750","15","8","6","1","10","1","1","8","90","","","","",""
"html-keyboard-response","53","100205","0.0-24.0-1.0","","null","<div style=""display: flex; flex-direction: column; align-items: center; margin-top: -40px;""><img src=""images/pattern_7.png"" style=""width: 234px; height: 230px; margin-top: -50px;""><div style=""display: flex; justify-content: space-between; margin-top: 33px;""><img src=""images/choice_trial_8.png"" style=""width: 408px; height: 417px; margin-left:608px;""></div></div>","null","delaylearn","learning","display_response","5918a8230afea70001a58b53","GO9jCJU5Fcar3wkLl8Mqc0AVIvt1","","","","","","","","","","","","","","","","","chosen stimuli: images/choice_trial_8.png","","","",""
"html-keyboard-response","54","100961","0.0-24.0-2.0","","null","","null","delaylearn","learning","feedback_duration_window","5918a8230afea70001a58b53","GO9jCJU5Fcar3wkLl8Mqc0AVIvt1","","","","","","","","","","","","","","","","","","750","","",""
"html-keyboard-response","55","102468","0.0-24.0-3.0","","null","<div style='margin:auto;width: auto; font-size: 150%'><span style='font-weight: bold; font-size: 100px; color: green;'>+10 points!</span><br><br></div>","null","delaylearn","learning","feedback_image_window","5918a8230afea70001a58b53","GO9jCJU5Fcar3wkLl8Mqc0AVIvt1","","","","","","","","","","","","","","","","","","","","",""
"html-keyboard-response","56","104167","0.0-25.0","","null","<div style=""font-size:100px;"">+</div>","null","delaylearn","learning","ITI","5918a8230afea70001a58b53","GO9jCJU5Fcar3wkLl8Mqc0AVIvt1","","","","","","","","","","","","","","","","","","","1695","",""
"html-keyboard-response","57","105699","0.0-26.0-0.0","","1529.7999999970198","<div style=""display: flex; flex-direction: column; align-items: center; margin-top: -40px;""><img src=""images/pattern_4.png"" style=""width: 234px; height: 230px; margin-top: -50px;""><div style=""display: flex; justify-content: space-between; margin-top: 33px;""><img src=""images/choice_trial_4.png"" style=""width: 408px; height: 417px; margin-right: 200px;""><img src=""images/choice_trial_16.png"" style=""width: 408px; height: 417px;""></div></div>","j","delaylearn","learning","trial","5918a8230afea70001a58b53","GO9jCJU5Fcar3wkLl8Mqc0AVIvt1","2","images/choice_trial_4.png","images/choice_trial_16.png","images/pattern_4.png","f","f","7000","4","16","3","0","11","0","0","16","90","","","","",""
"html-keyboard-response","58","106704","0.0-26.0-1.0","","null","<div style=""display: flex; flex-direction: column; align-items: center; margin-top: -40px;""><img src=""images/pattern_4.png"" style=""width: 234px; height: 230px; margin-top: -50px;""><div style=""display: flex; justify-content: space-between; margin-top: 33px;""><img src=""images/choice_trial_16.png"" style=""width: 408px; height: 417px; margin-left:608px;""></div></div>","null","delaylearn","learning","display_response","5918a8230afea70001a58b53","GO9jCJU5Fcar3wkLl8Mqc0AVIvt1","","","","","","","","","","","","","","","","","chosen stimuli: images/choice_trial_16.png","","","",""
"html-keyboard-response","59","113706","0.0-26.0-2.0","","null","","null","delaylearn","learning","feedback_duration_window","5918a8230afea70001a58b53","GO9jCJU5Fcar3wkLl8Mqc0AVIvt1","","","","","","","","","","","","","","","","","","7000","","",""
"html-keyboard-response","60","115213","0.0-26.0-3.0","","null","<div style='margin:auto;width: auto; font-size: 150%'><span style='font-weight: bold; font-size: 100px; color: red;'>0 points!</span><br><br></div>","null","delaylearn","learning","feedback_image_window","5918a8230afea70001a58b53","GO9jCJU5Fcar3wkLl8Mqc0AVIvt1","","","","","","","","","","","","","","","","","","","","",""
"html-keyboard-response","61","117081","0.0-27.0","","null","<div style=""font-size:100px;"">+</div>","null","delaylearn","learning","ITI","5918a8230afea70001a58b53","GO9jCJU5Fcar3wkLl8Mqc0AVIvt1","","","","","","","","","","","","","","","","","","","1862","",""
"html-keyboard-response","62","118397","0.0-28.0-0.0","","1313.2999999970198","<div style=""display: flex; flex-direction: column; align-items: center; margin-top: -40px;""><img src=""images/pattern_5.png"" style=""width: 234px; height: 230px; margin-top: -50px;""><div style=""display: flex; justify-content: space-between; margin-top: 33px;""><img src=""images/choice_trial_9.png"" style=""width: 408px; height: 417px; margin-right: 200px;""><img src=""images/choice_trial_2.png"" style=""width: 408px; height: 417px;""></div></div>","f","delaylearn","learning","trial","5918a8230afea70001a58b53","GO9jCJU5Fcar3wkLl8Mqc0AVIvt1","2","images/choice_trial_9.png","images/choice_trial_2.png","images/pattern_5.png","j","j","750","9","2","4","1","12","0","0","9","90","","","","",""
"html-keyboard-response","63","119402","0.0-28.0-1.0","","null","<div style=""display: flex; flex-direction: column; align-items: center; margin-top: -40px;""><img src=""images/pattern_5.png"" style=""width: 234px; height: 230px; margin-top: -50px;""><div style=""display: flex; justify-content: space-between; margin-top: 33px;""><img src=""images/choice_trial_9.png"" style=""width: 408px; height: 417px; margin-right: 608px;""></div></div>","null","delaylearn","learning","display_response","5918a8230afea70001a58b53","GO9jCJU5Fcar3wkLl8Mqc0AVIvt1","","","","","","","","","","","","","","","","","chosen stimuli: images/choice_trial_9.png","","","",""
"html-keyboard-response","64","120159","0.0-28.0-2.0","","null","","null","delaylearn","learning","feedback_duration_window","5918a8230afea70001a58b53","GO9jCJU5Fcar3wkLl8Mqc0AVIvt1","","","","","","","","","","","","","","","","","","750","","",""
"html-keyboard-response","65","121662","0.0-28.0-3.0","","null","<div style='margin:auto;width: auto; font-size: 150%'><span style='font-weight: bold; font-size: 100px; color: red;'>0 points!</span><br><br></div>","null","delaylearn","learning","feedback_image_window","5918a8230afea70001a58b53","GO9jCJU5Fcar3wkLl8Mqc0AVIvt1","","","","","","","","","","","","","","","","","","","","",""
"html-keyboard-response","66","123769","0.0-29.0","","null","<div style=""font-size:100px;"">+</div>","null","delaylearn","learning","ITI","5918a8230afea70001a58b53","GO9jCJU5Fcar3wkLl8Mqc0AVIvt1","","","","","","","","","","","","","","","","","","","2100","",""
"html-keyboard-response","67","125525","0.0-30.0-0.0","","1753.9000000059605","<div style=""display: flex; flex-direction: column; align-items: center; margin-top: -40px;""><img src=""images/pattern_6.png"" style=""width: 234px; height: 230px; margin-top: -50px;""><div style=""display: flex; justify-content: space-between; margin-top: 33px;""><img src=""images/choice_trial_11.png"" style=""width: 408px; height: 417px; margin-right: 200px;""><img src=""images/choice_trial_5.png"" style=""width: 408px; height: 417px;""></div></div>","j","delaylearn","learning","trial","5918a8230afea70001a58b53","GO9jCJU5Fcar3wkLl8Mqc0AVIvt1","2","images/choice_trial_11.png","images/choice_trial_5.png","images/pattern_6.png","j","f","750","11","5","5","0","13","0","1","5","100","","","","",""
"html-keyboard-response","68","126530","0.0-30.0-1.0","","null","<div style=""display: flex; flex-direction: column; align-items: center; margin-top: -40px;""><img src=""images/pattern_6.png"" style=""width: 234px; height: 230px; margin-top: -50px;""><div style=""display: flex; justify-content: space-between; margin-top: 33px;""><img src=""images/choice_trial_5.png"" style=""width: 408px; height: 417px; margin-left:608px;""></div></div>","null","delaylearn","learning","display_response","5918a8230afea70001a58b53","GO9jCJU5Fcar3wkLl8Mqc0AVIvt1","","","","","","","","","","","","","","","","","chosen stimuli: images/choice_trial_5.png","","","",""
"html-keyboard-response","69","127286","0.0-30.0-2.0","","null","","null","delaylearn","learning","feedback_duration_window","5918a8230afea70001a58b53","GO9jCJU5Fcar3wkLl8Mqc0AVIvt1","","","","","","","","","","","","","","","","","","750","","",""
"html-keyboard-response","70","128794","0.0-30.0-3.0","","null","<div style='margin:auto;width: auto; font-size: 150%'><span style='font-weight: bold; font-size: 100px; color: green;'>+10 points!</span><br><br></div>","null","delaylearn","learning","feedback_image_window","5918a8230afea70001a58b53","GO9jCJU5Fcar3wkLl8Mqc0AVIvt1","","","","","","","","","","","","","","","","","","","","",""
"html-keyboard-response","71","129296","0.0-31.0-0.0","","null","","null","","","mood_trial_fixation","","","","","","","","","","","","","","","","","","","","","","",""
"lmdlab-html-vas-response","72","132955","0.0-31.0-1.0","","2652","How happy are you right now?","0.5814814814814815","delaylearn","learning","mood_trial","5918a8230afea70001a58b53","GO9jCJU5Fcar3wkLl8Mqc0AVIvt1","","","","","","","","","","","","","","","","","","","","[""Very unhappy"",""Very happy""]",""
"html-keyboard-response","73","134730","0.0-32.0","","null","<div style=""font-size:100px;"">+</div>","null","delaylearn","learning","ITI","5918a8230afea70001a58b53","GO9jCJU5Fcar3wkLl8Mqc0AVIvt1","","","","","","","","","","","","","","","","","","","1768","",""
"html-keyboard-response","74","136392","0.0-33.0-0.0","","1659.699999988079","<div style=""display: flex; flex-direction: column; align-items: center; margin-top: -40px;""><img src=""images/pattern_1.png"" style=""width: 234px; height: 230px; margin-top: -50px;""><div style=""display: flex; justify-content: space-between; margin-top: 33px;""><img src=""images/choice_trial_10.png"" style=""width: 408px; height: 417px; margin-right: 200px;""><img src=""images/choice_trial_3.png"" style=""width: 408px; height: 417px;""></div></div>","f","delaylearn","learning","trial","5918a8230afea70001a58b53","GO9jCJU5Fcar3wkLl8Mqc0AVIvt1","2","images/choice_trial_10.png","images/choice_trial_3.png","images/pattern_1.png","j","j","7000","10","3","1","1","14","0","0","10","100","","","","",""
"html-keyboard-response","75","137397","0.0-33.0-1.0","","null","<div style=""display: flex; flex-direction: column; align-items: center; margin-top: -40px;""><img src=""images/pattern_1.png"" style=""width: 234px; height: 230px; margin-top: -50px;""><div style=""display: flex; justify-content: space-between; margin-top: 33px;""><img src=""images/choice_trial_10.png"" style=""width: 408px; height: 417px; margin-right: 608px;""></div></div>","null","delaylearn","learning","display_response","5918a8230afea70001a58b53","GO9jCJU5Fcar3wkLl8Mqc0AVIvt1","","","","","","","","","","","","","","","","","chosen stimuli: images/choice_trial_10.png","","","",""
"html-keyboard-response","76","144401","0.0-33.0-2.0","","null","","null","delaylearn","learning","feedback_duration_window","5918a8230afea70001a58b53","GO9jCJU5Fcar3wkLl8Mqc0AVIvt1","","","","","","","","","","","","","","","","","","7000","","",""
"html-keyboard-response","77","145906","0.0-33.0-3.0","","null","<div style='margin:auto;width: auto; font-size: 150%'><span style='font-weight: bold; font-size: 100px; color: red;'>0 points!</span><br><br></div>","null","delaylearn","learning","feedback_image_window","5918a8230afea70001a58b53","GO9jCJU5Fcar3wkLl8Mqc0AVIvt1","","","","","","","","","","","","","","","","","","","","",""
"html-keyboard-response","78","148306","0.0-34.0","","null","<div style=""font-size:100px;"">+</div>","null","delaylearn","learning","ITI","5918a8230afea70001a58b53","GO9jCJU5Fcar3wkLl8Mqc0AVIvt1","","","","","","","","","","","","","","","","","","","2397","",""
"html-keyboard-response","79","149586","0.0-35.0-0.0","","1277.5999999940395","<div style=""display: flex; flex-direction: column; align-items: center; margin-top: -40px;""><img src=""images/pattern_3.png"" style=""width: 234px; height: 230px; margin-top: -50px;""><div style=""display: flex; justify-content: space-between; margin-top: 33px;""><img src=""images/choice_trial_14.png"" style=""width: 408px; height: 417px; margin-right: 200px;""><img src=""images/choice_trial_12.png"" style=""width: 408px; height: 417px;""></div></div>","j","delaylearn","learning","trial","5918a8230afea70001a58b53","GO9jCJU5Fcar3wkLl8Mqc0AVIvt1","2","images/choice_trial_14.png","images/choice_trial_12.png","images/pattern_3.png","f","j","7000","14","12","2","1","15","1","0","12","100","","","","",""
"html-keyboard-response","80","150591","0.0-35.0-1.0","","null","<div style=""display: flex; flex-direction: column; align-items: center; margin-top: -40px;""><img src=""images/pattern_3.png"" style=""width: 234px; height: 230px; margin-top: -50px;""><div style=""display: flex; justify-content: space-between; margin-top: 33px;""><img src=""images/choice_trial_12.png"" style=""width: 408px; height: 417px; margin-left:608px;""></div></div>","null","delaylearn","learning","display_response","5918a8230afea70001a58b53","GO9jCJU5Fcar3wkLl8Mqc0AVIvt1","","","","","","","","","","","","","","","","","chosen stimuli: images/choice_trial_12.png","","","",""
"html-keyboard-response","81","157598","0.0-35.0-2.0","","null","","null","delaylearn","learning","feedback_duration_window","5918a8230afea70001a58b53","GO9jCJU5Fcar3wkLl8Mqc0AVIvt1","","","","","","","","","","","","","","","","","","7000","","",""
"html-keyboard-response","82","159105","0.0-35.0-3.0","","null","<div style='margin:auto;width: auto; font-size: 150%'><span style='font-weight: bold; font-size: 100px; color: red;'>0 points!</span><br><br></div>","null","delaylearn","learning","feedback_image_window","5918a8230afea70001a58b53","GO9jCJU5Fcar3wkLl8Mqc0AVIvt1","","","","","","","","","","","","","","","","","","","","",""
"html-keyboard-response","83","161204","0.0-36.0","","null","<div style=""font-size:100px;"">+</div>","null","delaylearn","learning","ITI","5918a8230afea70001a58b53","GO9jCJU5Fcar3wkLl8Mqc0AVIvt1","","","","","","","","","","","","","","","","","","","2095","",""
"html-keyboard-response","84","162416","0.0-37.0-0.0","","1210.0999999940395","<div style=""display: flex; flex-direction: column; align-items: center; margin-top: -40px;""><img src=""images/pattern_5.png"" style=""width: 234px; height: 230px; margin-top: -50px;""><div style=""display: flex; justify-content: space-between; margin-top: 33px;""><img src=""images/choice_trial_2.png"" style=""width: 408px; height: 417px; margin-right: 200px;""><img src=""images/choice_trial_9.png"" style=""width: 408px; height: 417px;""></div></div>","j","delaylearn","learning","trial","5918a8230afea70001a58b53","GO9jCJU5Fcar3wkLl8Mqc0AVIvt1","2","images/choice_trial_2.png","images/choice_trial_9.png","images/pattern_5.png","f","f","750","2","9","4","0","16","0","0","9","100","","","","",""
"html-keyboard-response","85","163421","0.0-37.0-1.0","","null","<div style=""display: flex; flex-direction: column; align-items: center; margin-top: -40px;""><img src=""images/pattern_5.png"" style=""width: 234px; height: 230px; margin-top: -50px;""><div style=""display: flex; justify-content: space-between; margin-top: 33px;""><img src=""images/choice_trial_9.png"" style=""width: 408px; height: 417px; margin-left:608px;""></div></div>","null","delaylearn","learning","display_response","5918a8230afea70001a58b53","GO9jCJU5Fcar3wkLl8Mqc0AVIvt1","","","","","","","","","","","","","","","","","chosen stimuli: images/choice_trial_9.png","","","",""
"html-keyboard-response","86","164178","0.0-37.0-2.0","","null","","null","delaylearn","learning","feedback_duration_window","5918a8230afea70001a58b53","GO9jCJU5Fcar3wkLl8Mqc0AVIvt1","","","","","","","","","","","","","","","","","","750","","",""
"html-keyboard-response","87","165685","0.0-37.0-3.0","","null","<div style='margin:auto;width: auto; font-size: 150%'><span style='font-weight: bold; font-size: 100px; color: red;'>0 points!</span><br><br></div>","null","delaylearn","learning","feedback_image_window","5918a8230afea70001a58b53","GO9jCJU5Fcar3wkLl8Mqc0AVIvt1","","","","","","","","","","","","","","","","","","","","",""
"html-keyboard-response","88","166189","0.0-38.0-0.0","","null","","null","","","mood_trial_fixation","","","","","","","","","","","","","","","","","","","","","","",""
"lmdlab-html-vas-response","89","169939","0.0-38.0-1.0","","2741","How happy are you right now?","0.49074074074074076","delaylearn","learning","mood_trial","5918a8230afea70001a58b53","GO9jCJU5Fcar3wkLl8Mqc0AVIvt1","","","","","","","","","","","","","","","","","","","","[""Very unhappy"",""Very happy""]",""
"html-keyboard-response","90","171690","0.0-39.0","","null","<div style=""font-size:100px;"">+</div>","null","delaylearn","learning","ITI","5918a8230afea70001a58b53","GO9jCJU5Fcar3wkLl8Mqc0AVIvt1","","","","","","","","","","","","","","","","","","","1745","",""
"html-keyboard-response","91","173130","0.0-40.0-0.0","","1437.3999999910593","<div style=""display: flex; flex-direction: column; align-items: center; margin-top: -40px;""><img src=""images/pattern_6.png"" style=""width: 234px; height: 230px; margin-top: -50px;""><div style=""display: flex; justify-content: space-between; margin-top: 33px;""><img src=""images/choice_trial_11.png"" style=""width: 408px; height: 417px; margin-right: 200px;""><img src=""images/choice_trial_5.png"" style=""width: 408px; height: 417px;""></div></div>","f","delaylearn","learning","trial","5918a8230afea70001a58b53","GO9jCJU5Fcar3wkLl8Mqc0AVIvt1","2","images/choice_trial_11.png","images/choice_trial_5.png","images/pattern_6.png","f","f","750","11","5","5","0","17","1","1","11","110","","","","",""
"html-keyboard-response","92","174135","0.0-40.0-1.0","","null","<div style=""display: flex; flex-direction: column; align-items: center; margin-top: -40px;""><img src=""images/pattern_6.png"" style=""width: 234px; height: 230px; margin-top: -50px;""><div style=""display: flex; justify-content: space-between; margin-top: 33px;""><img src=""images/choice_trial_11.png"" style=""width: 408px; height: 417px; margin-right: 608px;""></div></div>","null","delaylearn","learning","display_response","5918a8230afea70001a58b53","GO9jCJU5Fcar3wkLl8Mqc0AVIvt1","","","","","","","","","","","","","","","","","chosen stimuli: images/choice_trial_11.png","","","",""
"html-keyboard-response","93","174891","0.0-40.0-2.0","","null","","null","delaylearn","learning","feedback_duration_window","5918a8230afea70001a58b53","GO9jCJU5Fcar3wkLl8Mqc0AVIvt1","","","","","","","","","","","","","","","","","","750","","",""
"html-keyboard-response","94","176397","0.0-40.0-3.0","","null","<div style='margin:auto;width: auto; font-size: 150%'><span style='font-weight: bold; font-size: 100px; color: green;'>+10 points!</span><br><br></div>","null","delaylearn","learning","feedback_image_window","5918a8230afea70001a58b53","GO9jCJU5Fcar3wkLl8Mqc0AVIvt1","","","","","","","","","","","","","","","","","","","","",""
"html-keyboard-response","95","178752","0.0-41.0","","null","<div style=""font-size:100px;"">+</div>","null","delaylearn","learning","ITI","5918a8230afea70001a58b53","GO9jCJU5Fcar3wkLl8Mqc0AVIvt1","","","","","","","","","","","","","","","","","","","2352","",""
"html-keyboard-response","96","180022","0.0-42.0-0.0","","1266.7999999970198","<div style=""display: flex; flex-direction: column; align-items: center; margin-top: -40px;""><img src=""images/pattern_4.png"" style=""width: 234px; height: 230px; margin-top: -50px;""><div style=""display: flex; justify-content: space-between; margin-top: 33px;""><img src=""images/choice_trial_16.png"" style=""width: 408px; height: 417px; margin-right: 200px;""><img src=""images/choice_trial_4.png"" style=""width: 408px; height: 417px;""></div></div>","j","delaylearn","learning","trial","5918a8230afea70001a58b53","GO9jCJU5Fcar3wkLl8Mqc0AVIvt1","2","images/choice_trial_16.png","images/choice_trial_4.png","images/pattern_4.png","j","j","7000","16","4","3","1","18","1","1","4","120","","","","",""
"html-keyboard-response","97","181027","0.0-42.0-1.0","","null","<div style=""display: flex; flex-direction: column; align-items: center; margin-top: -40px;""><img src=""images/pattern_4.png"" style=""width: 234px; height: 230px; margin-top: -50px;""><div style=""display: flex; justify-content: space-between; margin-top: 33px;""><img src=""images/choice_trial_4.png"" style=""width: 408px; height: 417px; margin-left:608px;""></div></div>","null","delaylearn","learning","display_response","5918a8230afea70001a58b53","GO9jCJU5Fcar3wkLl8Mqc0AVIvt1","","","","","","","","","","","","","","","","","chosen stimuli: images/choice_trial_4.png","","","",""
"html-keyboard-response","98","188034","0.0-42.0-2.0","","null","","null","delaylearn","learning","feedback_duration_window","5918a8230afea70001a58b53","GO9jCJU5Fcar3wkLl8Mqc0AVIvt1","","","","","","","","","","","","","","","","","","7000","","",""
"html-keyboard-response","99","189541","0.0-42.0-3.0","","null","<div style='margin:auto;width: auto; font-size: 150%'><span style='font-weight: bold; font-size: 100px; color: green;'>+10 points!</span><br><br></div>","null","delaylearn","learning","feedback_image_window","5918a8230afea70001a58b53","GO9jCJU5Fcar3wkLl8Mqc0AVIvt1","","","","","","","","","","","","","","","","","","","","",""
"html-keyboard-response","100","191827","0.0-43.0","","null","<div style=""font-size:100px;"">+</div>","null","delaylearn","learning","ITI","5918a8230afea70001a58b53","GO9jCJU5Fcar3wkLl8Mqc0AVIvt1","","","","","","","","","","","","","","","","","","","2279","",""
"html-keyboard-response","101","194177","0.0-44.0-0.0","","2347.7000000029802","<div style=""display: flex; flex-direction: column; align-items: center; margin-top: -40px;""><img src=""images/pattern_7.png"" style=""width: 234px; height: 230px; margin-top: -50px;""><div style=""display: flex; justify-content: space-between; margin-top: 33px;""><img src=""images/choice_trial_8.png"" style=""width: 408px; height: 417px; margin-right: 200px;""><img src=""images/choice_trial_15.png"" style=""width: 408px; height: 417px;""></div></div>","j","delaylearn","learning","trial","5918a8230afea70001a58b53","GO9jCJU5Fcar3wkLl8Mqc0AVIvt1","2","images/choice_trial_8.png","images/choice_trial_15.png","images/pattern_7.png","j","f","750","8","15","6","0","19","0","1","15","130","","","","",""
"html-keyboard-response","102","195183","0.0-44.0-1.0","","null","<div style=""display: flex; flex-direction: column; align-items: center; margin-top: -40px;""><img src=""images/pattern_7.png"" style=""width: 234px; height: 230px; margin-top: -50px;""><div style=""display: flex; justify-content: space-between; margin-top: 33px;""><img src=""images/choice_trial_15.png"" style=""width: 408px; height: 417px; margin-left:608px;""></div></div>","null","delaylearn","learning","display_response","5918a8230afea70001a58b53","GO9jCJU5Fcar3wkLl8Mqc0AVIvt1","","","","","","","","","","","","","","","","","chosen stimuli: images/choice_trial_15.png","","","",""
"html-keyboard-response","103","195939","0.0-44.0-2.0","","null","","null","delaylearn","learning","feedback_duration_window","5918a8230afea70001a58b53","GO9jCJU5Fcar3wkLl8Mqc0AVIvt1","","","","","","","","","","","","","","","","","","750","","",""
"html-keyboard-response","104","197445","0.0-44.0-3.0","","null","<div style='margin:auto;width: auto; font-size: 150%'><span style='font-weight: bold; font-size: 100px; color: green;'>+10 points!</span><br><br></div>","null","delaylearn","learning","feedback_image_window","5918a8230afea70001a58b53","GO9jCJU5Fcar3wkLl8Mqc0AVIvt1","","","","","","","","","","","","","","","","","","","","",""
"html-keyboard-response","105","199934","0.0-45.0","","null","<div style=""font-size:100px;"">+</div>","null","delaylearn","learning","ITI","5918a8230afea70001a58b53","GO9jCJU5Fcar3wkLl8Mqc0AVIvt1","","","","","","","","","","","","","","","","","","","2482","",""
"html-keyboard-response","106","201774","0.0-46.0-0.0","","1838.0999999940395","<div style=""display: flex; flex-direction: column; align-items: center; margin-top: -40px;""><img src=""images/pattern_1.png"" style=""width: 234px; height: 230px; margin-top: -50px;""><div style=""display: flex; justify-content: space-between; margin-top: 33px;""><img src=""images/choice_trial_3.png"" style=""width: 408px; height: 417px; margin-right: 200px;""><img src=""images/choice_trial_10.png"" style=""width: 408px; height: 417px;""></div></div>","f","delaylearn","learning","trial","5918a8230afea70001a58b53","GO9jCJU5Fcar3wkLl8Mqc0AVIvt1","2","images/choice_trial_3.png","images/choice_trial_10.png","images/pattern_1.png","f","f","7000","3","10","1","0","20","1","1","3","140","","","","",""
"html-keyboard-response","107","202779","0.0-46.0-1.0","","null","<div style=""display: flex; flex-direction: column; align-items: center; margin-top: -40px;""><img src=""images/pattern_1.png"" style=""width: 234px; height: 230px; margin-top: -50px;""><div style=""display: flex; justify-content: space-between; margin-top: 33px;""><img src=""images/choice_trial_3.png"" style=""width: 408px; height: 417px; margin-right: 608px;""></div></div>","null","delaylearn","learning","display_response","5918a8230afea70001a58b53","GO9jCJU5Fcar3wkLl8Mqc0AVIvt1","","","","","","","","","","","","","","","","","chosen stimuli: images/choice_trial_3.png","","","",""
"html-keyboard-response","108","209786","0.0-46.0-2.0","","null","","null","delaylearn","learning","feedback_duration_window","5918a8230afea70001a58b53","GO9jCJU5Fcar3wkLl8Mqc0AVIvt1","","","","","","","","","","","","","","","","","","7000","","",""
"html-keyboard-response","109","211290","0.0-46.0-3.0","","null","<div style='margin:auto;width: auto; font-size: 150%'><span style='font-weight: bold; font-size: 100px; color: green;'>+10 points!</span><br><br></div>","null","delaylearn","learning","feedback_image_window","5918a8230afea70001a58b53","GO9jCJU5Fcar3wkLl8Mqc0AVIvt1","","","","","","","","","","","","","","","","","","","","",""
"html-keyboard-response","110","213717","0.0-47.0","","null","<div style=""font-size:100px;"">+</div>","null","delaylearn","learning","ITI","5918a8230afea70001a58b53","GO9jCJU5Fcar3wkLl8Mqc0AVIvt1","","","","","","","","","","","","","","","","","","","2423","",""
"html-keyboard-response","111","216221","0.0-48.0-0.0","","2501.9000000059605","<div style=""display: flex; flex-direction: column; align-items: center; margin-top: -40px;""><img src=""images/pattern_6.png"" style=""width: 234px; height: 230px; margin-top: -50px;""><div style=""display: flex; justify-content: space-between; margin-top: 33px;""><img src=""images/choice_trial_5.png"" style=""width: 408px; height: 417px; margin-right: 200px;""><img src=""images/choice_trial_11.png"" style=""width: 408px; height: 417px;""></div></div>","f","delaylearn","learning","trial","5918a8230afea70001a58b53","GO9jCJU5Fcar3wkLl8Mqc0AVIvt1","2","images/choice_trial_5.png","images/choice_trial_11.png","images/pattern_6.png","j","j","750","5","11","5","1","21","0","0","5","140","","","","",""
"html-keyboard-response","112","217228","0.0-48.0-1.0","","null","<div style=""display: flex; flex-direction: column; align-items: center; margin-top: -40px;""><img src=""images/pattern_6.png"" style=""width: 234px; height: 230px; margin-top: -50px;""><div style=""display: flex; justify-content: space-between; margin-top: 33px;""><img src=""images/choice_trial_5.png"" style=""width: 408px; height: 417px; margin-right: 608px;""></div></div>","null","delaylearn","learning","display_response","5918a8230afea70001a58b53","GO9jCJU5Fcar3wkLl8Mqc0AVIvt1","","","","","","","","","","","","","","","","","chosen stimuli: images/choice_trial_5.png","","","",""
"html-keyboard-response","113","217984","0.0-48.0-2.0","","null","","null","delaylearn","learning","feedback_duration_window","5918a8230afea70001a58b53","GO9jCJU5Fcar3wkLl8Mqc0AVIvt1","","","","","","","","","","","","","","","","","","750","","",""
"html-keyboard-response","114","219491","0.0-48.0-3.0","","null","<div style='margin:auto;width: auto; font-size: 150%'><span style='font-weight: bold; font-size: 100px; color: red;'>0 points!</span><br><br></div>","null","delaylearn","learning","feedback_image_window","5918a8230afea70001a58b53","GO9jCJU5Fcar3wkLl8Mqc0AVIvt1","","","","","","","","","","","","","","","","","","","","",""
"html-keyboard-response","115","221802","0.0-49.0","","null","<div style=""font-size:100px;"">+</div>","null","delaylearn","learning","ITI","5918a8230afea70001a58b53","GO9jCJU5Fcar3wkLl8Mqc0AVIvt1","","","","","","","","","","","","","","","","","","","2305","",""
"html-keyboard-response","116","223141","0.0-50.0-0.0","","1336.1000000089407","<div style=""display: flex; flex-direction: column; align-items: center; margin-top: -40px;""><img src=""images/pattern_4.png"" style=""width: 234px; height: 230px; margin-top: -50px;""><div style=""display: flex; justify-content: space-between; margin-top: 33px;""><img src=""images/choice_trial_4.png"" style=""width: 408px; height: 417px; margin-right: 200px;""><img src=""images/choice_trial_16.png"" style=""width: 408px; height: 417px;""></div></div>","f","delaylearn","learning","trial","5918a8230afea70001a58b53","GO9jCJU5Fcar3wkLl8Mqc0AVIvt1","2","images/choice_trial_4.png","images/choice_trial_16.png","images/pattern_4.png","f","f","7000","4","16","3","0","22","1","1","4","150","","","","",""
"html-keyboard-response","117","224147","0.0-50.0-1.0","","null","<div style=""display: flex; flex-direction: column; align-items: center; margin-top: -40px;""><img src=""images/pattern_4.png"" style=""width: 234px; height: 230px; margin-top: -50px;""><div style=""display: flex; justify-content: space-between; margin-top: 33px;""><img src=""images/choice_trial_4.png"" style=""width: 408px; height: 417px; margin-right: 608px;""></div></div>","null","delaylearn","learning","display_response","5918a8230afea70001a58b53","GO9jCJU5Fcar3wkLl8Mqc0AVIvt1","","","","","","","","","","","","","","","","","chosen stimuli: images/choice_trial_4.png","","","",""
"html-keyboard-response","118","231153","0.0-50.0-2.0","","null","","null","delaylearn","learning","feedback_duration_window","5918a8230afea70001a58b53","GO9jCJU5Fcar3wkLl8Mqc0AVIvt1","","","","","","","","","","","","","","","","","","7000","","",""
"html-keyboard-response","119","232661","0.0-50.0-3.0","","null","<div style='margin:auto;width: auto; font-size: 150%'><span style='font-weight: bold; font-size: 100px; color: green;'>+10 points!</span><br><br></div>","null","delaylearn","learning","feedback_image_window","5918a8230afea70001a58b53","GO9jCJU5Fcar3wkLl8Mqc0AVIvt1","","","","","","","","","","","","","","","","","","","","",""
"html-keyboard-response","120","233164","0.0-51.0-0.0","","null","","null","","","mood_trial_fixation","","","","","","","","","","","","","","","","","","","","","","",""
"lmdlab-html-vas-response","121","236819","0.0-51.0-1.0","","2649","How happy are you right now?","0.6407407407407407","delaylearn","learning","mood_trial","5918a8230afea70001a58b53","GO9jCJU5Fcar3wkLl8Mqc0AVIvt1","","","","","","","","","","","","","","","","","","","","[""Very unhappy"",""Very happy""]",""
"html-keyboard-response","122","238479","0.0-52.0","","null","<div style=""font-size:100px;"">+</div>","null","delaylearn","learning","ITI","5918a8230afea70001a58b53","GO9jCJU5Fcar3wkLl8Mqc0AVIvt1","","","","","","","","","","","","","","","","","","","1656","",""
"html-keyboard-response","123","240048","0.0-53.0-0.0","","1566.1000000089407","<div style=""display: flex; flex-direction: column; align-items: center; margin-top: -40px;""><img src=""images/pattern_7.png"" style=""width: 234px; height: 230px; margin-top: -50px;""><div style=""display: flex; justify-content: space-between; margin-top: 33px;""><img src=""images/choice_trial_15.png"" style=""width: 408px; height: 417px; margin-right: 200px;""><img src=""images/choice_trial_8.png"" style=""width: 408px; height: 417px;""></div></div>","j","delaylearn","learning","trial","5918a8230afea70001a58b53","GO9jCJU5Fcar3wkLl8Mqc0AVIvt1","2","images/choice_trial_15.png","images/choice_trial_8.png","images/pattern_7.png","j","j","750","15","8","6","1","23","1","1","8","160","","","","",""
"html-keyboard-response","124","241054","0.0-53.0-1.0","","null","<div style=""display: flex; flex-direction: column; align-items: center; margin-top: -40px;""><img src=""images/pattern_7.png"" style=""width: 234px; height: 230px; margin-top: -50px;""><div style=""display: flex; justify-content: space-between; margin-top: 33px;""><img src=""images/choice_trial_8.png"" style=""width: 408px; height: 417px; margin-left:608px;""></div></div>","null","delaylearn","learning","display_response","5918a8230afea70001a58b53","GO9jCJU5Fcar3wkLl8Mqc0AVIvt1","","","","","","","","","","","","","","","","","chosen stimuli: images/choice_trial_8.png","","","",""
"html-keyboard-response","125","241811","0.0-53.0-2.0","","null","","null","delaylearn","learning","feedback_duration_window","5918a8230afea70001a58b53","GO9jCJU5Fcar3wkLl8Mqc0AVIvt1","","","","","","","","","","","","","","","","","","750","","",""
"html-keyboard-response","126","243316","0.0-53.0-3.0","","null","<div style='margin:auto;width: auto; font-size: 150%'><span style='font-weight: bold; font-size: 100px; color: green;'>+10 points!</span><br><br></div>","null","delaylearn","learning","feedback_image_window","5918a8230afea70001a58b53","GO9jCJU5Fcar3wkLl8Mqc0AVIvt1","","","","","","","","","","","","","","","","","","","","",""
"html-keyboard-response","127","245646","0.0-54.0","","null","<div style=""font-size:100px;"">+</div>","null","delaylearn","learning","ITI","5918a8230afea70001a58b53","GO9jCJU5Fcar3wkLl8Mqc0AVIvt1","","","","","","","","","","","","","","","","","","","2324","",""
"html-keyboard-response","128","247213","0.0-55.0-0.0","","1563.7999999970198","<div style=""display: flex; flex-direction: column; align-items: center; margin-top: -40px;""><img src=""images/pattern_1.png"" style=""width: 234px; height: 230px; margin-top: -50px;""><div style=""display: flex; justify-content: space-between; margin-top: 33px;""><img src=""images/choice_trial_10.png"" style=""width: 408px; height: 417px; margin-right: 200px;""><img src=""images/choice_trial_3.png"" style=""width: 408px; height: 417px;""></div></div>","j","delaylearn","learning","trial","5918a8230afea70001a58b53","GO9jCJU5Fcar3wkLl8Mqc0AVIvt1","2","images/choice_trial_10.png","images/choice_trial_3.png","images/pattern_1.png","f","j","7000","10","3","1","1","24","1","0","3","160","","","","",""
"html-keyboard-response","129","248218","0.0-55.0-1.0","","null","<div style=""display: flex; flex-direction: column; align-items: center; margin-top: -40px;""><img src=""images/pattern_1.png"" style=""width: 234px; height: 230px; margin-top: -50px;""><div style=""display: flex; justify-content: space-between; margin-top: 33px;""><img src=""images/choice_trial_3.png"" style=""width: 408px; height: 417px; margin-left:608px;""></div></div>","null","delaylearn","learning","display_response","5918a8230afea70001a58b53","GO9jCJU5Fcar3wkLl8Mqc0AVIvt1","","","","","","","","","","","","","","","","","chosen stimuli: images/choice_trial_3.png","","","",""
"html-keyboard-response","130","255225","0.0-55.0-2.0","","null","","null","delaylearn","learning","feedback_duration_window","5918a8230afea70001a58b53","GO9jCJU5Fcar3wkLl8Mqc0AVIvt1","","","","","","","","","","","","","","","","","","7000","","",""
"html-keyboard-response","131","256733","0.0-55.0-3.0","","null","<div style='margin:auto;width: auto; font-size: 150%'><span style='font-weight: bold; font-size: 100px; color: red;'>0 points!</span><br><br></div>","null","delaylearn","learning","feedback_image_window","5918a8230afea70001a58b53","GO9jCJU5Fcar3wkLl8Mqc0AVIvt1","","","","","","","","","","","","","","","","","","","","",""
"html-keyboard-response","132","258876","0.0-56.0","","null","<div style=""font-size:100px;"">+</div>","null","delaylearn","learning","ITI","5918a8230afea70001a58b53","GO9jCJU5Fcar3wkLl8Mqc0AVIvt1","","","","","","","","","","","","","","","","","","","2139","",""
"html-keyboard-response","133","260352","0.0-57.0-0.0","","1473","<div style=""display: flex; flex-direction: column; align-items: center; margin-top: -40px;""><img src=""images/pattern_5.png"" style=""width: 234px; height: 230px; margin-top: -50px;""><div style=""display: flex; justify-content: space-between; margin-top: 33px;""><img src=""images/choice_trial_9.png"" style=""width: 408px; height: 417px; margin-right: 200px;""><img src=""images/choice_trial_2.png"" style=""width: 408px; height: 417px;""></div></div>","f","delaylearn","learning","trial","5918a8230afea70001a58b53","GO9jCJU5Fcar3wkLl8Mqc0AVIvt1","2","images/choice_trial_9.png","images/choice_trial_2.png","images/pattern_5.png","j","j","750","9","2","4","1","25","0","0","9","160","","","","",""
"html-keyboard-response","134","261357","0.0-57.0-1.0","","null","<div style=""display: flex; flex-direction: column; align-items: center; margin-top: -40px;""><img src=""images/pattern_5.png"" style=""width: 234px; height: 230px; margin-top: -50px;""><div style=""display: flex; justify-content: space-between; margin-top: 33px;""><img src=""images/choice_trial_9.png"" style=""width: 408px; height: 417px; margin-right: 608px;""></div></div>","null","delaylearn","learning","display_response","5918a8230afea70001a58b53","GO9jCJU5Fcar3wkLl8Mqc0AVIvt1","","","","","","","","","","","","","","","","","chosen stimuli: images/choice_trial_9.png","","","",""
"html-keyboard-response","135","262111","0.0-57.0-2.0","","null","","null","delaylearn","learning","feedback_duration_window","5918a8230afea70001a58b53","GO9jCJU5Fcar3wkLl8Mqc0AVIvt1","","","","","","","","","","","","","","","","","","750","","",""
"html-keyboard-response","136","263618","0.0-57.0-3.0","","null","<div style='margin:auto;width: auto; font-size: 150%'><span style='font-weight: bold; font-size: 100px; color: red;'>0 points!</span><br><br></div>","null","delaylearn","learning","feedback_image_window","5918a8230afea70001a58b53","GO9jCJU5Fcar3wkLl8Mqc0AVIvt1","","","","","","","","","","","","","","","","","","","","",""
"html-keyboard-response","137","265533","0.0-58.0","","null","<div style=""font-size:100px;"">+</div>","null","delaylearn","learning","ITI","5918a8230afea70001a58b53","GO9jCJU5Fcar3wkLl8Mqc0AVIvt1","","","","","","","","","","","","","","","","","","","1913","",""
"html-keyboard-response","138","266588","0.0-59.0-0.0","","1051.9000000059605","<div style=""display: flex; flex-direction: column; align-items: center; margin-top: -40px;""><img src=""images/pattern_3.png"" style=""width: 234px; height: 230px; margin-top: -50px;""><div style=""display: flex; justify-content: space-between; margin-top: 33px;""><img src=""images/choice_trial_14.png"" style=""width: 408px; height: 417px; margin-right: 200px;""><img src=""images/choice_trial_12.png"" style=""width: 408px; height: 417px;""></div></div>","j","delaylearn","learning","trial","5918a8230afea70001a58b53","GO9jCJU5Fcar3wkLl8Mqc0AVIvt1","2","images/choice_trial_14.png","images/choice_trial_12.png","images/pattern_3.png","j","j","7000","14","12","2","1","26","1","1","12","170","","","","",""
"html-keyboard-response","139","267594","0.0-59.0-1.0","","null","<div style=""display: flex; flex-direction: column; align-items: center; margin-top: -40px;""><img src=""images/pattern_3.png"" style=""width: 234px; height: 230px; margin-top: -50px;""><div style=""display: flex; justify-content: space-between; margin-top: 33px;""><img src=""images/choice_trial_12.png"" style=""width: 408px; height: 417px; margin-left:608px;""></div></div>","null","delaylearn","learning","display_response","5918a8230afea70001a58b53","GO9jCJU5Fcar3wkLl8Mqc0AVIvt1","","","","","","","","","","","","","","","","","chosen stimuli: images/choice_trial_12.png","","","",""
"html-keyboard-response","140","274601","0.0-59.0-2.0","","null","","null","delaylearn","learning","feedback_duration_window","5918a8230afea70001a58b53","GO9jCJU5Fcar3wkLl8Mqc0AVIvt1","","","","","","","","","","","","","","","","","","7000","","",""
"html-keyboard-response","141","276104","0.0-59.0-3.0","","null","<div style='margin:auto;width: auto; font-size: 150%'><span style='font-weight: bold; font-size: 100px; color: green;'>+10 points!</span><br><br></div>","null","delaylearn","learning","feedback_image_window","5918a8230afea70001a58b53","GO9jCJU5Fcar3wkLl8Mqc0AVIvt1","","","","","","","","","","","","","","","","","","","","",""
"lmdlab-html-vas-response","142","282369","0.0-60.0-0.0","","4758","*How <b><u>confident</u></b> are you feeling about your answers at this moment?*","0.6333333333333333","rewlearn","rate_confidence","","5918a8230afea70001a58b53","GO9jCJU5Fcar3wkLl8Mqc0AVIvt1","","","","","","","","","","","","","","","","","","","","[""No confidence"",""Complete confidence""]",""
"lmdlab-rest-trial-limit","143","368713","0.0-60.0-1.0","","84834.10000000894","<div style=""font-size:40px;""><b>Please take a break!</b><br><br><br><br><p>Great work: you earned 170 points.<br><br><br><p>You have completed part(s) 1 of 5.<br><br><br><br>When you are ready to continue<br><br><br>please click the button.</p><br><br>","0","delaylearn","learning","break","5918a8230afea70001a58b53","GO9jCJU5Fcar3wkLl8Mqc0AVIvt1","","","","","","","","","","","","","","","","","","","","","0"
"html-keyboard-response","144","371720","0.0-60.0-2.0","","null","<div style=""font-size:100px;"">+</div>","null","delaylearn","learning","pre_fixation","5918a8230afea70001a58b53","","","","","","","","","","","","","","","","","","","","","",""
"lmdlab-html-vas-response","145","375369","0.0-60.0-3.0-0.0","","2642","How happy are you right now?","0.6981481481481482","delaylearn","learning","mood_baseline","5918a8230afea70001a58b53","GO9jCJU5Fcar3wkLl8Mqc0AVIvt1","","","","","","","","","","","","","","","","","","","","[""Very unhappy"",""Very happy""]",""
"html-keyboard-response","146","376872","0.0-60.0-3.0-1.0","","null","","null","","","mood_baseline_fixation","","","","","","","","","","","","","","","","","","","","","","",""
"html-keyboard-response","147","379244","0.0-61.0","","null","<div style=""font-size:100px;"">+</div>","null","delaylearn","learning","ITI","5918a8230afea70001a58b53","GO9jCJU5Fcar3wkLl8Mqc0AVIvt1","","","","","","","","","","","","","","","","","","","2371","",""
"html-keyboard-response","148","380649","0.0-62.0-0.0","","1403.7000000029802","<div style=""display: flex; flex-direction: column; align-items: center; margin-top: -40px;""><img src=""images/pattern_7.png"" style=""width: 234px; height: 230px; margin-top: -50px;""><div style=""display: flex; justify-content: space-between; margin-top: 33px;""><img src=""images/choice_trial_15.png"" style=""width: 408px; height: 417px; margin-right: 200px;""><img src=""images/choice_trial_8.png"" style=""width: 408px; height: 417px;""></div></div>","f","delaylearn","learning","trial","5918a8230afea70001a58b53","GO9jCJU5Fcar3wkLl8Mqc0AVIvt1","2","images/choice_trial_15.png","images/choice_trial_8.png","images/pattern_7.png","j","j","750","15","8","6","1","27","0","0","15","170","","","","",""
"html-keyboard-response","149","381652","0.0-62.0-1.0","","null","<div style=""display: flex; flex-direction: column; align-items: center; margin-top: -40px;""><img src=""images/pattern_7.png"" style=""width: 234px; height: 230px; margin-top: -50px;""><div style=""display: flex; justify-content: space-between; margin-top: 33px;""><img src=""images/choice_trial_15.png"" style=""width: 408px; height: 417px; margin-right: 608px;""></div></div>","null","delaylearn","learning","display_response","5918a8230afea70001a58b53","GO9jCJU5Fcar3wkLl8Mqc0AVIvt1","","","","","","","","","","","","","","","","","chosen stimuli: images/choice_trial_15.png","","","",""
"html-keyboard-response","150","382403","0.0-62.0-2.0","","null","","null","delaylearn","learning","feedback_duration_window","5918a8230afea70001a58b53","GO9jCJU5Fcar3wkLl8Mqc0AVIvt1","","","","","","","","","","","","","","","","","","750","","",""
"html-keyboard-response","151","383905","0.0-62.0-3.0","","null","<div style='margin:auto;width: auto; font-size: 150%'><span style='font-weight: bold; font-size: 100px; color: red;'>0 points!</span><br><br></div>","null","delaylearn","learning","feedback_image_window","5918a8230afea70001a58b53","GO9jCJU5Fcar3wkLl8Mqc0AVIvt1","","","","","","","","","","","","","","","","","","","","",""
"html-keyboard-response","152","384409","0.0-63.0-0.0","","null","","null","","","mood_trial_fixation","","","","","","","","","","","","","","","","","","","","","","",""
"lmdlab-html-vas-response","153","387905","0.0-63.0-1.0","","2491","How happy are you right now?","0.37037037037037035","delaylearn","learning","mood_trial","5918a8230afea70001a58b53","GO9jCJU5Fcar3wkLl8Mqc0AVIvt1","","","","","","","","","","","","","","","","","","","","[""Very unhappy"",""Very happy""]",""
"html-keyboard-response","154","390143","0.0-64.0","","null","<div style=""font-size:100px;"">+</div>","null","delaylearn","learning","ITI","5918a8230afea70001a58b53","GO9jCJU5Fcar3wkLl8Mqc0AVIvt1","","","","","","","","","","","","","","","","","","","2234","",""
"html-keyboard-response","155","391677","0.0-65.0-0.0","","1532","<div style=""display: flex; flex-direction: column; align-items: center; margin-top: -40px;""><img src=""images/pattern_1.png"" style=""width: 234px; height: 230px; margin-top: -50px;""><div style=""display: flex; justify-content: space-between; margin-top: 33px;""><img src=""images/choice_trial_3.png"" style=""width: 408px; height: 417px; margin-right: 200px;""><img src=""images/choice_trial_10.png"" style=""width: 408px; height: 417px;""></div></div>","j","delaylearn","learning","trial","5918a8230afea70001a58b53","GO9jCJU5Fcar3wkLl8Mqc0AVIvt1","2","images/choice_trial_3.png","images/choice_trial_10.png","images/pattern_1.png","f","f","7000","3","10","1","0","28","0","0","10","170","","","","",""
"html-keyboard-response","156","392681","0.0-65.0-1.0","","null","<div style=""display: flex; flex-direction: column; align-items: center; margin-top: -40px;""><img src=""images/pattern_1.png"" style=""width: 234px; height: 230px; margin-top: -50px;""><div style=""display: flex; justify-content: space-between; margin-top: 33px;""><img src=""images/choice_trial_10.png"" style=""width: 408px; height: 417px; margin-left:608px;""></div></div>","null","delaylearn","learning","display_response","5918a8230afea70001a58b53","GO9jCJU5Fcar3wkLl8Mqc0AVIvt1","","","","","","","","","","","","","","","","","chosen stimuli: images/choice_trial_10.png","","","",""
"html-keyboard-response","157","399686","0.0-65.0-2.0","","null","","null","delaylearn","learning","feedback_duration_window","5918a8230afea70001a58b53","GO9jCJU5Fcar3wkLl8Mqc0AVIvt1","","","","","","","","","","","","","","","","","","7000","","",""
"html-keyboard-response","158","401192","0.0-65.0-3.0","","null","<div style='margin:auto;width: auto; font-size: 150%'><span style='font-weight: bold; font-size: 100px; color: red;'>0 points!</span><br><br></div>","null","delaylearn","learning","feedback_image_window","5918a8230afea70001a58b53","GO9jCJU5Fcar3wkLl8Mqc0AVIvt1","","","","","","","","","","","","","","","","","","","","",""
"html-keyboard-response","159","403638","0.0-66.0","","null","<div style=""font-size:100px;"">+</div>","null","delaylearn","learning","ITI","5918a8230afea70001a58b53","GO9jCJU5Fcar3wkLl8Mqc0AVIvt1","","","","","","","","","","","","","","","","","","","2440","",""
"html-keyboard-response","160","404675","0.0-67.0-0.0","","1033.8999999910593","<div style=""display: flex; flex-direction: column; align-items: center; margin-top: -40px;""><img src=""images/pattern_5.png"" style=""width: 234px; height: 230px; margin-top: -50px;""><div style=""display: flex; justify-content: space-between; margin-top: 33px;""><img src=""images/choice_trial_2.png"" style=""width: 408px; height: 417px; margin-right: 200px;""><img src=""images/choice_trial_9.png"" style=""width: 408px; height: 417px;""></div></div>","j","delaylearn","learning","trial","5918a8230afea70001a58b53","GO9jCJU5Fcar3wkLl8Mqc0AVIvt1","2","images/choice_trial_2.png","images/choice_trial_9.png","images/pattern_5.png","f","f","750","2","9","4","0","29","0","0","9","170","","","","",""
"html-keyboard-response","161","405680","0.0-67.0-1.0","","null","<div style=""display: flex; flex-direction: column; align-items: center; margin-top: -40px;""><img src=""images/pattern_5.png"" style=""width: 234px; height: 230px; margin-top: -50px;""><div style=""display: flex; justify-content: space-between; margin-top: 33px;""><img src=""images/choice_trial_9.png"" style=""width: 408px; height: 417px; margin-left:608px;""></div></div>","null","delaylearn","learning","display_response","5918a8230afea70001a58b53","GO9jCJU5Fcar3wkLl8Mqc0AVIvt1","","","","","","","","","","","","","","","","","chosen stimuli: images/choice_trial_9.png","","","",""
"html-keyboard-response","162","406437","0.0-67.0-2.0","","null","","null","delaylearn","learning","feedback_duration_window","5918a8230afea70001a58b53","GO9jCJU5Fcar3wkLl8Mqc0AVIvt1","","","","","","","","","","","","","","","","","","750","","",""
"html-keyboard-response","163","407942","0.0-67.0-3.0","","null","<div style='margin:auto;width: auto; font-size: 150%'><span style='font-weight: bold; font-size: 100px; color: red;'>0 points!</span><br><br></div>","null","delaylearn","learning","feedback_image_window","5918a8230afea70001a58b53","GO9jCJU5Fcar3wkLl8Mqc0AVIvt1","","","","","","","","","","","","","","","","","","","","",""
"html-keyboard-response","164","409653","0.0-68.0","","null","<div style=""font-size:100px;"">+</div>","null","delaylearn","learning","ITI","5918a8230afea70001a58b53","GO9jCJU5Fcar3wkLl8Mqc0AVIvt1","","","","","","","","","","","","","","","","","","","1706","",""
"html-keyboard-response","165","411567","0.0-69.0-0.0","","1911.9000000059605","<div style=""display: flex; flex-direction: column; align-items: center; margin-top: -40px;""><img src=""images/pattern_6.png"" style=""width: 234px; height: 230px; margin-top: -50px;""><div style=""display: flex; justify-content: space-between; margin-top: 33px;""><img src=""images/choice_trial_5.png"" style=""width: 408px; height: 417px; margin-right: 200px;""><img src=""images/choice_trial_11.png"" style=""width: 408px; height: 417px;""></div></div>","f","delaylearn","learning","trial","5918a8230afea70001a58b53","GO9jCJU5Fcar3wkLl8Mqc0AVIvt1","2","images/choice_trial_5.png","images/choice_trial_11.png","images/pattern_6.png","j","j","750","5","11","5","1","30","0","0","5","170","","","","",""
"html-keyboard-response","166","412573","0.0-69.0-1.0","","null","<div style=""display: flex; flex-direction: column; align-items: center; margin-top: -40px;""><img src=""images/pattern_6.png"" style=""width: 234px; height: 230px; margin-top: -50px;""><div style=""display: flex; justify-content: space-between; margin-top: 33px;""><img src=""images/choice_trial_5.png"" style=""width: 408px; height: 417px; margin-right: 608px;""></div></div>","null","delaylearn","learning","display_response","5918a8230afea70001a58b53","GO9jCJU5Fcar3wkLl8Mqc0AVIvt1","","","","","","","","","","","","","","","","","chosen stimuli: images/choice_trial_5.png","","","",""
"html-keyboard-response","167","413325","0.0-69.0-2.0","","null","","null","delaylearn","learning","feedback_duration_window","5918a8230afea70001a58b53","GO9jCJU5Fcar3wkLl8Mqc0AVIvt1","","","","","","","","","","","","","","","","","","750","","",""
"html-keyboard-response","168","414827","0.0-69.0-3.0","","null","<div style='margin:auto;width: auto; font-size: 150%'><span style='font-weight: bold; font-size: 100px; color: red;'>0 points!</span><br><br></div>","null","delaylearn","learning","feedback_image_window","5918a8230afea70001a58b53","GO9jCJU5Fcar3wkLl8Mqc0AVIvt1","","","","","","","","","","","","","","","","","","","","",""
"html-keyboard-response","169","415328","0.0-70.0-0.0","","null","","null","","","mood_trial_fixation","","","","","","","","","","","","","","","","","","","","","","",""
"lmdlab-html-vas-response","170","418670","0.0-70.0-1.0","","2334","How happy are you right now?","0.29259259259259257","delaylearn","learning","mood_trial","5918a8230afea70001a58b53","GO9jCJU5Fcar3wkLl8Mqc0AVIvt1","","","","","","","","","","","","","","","","","","","","[""Very unhappy"",""Very happy""]",""
"html-keyboard-response","171","421075","0.0-71.0","","null","<div style=""font-size:100px;"">+</div>","null","delaylearn","learning","ITI","5918a8230afea70001a58b53","GO9jCJU5Fcar3wkLl8Mqc0AVIvt1","","","","","","","","","","","","","","","","","","","2403","",""
"html-keyboard-response","172","422933","0.0-72.0-0.0","","1855.699999988079","<div style=""display: flex; flex-direction: column; align-items: center; margin-top: -40px;""><img src=""images/pattern_4.png"" style=""width: 234px; height: 230px; margin-top: -50px;""><div style=""display: flex; justify-content: space-between; margin-top: 33px;""><img src=""images/choice_trial_16.png"" style=""width: 408px; height: 417px; margin-right: 200px;""><img src=""images/choice_trial_4.png"" style=""width: 408px; height: 417px;""></div></div>","f","delaylearn","learning","trial","5918a8230afea70001a58b53","GO9jCJU5Fcar3wkLl8Mqc0AVIvt1","2","images/choice_trial_16.png","images/choice_trial_4.png","images/pattern_4.png","j","j","7000","16","4","3","1","31","0","0","16","170","","","","",""
"html-keyboard-response","173","423935","0.0-72.0-1.0","","null","<div style=""display: flex; flex-direction: column; align-items: center; margin-top: -40px;""><img src=""images/pattern_4.png"" style=""width: 234px; height: 230px; margin-top: -50px;""><div style=""display: flex; justify-content: space-between; margin-top: 33px;""><img src=""images/choice_trial_16.png"" style=""width: 408px; height: 417px; margin-right: 608px;""></div></div>","null","delaylearn","learning","display_response","5918a8230afea70001a58b53","GO9jCJU5Fcar3wkLl8Mqc0AVIvt1","","","","","","","","","","","","","","","","","chosen stimuli: images/choice_trial_16.png","","","",""
"html-keyboard-response","174","430939","0.0-72.0-2.0","","null","","null","delaylearn","learning","feedback_duration_window","5918a8230afea70001a58b53","GO9jCJU5Fcar3wkLl8Mqc0AVIvt1","","","","","","","","","","","","","","","","","","7000","","",""
"html-keyboard-response","175","432441","0.0-72.0-3.0","","null","<div style='margin:auto;width: auto; font-size: 150%'><span style='font-weight: bold; font-size: 100px; color: red;'>0 points!</span><br><br></div>","null","delaylearn","learning","feedback_image_window","5918a8230afea70001a58b53","GO9jCJU5Fcar3wkLl8Mqc0AVIvt1","","","","","","","","","","","","","","","","","","","","",""
"html-keyboard-response","176","434535","0.0-73.0","","null","<div style=""font-size:100px;"">+</div>","null","delaylearn","learning","ITI","5918a8230afea70001a58b53","GO9jCJU5Fcar3wkLl8Mqc0AVIvt1","","","","","","","","","","","","","","","","","","","2092","",""
"html-keyboard-response","177","435589","0.0-74.0-0.0","","1051","<div style=""display: flex; flex-direction: column; align-items: center; margin-top: -40px;""><img src=""images/pattern_3.png"" style=""width: 234px; height: 230px; margin-top: -50px;""><div style=""display: flex; justify-content: space-between; margin-top: 33px;""><img src=""images/choice_trial_14.png"" style=""width: 408px; height: 417px; margin-right: 200px;""><img src=""images/choice_trial_12.png"" style=""width: 408px; height: 417px;""></div></div>","j","delaylearn","learning","trial","5918a8230afea70001a58b53","GO9jCJU5Fcar3wkLl8Mqc0AVIvt1","2","images/choice_trial_14.png","images/choice_trial_12.png","images/pattern_3.png","j","j","7000","14","12","2","1","32","1","1","12","180","","","","",""
"html-keyboard-response","178","436593","0.0-74.0-1.0","","null","<div style=""display: flex; flex-direction: column; align-items: center; margin-top: -40px;""><img src=""images/pattern_3.png"" style=""width: 234px; height: 230px; margin-top: -50px;""><div style=""display: flex; justify-content: space-between; margin-top: 33px;""><img src=""images/choice_trial_12.png"" style=""width: 408px; height: 417px; margin-left:608px;""></div></div>","null","delaylearn","learning","display_response","5918a8230afea70001a58b53","GO9jCJU5Fcar3wkLl8Mqc0AVIvt1","","","","","","","","","","","","","","","","","chosen stimuli: images/choice_trial_12.png","","","",""
"html-keyboard-response","179","443595","0.0-74.0-2.0","","null","","null","delaylearn","learning","feedback_duration_window","5918a8230afea70001a58b53","GO9jCJU5Fcar3wkLl8Mqc0AVIvt1","","","","","","","","","","","","","","","","","","7000","","",""
"html-keyboard-response","180","445097","0.0-74.0-3.0","","null","<div style='margin:auto;width: auto; font-size: 150%'><span style='font-weight: bold; font-size: 100px; color: green;'>+10 points!</span><br><br></div>","null","delaylearn","learning","feedback_image_window","5918a8230afea70001a58b53","GO9jCJU5Fcar3wkLl8Mqc0AVIvt1","","","","","","","","","","","","","","","","","","","","",""
"html-keyboard-response","181","446733","0.0-75.0","","null","<div style=""font-size:100px;"">+</div>","null","delaylearn","learning","ITI","5918a8230afea70001a58b53","GO9jCJU5Fcar3wkLl8Mqc0AVIvt1","","","","","","","","","","","","","","","","","","","1633","",""
"html-keyboard-response","182","448203","0.0-76.0-0.0","","1467.9000000059605","<div style=""display: flex; flex-direction: column; align-items: center; margin-top: -40px;""><img src=""images/pattern_5.png"" style=""width: 234px; height: 230px; margin-top: -50px;""><div style=""display: flex; justify-content: space-between; margin-top: 33px;""><img src=""images/choice_trial_2.png"" style=""width: 408px; height: 417px; margin-right: 200px;""><img src=""images/choice_trial_9.png"" style=""width: 408px; height: 417px;""></div></div>","f","delaylearn","learning","trial","5918a8230afea70001a58b53","GO9jCJU5Fcar3wkLl8Mqc0AVIvt1","2","images/choice_trial_2.png","images/choice_trial_9.png","images/pattern_5.png","j","f","750","2","9","4","0","33","1","0","2","180","","","","",""
"html-keyboard-response","183","449206","0.0-76.0-1.0","","null","<div style=""display: flex; flex-direction: column; align-items: center; margin-top: -40px;""><img src=""images/pattern_5.png"" style=""width: 234px; height: 230px; margin-top: -50px;""><div style=""display: flex; justify-content: space-between; margin-top: 33px;""><img src=""images/choice_trial_2.png"" style=""width: 408px; height: 417px; margin-right: 608px;""></div></div>","null","delaylearn","learning","display_response","5918a8230afea70001a58b53","GO9jCJU5Fcar3wkLl8Mqc0AVIvt1","","","","","","","","","","","","","","","","","chosen stimuli: images/choice_trial_2.png","","","",""
"html-keyboard-response","184","449960","0.0-76.0-2.0","","null","","null","delaylearn","learning","feedback_duration_window","5918a8230afea70001a58b53","GO9jCJU5Fcar3wkLl8Mqc0AVIvt1","","","","","","","","","","","","","","","","","","750","","",""
"html-keyboard-response","185","451466","0.0-76.0-3.0","","null","<div style='margin:auto;width: auto; font-size: 150%'><span style='font-weight: bold; font-size: 100px; color: red;'>0 points!</span><br><br></div>","null","delaylearn","learning","feedback_image_window","5918a8230afea70001a58b53","GO9jCJU5Fcar3wkLl8Mqc0AVIvt1","","","","","","","","","","","","","","","","","","","","",""
"html-keyboard-response","186","453042","0.0-77.0","","null","<div style=""font-size:100px;"">+</div>","null","delaylearn","learning","ITI","5918a8230afea70001a58b53","GO9jCJU5Fcar3wkLl8Mqc0AVIvt1","","","","","","","","","","","","","","","","","","","1573","",""
"html-keyboard-response","187","454351","0.0-78.0-0.0","","1306.7999999970198","<div style=""display: flex; flex-direction: column; align-items: center; margin-top: -40px;""><img src=""images/pattern_1.png"" style=""width: 234px; height: 230px; margin-top: -50px;""><div style=""display: flex; justify-content: space-between; margin-top: 33px;""><img src=""images/choice_trial_3.png"" style=""width: 408px; height: 417px; margin-right: 200px;""><img src=""images/choice_trial_10.png"" style=""width: 408px; height: 417px;""></div></div>","f","delaylearn","learning","trial","5918a8230afea70001a58b53","GO9jCJU5Fcar3wkLl8Mqc0AVIvt1","2","images/choice_trial_3.png","images/choice_trial_10.png","images/pattern_1.png","f","f","7000","3","10","1","0","34","1","1","3","190","","","","",""
"html-keyboard-response","188","455355","0.0-78.0-1.0","","null","<div style=""display: flex; flex-direction: column; align-items: center; margin-top: -40px;""><img src=""images/pattern_1.png"" style=""width: 234px; height: 230px; margin-top: -50px;""><div style=""display: flex; justify-content: space-between; margin-top: 33px;""><img src=""images/choice_trial_3.png"" style=""width: 408px; height: 417px; margin-right: 608px;""></div></div>","null","delaylearn","learning","display_response","5918a8230afea70001a58b53","GO9jCJU5Fcar3wkLl8Mqc0AVIvt1","","","","","","","","","","","","","","","","","chosen stimuli: images/choice_trial_3.png","","","",""
"html-keyboard-response","189","462360","0.0-78.0-2.0","","null","","null","delaylearn","learning","feedback_duration_window","5918a8230afea70001a58b53","GO9jCJU5Fcar3wkLl8Mqc0AVIvt1","","","","","","","","","","","","","","","","","","7000","","",""
"html-keyboard-response","190","463862","0.0-78.0-3.0","","null","<div style='margin:auto;width: auto; font-size: 150%'><span style='font-weight: bold; font-size: 100px; color: green;'>+10 points!</span><br><br></div>","null","delaylearn","learning","feedback_image_window","5918a8230afea70001a58b53","GO9jCJU5Fcar3wkLl8Mqc0AVIvt1","","","","","","","","","","","","","","","","","","","","",""
"html-keyboard-response","191","464363","0.0-79.0-0.0","","null","","null","","","mood_trial_fixation","","","","","","","","","","","","","","","","","","","","","","",""
"lmdlab-html-vas-response","192","467683","0.0-79.0-1.0","","2316","How happy are you right now?","0.6833333333333333","delaylearn","learning","mood_trial","5918a8230afea70001a58b53","GO9jCJU5Fcar3wkLl8Mqc0AVIvt1","","","","","","","","","","","","","","","","","","","","[""Very unhappy"",""Very happy""]",""
"html-keyboard-response","193","469822","0.0-80.0","","null","<div style=""font-size:100px;"">+</div>","null","delaylearn","learning","ITI","5918a8230afea70001a58b53","GO9jCJU5Fcar3wkLl8Mqc0AVIvt1","","","","","","","","","","","","","","","","","","","2133","",""
"html-keyboard-response","194","471301","0.0-81.0-0.0","","1477.7999999970198","<div style=""display: flex; flex-direction: column; align-items: center; margin-top: -40px;""><img src=""images/pattern_6.png"" style=""width: 234px; height: 230px; margin-top: -50px;""><div style=""display: flex; justify-content: space-between; margin-top: 33px;""><img src=""images/choice_trial_11.png"" style=""width: 408px; height: 417px; margin-right: 200px;""><img src=""images/choice_trial_5.png"" style=""width: 408px; height: 417px;""></div></div>","j","delaylearn","learning","trial","5918a8230afea70001a58b53","GO9jCJU5Fcar3wkLl8Mqc0AVIvt1","2","images/choice_trial_11.png","images/choice_trial_5.png","images/pattern_6.png","j","f","750","11","5","5","0","35","0","1","5","200","","","","",""
"html-keyboard-response","195","472308","0.0-81.0-1.0","","null","<div style=""display: flex; flex-direction: column; align-items: center; margin-top: -40px;""><img src=""images/pattern_6.png"" style=""width: 234px; height: 230px; margin-top: -50px;""><div style=""display: flex; justify-content: space-between; margin-top: 33px;""><img src=""images/choice_trial_5.png"" style=""width: 408px; height: 417px; margin-left:608px;""></div></div>","null","delaylearn","learning","display_response","5918a8230afea70001a58b53","GO9jCJU5Fcar3wkLl8Mqc0AVIvt1","","","","","","","","","","","","","","","","","chosen stimuli: images/choice_trial_5.png","","","",""
"html-keyboard-response","196","473060","0.0-81.0-2.0","","null","","null","delaylearn","learning","feedback_duration_window","5918a8230afea70001a58b53","GO9jCJU5Fcar3wkLl8Mqc0AVIvt1","","","","","","","","","","","","","","","","","","750","","",""
"html-keyboard-response","197","474566","0.0-81.0-3.0","","null","<div style='margin:auto;width: auto; font-size: 150%'><span style='font-weight: bold; font-size: 100px; color: green;'>+10 points!</span><br><br></div>","null","delaylearn","learning","feedback_image_window","5918a8230afea70001a58b53","GO9jCJU5Fcar3wkLl8Mqc0AVIvt1","","","","","","","","","","","","","","","","","","","","",""
"html-keyboard-response","198","476660","0.0-82.0","","null","<div style=""font-size:100px;"">+</div>","null","delaylearn","learning","ITI","5918a8230afea70001a58b53","GO9jCJU5Fcar3wkLl8Mqc0AVIvt1","","","","","","","","","","","","","","","","","","","2088","",""
"html-keyboard-response","199","477933","0.0-83.0-0.0","","1271.5","<div style=""display: flex; flex-direction: column; align-items: center; margin-top: -40px;""><img src=""images/pattern_3.png"" style=""width: 234px; height: 230px; margin-top: -50px;""><div style=""display: flex; justify-content: space-between; margin-top: 33px;""><img src=""images/choice_trial_14.png"" style=""width: 408px; height: 417px; margin-right: 200px;""><img src=""images/choice_trial_12.png"" style=""width: 408px; height: 417px;""></div></div>","j","delaylearn","learning","trial","5918a8230afea70001a58b53","GO9jCJU5Fcar3wkLl8Mqc0AVIvt1","2","images/choice_trial_14.png","images/choice_trial_12.png","images/pattern_3.png","j","j","7000","14","12","2","1","36","1","1","12","210","","","","",""
"html-keyboard-response","200","478939","0.0-83.0-1.0","","null","<div style=""display: flex; flex-direction: column; align-items: center; margin-top: -40px;""><img src=""images/pattern_3.png"" style=""width: 234px; height: 230px; margin-top: -50px;""><div style=""display: flex; justify-content: space-between; margin-top: 33px;""><img src=""images/choice_trial_12.png"" style=""width: 408px; height: 417px; margin-left:608px;""></div></div>","null","delaylearn","learning","display_response","5918a8230afea70001a58b53","GO9jCJU5Fcar3wkLl8Mqc0AVIvt1","","","","","","","","","","","","","","","","","chosen stimuli: images/choice_trial_12.png","","","",""
"html-keyboard-response","201","485945","0.0-83.0-2.0","","null","","null","delaylearn","learning","feedback_duration_window","5918a8230afea70001a58b53","GO9jCJU5Fcar3wkLl8Mqc0AVIvt1","","","","","","","","","","","","","","","","","","7000","","",""
"html-keyboard-response","202","487448","0.0-83.0-3.0","","null","<div style='margin:auto;width: auto; font-size: 150%'><span style='font-weight: bold; font-size: 100px; color: green;'>+10 points!</span><br><br></div>","null","delaylearn","learning","feedback_image_window","5918a8230afea70001a58b53","GO9jCJU5Fcar3wkLl8Mqc0AVIvt1","","","","","","","","","","","","","","","","","","","","",""
"html-keyboard-response","203","489670","0.0-84.0","","null","<div style=""font-size:100px;"">+</div>","null","delaylearn","learning","ITI","5918a8230afea70001a58b53","GO9jCJU5Fcar3wkLl8Mqc0AVIvt1","","","","","","","","","","","","","","","","","","","2221","",""
"html-keyboard-response","204","492170","0.0-85.0-0.0","","2497.9000000059605","<div style=""display: flex; flex-direction: column; align-items: center; margin-top: -40px;""><img src=""images/pattern_4.png"" style=""width: 234px; height: 230px; margin-top: -50px;""><div style=""display: flex; justify-content: space-between; margin-top: 33px;""><img src=""images/choice_trial_16.png"" style=""width: 408px; height: 417px; margin-right: 200px;""><img src=""images/choice_trial_4.png"" style=""width: 408px; height: 417px;""></div></div>","j","delaylearn","learning","trial","5918a8230afea70001a58b53","GO9jCJU5Fcar3wkLl8Mqc0AVIvt1","2","images/choice_trial_16.png","images/choice_trial_4.png","images/pattern_4.png","f","j","7000","16","4","3","1","37","1","0","4","210","","","","",""
"html-keyboard-response","205","493174","0.0-85.0-1.0","","null","<div style=""display: flex; flex-direction: column; align-items: center; margin-top: -40px;""><img src=""images/pattern_4.png"" style=""width: 234px; height: 230px; margin-top: -50px;""><div style=""display: flex; justify-content: space-between; margin-top: 33px;""><img src=""images/choice_trial_4.png"" style=""width: 408px; height: 417px; margin-left:608px;""></div></div>","null","delaylearn","learning","display_response","5918a8230afea70001a58b53","GO9jCJU5Fcar3wkLl8Mqc0AVIvt1","","","","","","","","","","","","","","","","","chosen stimuli: images/choice_trial_4.png","","","",""
"html-keyboard-response","206","500177","0.0-85.0-2.0","","null","","null","delaylearn","learning","feedback_duration_window","5918a8230afea70001a58b53","GO9jCJU5Fcar3wkLl8Mqc0AVIvt1","","","","","","","","","","","","","","","","","","7000","","",""
"html-keyboard-response","207","501683","0.0-85.0-3.0","","null","<div style='margin:auto;width: auto; font-size: 150%'><span style='font-weight: bold; font-size: 100px; color: red;'>0 points!</span><br><br></div>","null","delaylearn","learning","feedback_image_window","5918a8230afea70001a58b53","GO9jCJU5Fcar3wkLl8Mqc0AVIvt1","","","","","","","","","","","","","","","","","","","","",""
"html-keyboard-response","208","503208","0.0-86.0","","null","<div style=""font-size:100px;"">+</div>","null","delaylearn","learning","ITI","5918a8230afea70001a58b53","GO9jCJU5Fcar3wkLl8Mqc0AVIvt1","","","","","","","","","","","","","","","","","","","1523","",""
"html-keyboard-response","209","504854","0.0-87.0-0.0","","1644","<div style=""display: flex; flex-direction: column; align-items: center; margin-top: -40px;""><img src=""images/pattern_7.png"" style=""width: 234px; height: 230px; margin-top: -50px;""><div style=""display: flex; justify-content: space-between; margin-top: 33px;""><img src=""images/choice_trial_8.png"" style=""width: 408px; height: 417px; margin-right: 200px;""><img src=""images/choice_trial_15.png"" style=""width: 408px; height: 417px;""></div></div>","f","delaylearn","learning","trial","5918a8230afea70001a58b53","GO9jCJU5Fcar3wkLl8Mqc0AVIvt1","2","images/choice_trial_8.png","images/choice_trial_15.png","images/pattern_7.png","f","f","750","8","15","6","0","38","1","1","8","220","","","","",""
"html-keyboard-response","210","505856","0.0-87.0-1.0","","null","<div style=""display: flex; flex-direction: column; align-items: center; margin-top: -40px;""><img src=""images/pattern_7.png"" style=""width: 234px; height: 230px; margin-top: -50px;""><div style=""display: flex; justify-content: space-between; margin-top: 33px;""><img src=""images/choice_trial_8.png"" style=""width: 408px; height: 417px; margin-right: 608px;""></div></div>","null","delaylearn","learning","display_response","5918a8230afea70001a58b53","GO9jCJU5Fcar3wkLl8Mqc0AVIvt1","","","","","","","","","","","","","","","","","chosen stimuli: images/choice_trial_8.png","","","",""
"html-keyboard-response","211","506609","0.0-87.0-2.0","","null","","null","delaylearn","learning","feedback_duration_window","5918a8230afea70001a58b53","GO9jCJU5Fcar3wkLl8Mqc0AVIvt1","","","","","","","","","","","","","","","","","","750","","",""
"html-keyboard-response","212","508115","0.0-87.0-3.0","","null","<div style='margin:auto;width: auto; font-size: 150%'><span style='font-weight: bold; font-size: 100px; color: green;'>+10 points!</span><br><br></div>","null","delaylearn","learning","feedback_image_window","5918a8230afea70001a58b53","GO9jCJU5Fcar3wkLl8Mqc0AVIvt1","","","","","","","","","","","","","","","","","","","","",""
"html-keyboard-response","213","510155","0.0-88.0","","null","<div style=""font-size:100px;"">+</div>","null","delaylearn","learning","ITI","5918a8230afea70001a58b53","GO9jCJU5Fcar3wkLl8Mqc0AVIvt1","","","","","","","","","","","","","","","","","","","2037","",""
"html-keyboard-response","214","513027","0.0-89.0-0.0","","2870.2999999970198","<div style=""display: flex; flex-direction: column; align-items: center; margin-top: -40px;""><img src=""images/pattern_1.png"" style=""width: 234px; height: 230px; margin-top: -50px;""><div style=""display: flex; justify-content: space-between; margin-top: 33px;""><img src=""images/choice_trial_3.png"" style=""width: 408px; height: 417px; margin-right: 200px;""><img src=""images/choice_trial_10.png"" style=""width: 408px; height: 417px;""></div></div>","f","delaylearn","learning","trial","5918a8230afea70001a58b53","GO9jCJU5Fcar3wkLl8Mqc0AVIvt1","2","images/choice_trial_3.png","images/choice_trial_10.png","images/pattern_1.png","f","f","7000","3","10","1","0","39","1","1","3","230","","","","",""
"html-keyboard-response","215","514031","0.0-89.0-1.0","","null","<div style=""display: flex; flex-direction: column; align-items: center; margin-top: -40px;""><img src=""images/pattern_1.png"" style=""width: 234px; height: 230px; margin-top: -50px;""><div style=""display: flex; justify-content: space-between; margin-top: 33px;""><img src=""images/choice_trial_3.png"" style=""width: 408px; height: 417px; margin-right: 608px;""></div></div>","null","delaylearn","learning","display_response","5918a8230afea70001a58b53","GO9jCJU5Fcar3wkLl8Mqc0AVIvt1","","","","","","","","","","","","","","","","","chosen stimuli: images/choice_trial_3.png","","","",""
"html-keyboard-response","216","521035","0.0-89.0-2.0","","null","","null","delaylearn","learning","feedback_duration_window","5918a8230afea70001a58b53","GO9jCJU5Fcar3wkLl8Mqc0AVIvt1","","","","","","","","","","","","","","","","","","7000","","",""
"html-keyboard-response","217","522538","0.0-89.0-3.0","","null","<div style='margin:auto;width: auto; font-size: 150%'><span style='font-weight: bold; font-size: 100px; color: green;'>+10 points!</span><br><br></div>","null","delaylearn","learning","feedback_image_window","5918a8230afea70001a58b53","GO9jCJU5Fcar3wkLl8Mqc0AVIvt1","","","","","","","","","","","","","","","","","","","","",""
"html-keyboard-response","218","523040","0.0-90.0-0.0","","null","","null","","","mood_trial_fixation","","","","","","","","","","","","","","","","","","","","","","",""
"lmdlab-html-vas-response","219","526640","0.0-90.0-1.0","","2595","How happy are you right now?","0.7148148148148148","delaylearn","learning","mood_trial","5918a8230afea70001a58b53","GO9jCJU5Fcar3wkLl8Mqc0AVIvt1","","","","","","","","","","","","","","","","","","","","[""Very unhappy"",""Very happy""]",""
"html-keyboard-response","220","528498","0.0-91.0","","null","<div style=""font-size:100px;"">+</div>","null","delaylearn","learning","ITI","5918a8230afea70001a58b53","GO9jCJU5Fcar3wkLl8Mqc0AVIvt1","","","","","","","","","","","","","","","","","","","1853","",""
