"trial_type","trial_index","time_elapsed","internal_node_id","participant","rt","stimulus","response","exp_name","exp_stage","test_part","subjectID","databaseID","counterbal","choice_stimuli_1","choice_stimuli_2","pattern_stimuli","rewarded_answer","correct_answer","feedback_duration_times","stim_left","stim_right","pair","leftright_counter","trial","response_correct","response_rewarded","chosen_stim","counter","displayed_choice","feedback_durations","ITI_duration","labels","rest_warning"
"pavlovia","0","653","0.0-0.0","","","","","","","","","","","","","","","","","","","","","","","","","","","","","",""
"html-keyboard-response","1","3656","0.0-1.0","","null","<div style=""font-size:100px;"">+</div>","null","delaylearn","learning","pre_fixation","63ea497523794756c703094c","","","","","","","","","","","","","","","","","","","","","",""
"html-keyboard-response","2","4365","0.0-2.0-0.0","","705.9999999999709","<div style=""display: flex; flex-direction: column; align-items: center; margin-top: -40px;""><img src=""images/demo_images/pattern_1.png"" style=""width: 234px; height: 230px; margin-top: -50px;""><div style=""display: flex; justify-content: space-between; margin-top: 33px;""><img src=""images/demo_images/choice_trial_2.png"" style=""width: 408px; height: 417px; margin-right: 200px;""><img src=""images/demo_images/choice_trial_1.png"" style=""width: 408px; height: 417px;""></div></div>","f","delaylearn","learning","trial","63ea497523794756c703094c","qrcJKsvZcpaQH1ykaCI1KRZsaDM2","5","images/demo_images/choice_trial_2.png","images/demo_images/choice_trial_1.png","images/demo_images/pattern_1.png","j","j","3000","2","1","20","1","1","0","0","2","0","","","","",""
"html-keyboard-response","3","5367","0.0-2.0-1.0","","null","<div style=""display: flex; flex-direction: column; align-items: center; margin-top: -40px;""><img src=""images/demo_images/pattern_1.png"" style=""width: 234px; height: 230px; margin-top: -50px;""><div style=""display: flex; justify-content: space-between; margin-top: 33px;""><img src=""images/demo_images/choice_trial_2.png"" style=""width: 408px; height: 417px; margin-right: 608px;""></div></div>","null","delaylearn","learning","display_response","63ea497523794756c703094c","qrcJKsvZcpaQH1ykaCI1KRZsaDM2","","","","","","","","","","","","","","","","","chosen stimuli: images/demo_images/choice_trial_2.png","","","",""
"html-keyboard-response","4","8370","0.0-2.0-2.0","","null","","null","delaylearn","learning","feedback_duration_window","63ea497523794756c703094c","qrcJKsvZcpaQH1ykaCI1KRZsaDM2","","","","","","","","","","","","","","","","","","3000","","",""
"html-keyboard-response","5","9873","0.0-2.0-3.0","","null","<div style='margin:auto;width: auto; font-size: 150%'><span style='font-weight: bold; font-size: 100px; color: red;'>0 points!</span><br><br></div>","null","delaylearn","learning","feedback_image_window","63ea497523794756c703094c","qrcJKsvZcpaQH1ykaCI1KRZsaDM2","","","","","","","","","","","","","","","","","","","","",""
"html-keyboard-response","6","12359","0.0-3.0","","null","<div style=""font-size:100px;"">+</div>","null","delaylearn","learning","ITI","63ea497523794756c703094c","qrcJKsvZcpaQH1ykaCI1KRZsaDM2","","","","","","","","","","","","","","","","","","","2484","",""
"html-keyboard-response","7","13154","0.0-4.0-0.0","","792","<div style=""display: flex; flex-direction: column; align-items: center; margin-top: -40px;""><img src=""images/demo_images/pattern_1.png"" style=""width: 234px; height: 230px; margin-top: -50px;""><div style=""display: flex; justify-content: space-between; margin-top: 33px;""><img src=""images/demo_images/choice_trial_2.png"" style=""width: 408px; height: 417px; margin-right: 200px;""><img src=""images/demo_images/choice_trial_1.png"" style=""width: 408px; height: 417px;""></div></div>","j","delaylearn","learning","trial","63ea497523794756c703094c","qrcJKsvZcpaQH1ykaCI1KRZsaDM2","5","images/demo_images/choice_trial_2.png","images/demo_images/choice_trial_1.png","images/demo_images/pattern_1.png","j","j","3000","2","1","20","1","2","1","1","1","10","","","","",""
"html-keyboard-response","8","14156","0.0-4.0-1.0","","null","<div style=""display: flex; flex-direction: column; align-items: center; margin-top: -40px;""><img src=""images/demo_images/pattern_1.png"" style=""width: 234px; height: 230px; margin-top: -50px;""><div style=""display: flex; justify-content: space-between; margin-top: 33px;""><img src=""images/demo_images/choice_trial_1.png"" style=""width: 408px; height: 417px; margin-left:608px;""></div></div>","null","delaylearn","learning","display_response","63ea497523794756c703094c","qrcJKsvZcpaQH1ykaCI1KRZsaDM2","","","","","","","","","","","","","","","","","chosen stimuli: images/demo_images/choice_trial_1.png","","","",""
"html-keyboard-response","9","17159","0.0-4.0-2.0","","null","","null","delaylearn","learning","feedback_duration_window","63ea497523794756c703094c","qrcJKsvZcpaQH1ykaCI1KRZsaDM2","","","","","","","","","","","","","","","","","","3000","","",""
"html-keyboard-response","10","18661","0.0-4.0-3.0","","null","<div style='margin:auto;width: auto; font-size: 150%'><span style='font-weight: bold; font-size: 100px; color: green;'>+10 points!</span><br><br></div>","null","delaylearn","learning","feedback_image_window","63ea497523794756c703094c","qrcJKsvZcpaQH1ykaCI1KRZsaDM2","","","","","","","","","","","","","","","","","","","","",""
"html-keyboard-response","11","20826","0.0-5.0","","null","<div style=""font-size:100px;"">+</div>","null","delaylearn","learning","ITI","63ea497523794756c703094c","qrcJKsvZcpaQH1ykaCI1KRZsaDM2","","","","","","","","","","","","","","","","","","","2164","",""
"html-keyboard-response","12","21423","0.0-6.0-0.0","","595","<div style=""display: flex; flex-direction: column; align-items: center; margin-top: -40px;""><img src=""images/demo_images/pattern_1.png"" style=""width: 234px; height: 230px; margin-top: -50px;""><div style=""display: flex; justify-content: space-between; margin-top: 33px;""><img src=""images/demo_images/choice_trial_1.png"" style=""width: 408px; height: 417px; margin-right: 200px;""><img src=""images/demo_images/choice_trial_2.png"" style=""width: 408px; height: 417px;""></div></div>","f","delaylearn","learning","trial","63ea497523794756c703094c","qrcJKsvZcpaQH1ykaCI1KRZsaDM2","5","images/demo_images/choice_trial_1.png","images/demo_images/choice_trial_2.png","images/demo_images/pattern_1.png","j","f","3000","1","2","20","0","3","1","0","1","10","","","","",""
"html-keyboard-response","13","22425","0.0-6.0-1.0","","null","<div style=""display: flex; flex-direction: column; align-items: center; margin-top: -40px;""><img src=""images/demo_images/pattern_1.png"" style=""width: 234px; height: 230px; margin-top: -50px;""><div style=""display: flex; justify-content: space-between; margin-top: 33px;""><img src=""images/demo_images/choice_trial_1.png"" style=""width: 408px; height: 417px; margin-right: 608px;""></div></div>","null","delaylearn","learning","display_response","63ea497523794756c703094c","qrcJKsvZcpaQH1ykaCI1KRZsaDM2","","","","","","","","","","","","","","","","","chosen stimuli: images/demo_images/choice_trial_1.png","","","",""
"html-keyboard-response","14","25428","0.0-6.0-2.0","","null","","null","delaylearn","learning","feedback_duration_window","63ea497523794756c703094c","qrcJKsvZcpaQH1ykaCI1KRZsaDM2","","","","","","","","","","","","","","","","","","3000","","",""
"html-keyboard-response","15","26930","0.0-6.0-3.0","","null","<div style='margin:auto;width: auto; font-size: 150%'><span style='font-weight: bold; font-size: 100px; color: red;'>0 points!</span><br><br></div>","null","delaylearn","learning","feedback_image_window","63ea497523794756c703094c","qrcJKsvZcpaQH1ykaCI1KRZsaDM2","","","","","","","","","","","","","","","","","","","","",""
"html-keyboard-response","16","29022","0.0-7.0","","null","<div style=""font-size:100px;"">+</div>","null","delaylearn","learning","ITI","63ea497523794756c703094c","qrcJKsvZcpaQH1ykaCI1KRZsaDM2","","","","","","","","","","","","","","","","","","","2089","",""
"html-keyboard-response","17","29742","0.0-8.0-0.0","","715","<div style=""display: flex; flex-direction: column; align-items: center; margin-top: -40px;""><img src=""images/demo_images/pattern_1.png"" style=""width: 234px; height: 230px; margin-top: -50px;""><div style=""display: flex; justify-content: space-between; margin-top: 33px;""><img src=""images/demo_images/choice_trial_1.png"" style=""width: 408px; height: 417px; margin-right: 200px;""><img src=""images/demo_images/choice_trial_2.png"" style=""width: 408px; height: 417px;""></div></div>","j","delaylearn","learning","trial","63ea497523794756c703094c","qrcJKsvZcpaQH1ykaCI1KRZsaDM2","5","images/demo_images/choice_trial_1.png","images/demo_images/choice_trial_2.png","images/demo_images/pattern_1.png","f","f","3000","1","2","20","0","4","0","0","2","10","","","","",""
"html-keyboard-response","18","30745","0.0-8.0-1.0","","null","<div style=""display: flex; flex-direction: column; align-items: center; margin-top: -40px;""><img src=""images/demo_images/pattern_1.png"" style=""width: 234px; height: 230px; margin-top: -50px;""><div style=""display: flex; justify-content: space-between; margin-top: 33px;""><img src=""images/demo_images/choice_trial_2.png"" style=""width: 408px; height: 417px; margin-left:608px;""></div></div>","null","delaylearn","learning","display_response","63ea497523794756c703094c","qrcJKsvZcpaQH1ykaCI1KRZsaDM2","","","","","","","","","","","","","","","","","chosen stimuli: images/demo_images/choice_trial_2.png","","","",""
"html-keyboard-response","19","33748","0.0-8.0-2.0","","null","","null","delaylearn","learning","feedback_duration_window","63ea497523794756c703094c","qrcJKsvZcpaQH1ykaCI1KRZsaDM2","","","","","","","","","","","","","","","","","","3000","","",""
"html-keyboard-response","20","35251","0.0-8.0-3.0","","null","<div style='margin:auto;width: auto; font-size: 150%'><span style='font-weight: bold; font-size: 100px; color: red;'>0 points!</span><br><br></div>","null","delaylearn","learning","feedback_image_window","63ea497523794756c703094c","qrcJKsvZcpaQH1ykaCI1KRZsaDM2","","","","","","","","","","","","","","","","","","","","",""
"html-keyboard-response","21","35754","0.0-9.0-0.0","","null","","null","","","mood_trial_fixation","","","","","","","","","","","","","","","","","","","","","","",""
"lmdlab-html-vas-response","22","39771","0.0-9.0-1.0","","3007","How happy are you right now?","0.34447337962962965","delaylearn","learning","mood_trial","63ea497523794756c703094c","qrcJKsvZcpaQH1ykaCI1KRZsaDM2","","","","","","","","","","","","","","","","","","","","[""Very unhappy"",""Very happy""]",""
"html-keyboard-response","23","41392","0.0-10.0","","null","<div style=""font-size:100px;"">+</div>","null","delaylearn","learning","ITI","63ea497523794756c703094c","qrcJKsvZcpaQH1ykaCI1KRZsaDM2","","","","","","","","","","","","","","","","","","","1620","",""
"html-keyboard-response","24","42328","0.0-11.0-0.0","","933","<div style=""display: flex; flex-direction: column; align-items: center; margin-top: -40px;""><img src=""images/demo_images/pattern_1.png"" style=""width: 234px; height: 230px; margin-top: -50px;""><div style=""display: flex; justify-content: space-between; margin-top: 33px;""><img src=""images/demo_images/choice_trial_2.png"" style=""width: 408px; height: 417px; margin-right: 200px;""><img src=""images/demo_images/choice_trial_1.png"" style=""width: 408px; height: 417px;""></div></div>","f","delaylearn","learning","trial","63ea497523794756c703094c","qrcJKsvZcpaQH1ykaCI1KRZsaDM2","5","images/demo_images/choice_trial_2.png","images/demo_images/choice_trial_1.png","images/demo_images/pattern_1.png","j","j","3000","2","1","20","1","5","0","0","2","10","","","","",""
"html-keyboard-response","25","43331","0.0-11.0-1.0","","null","<div style=""display: flex; flex-direction: column; align-items: center; margin-top: -40px;""><img src=""images/demo_images/pattern_1.png"" style=""width: 234px; height: 230px; margin-top: -50px;""><div style=""display: flex; justify-content: space-between; margin-top: 33px;""><img src=""images/demo_images/choice_trial_2.png"" style=""width: 408px; height: 417px; margin-right: 608px;""></div></div>","null","delaylearn","learning","display_response","63ea497523794756c703094c","qrcJKsvZcpaQH1ykaCI1KRZsaDM2","","","","","","","","","","","","","","","","","chosen stimuli: images/demo_images/choice_trial_2.png","","","",""
"html-keyboard-response","26","46333","0.0-11.0-2.0","","null","","null","delaylearn","learning","feedback_duration_window","63ea497523794756c703094c","qrcJKsvZcpaQH1ykaCI1KRZsaDM2","","","","","","","","","","","","","","","","","","3000","","",""
"html-keyboard-response","27","47836","0.0-11.0-3.0","","null","<div style='margin:auto;width: auto; font-size: 150%'><span style='font-weight: bold; font-size: 100px; color: red;'>0 points!</span><br><br></div>","null","delaylearn","learning","feedback_image_window","63ea497523794756c703094c","qrcJKsvZcpaQH1ykaCI1KRZsaDM2","","","","","","","","","","","","","","","","","","","","",""
"html-keyboard-response","28","49589","0.0-12.0","","null","<div style=""font-size:100px;"">+</div>","null","delaylearn","learning","ITI","63ea497523794756c703094c","qrcJKsvZcpaQH1ykaCI1KRZsaDM2","","","","","","","","","","","","","","","","","","","1750","",""
"html-keyboard-response","29","50212","0.0-13.0-0.0","","621","<div style=""display: flex; flex-direction: column; align-items: center; margin-top: -40px;""><img src=""images/demo_images/pattern_1.png"" style=""width: 234px; height: 230px; margin-top: -50px;""><div style=""display: flex; justify-content: space-between; margin-top: 33px;""><img src=""images/demo_images/choice_trial_1.png"" style=""width: 408px; height: 417px; margin-right: 200px;""><img src=""images/demo_images/choice_trial_2.png"" style=""width: 408px; height: 417px;""></div></div>","f","delaylearn","learning","trial","63ea497523794756c703094c","qrcJKsvZcpaQH1ykaCI1KRZsaDM2","5","images/demo_images/choice_trial_1.png","images/demo_images/choice_trial_2.png","images/demo_images/pattern_1.png","f","f","3000","1","2","20","0","6","1","1","1","20","","","","",""
"html-keyboard-response","30","51216","0.0-13.0-1.0","","null","<div style=""display: flex; flex-direction: column; align-items: center; margin-top: -40px;""><img src=""images/demo_images/pattern_1.png"" style=""width: 234px; height: 230px; margin-top: -50px;""><div style=""display: flex; justify-content: space-between; margin-top: 33px;""><img src=""images/demo_images/choice_trial_1.png"" style=""width: 408px; height: 417px; margin-right: 608px;""></div></div>","null","delaylearn","learning","display_response","63ea497523794756c703094c","qrcJKsvZcpaQH1ykaCI1KRZsaDM2","","","","","","","","","","","","","","","","","chosen stimuli: images/demo_images/choice_trial_1.png","","","",""
"html-keyboard-response","31","54219","0.0-13.0-2.0","","null","","null","delaylearn","learning","feedback_duration_window","63ea497523794756c703094c","qrcJKsvZcpaQH1ykaCI1KRZsaDM2","","","","","","","","","","","","","","","","","","3000","","",""
"html-keyboard-response","32","55721","0.0-13.0-3.0","","null","<div style='margin:auto;width: auto; font-size: 150%'><span style='font-weight: bold; font-size: 100px; color: green;'>+10 points!</span><br><br></div>","null","delaylearn","learning","feedback_image_window","63ea497523794756c703094c","qrcJKsvZcpaQH1ykaCI1KRZsaDM2","","","","","","","","","","","","","","","","","","","","",""
"html-keyboard-response","33","58052","0.0-14.0","","null","<div style=""font-size:100px;"">+</div>","null","delaylearn","learning","ITI","63ea497523794756c703094c","qrcJKsvZcpaQH1ykaCI1KRZsaDM2","","","","","","","","","","","","","","","","","","","2329","",""
"html-keyboard-response","34","58684","0.0-15.0-0.0","","628","<div style=""display: flex; flex-direction: column; align-items: center; margin-top: -40px;""><img src=""images/demo_images/pattern_1.png"" style=""width: 234px; height: 230px; margin-top: -50px;""><div style=""display: flex; justify-content: space-between; margin-top: 33px;""><img src=""images/demo_images/choice_trial_2.png"" style=""width: 408px; height: 417px; margin-right: 200px;""><img src=""images/demo_images/choice_trial_1.png"" style=""width: 408px; height: 417px;""></div></div>","j","delaylearn","learning","trial","63ea497523794756c703094c","qrcJKsvZcpaQH1ykaCI1KRZsaDM2","5","images/demo_images/choice_trial_2.png","images/demo_images/choice_trial_1.png","images/demo_images/pattern_1.png","j","j","3000","2","1","20","1","7","1","1","1","30","","","","",""
"html-keyboard-response","35","59687","0.0-15.0-1.0","","null","<div style=""display: flex; flex-direction: column; align-items: center; margin-top: -40px;""><img src=""images/demo_images/pattern_1.png"" style=""width: 234px; height: 230px; margin-top: -50px;""><div style=""display: flex; justify-content: space-between; margin-top: 33px;""><img src=""images/demo_images/choice_trial_1.png"" style=""width: 408px; height: 417px; margin-left:608px;""></div></div>","null","delaylearn","learning","display_response","63ea497523794756c703094c","qrcJKsvZcpaQH1ykaCI1KRZsaDM2","","","","","","","","","","","","","","","","","chosen stimuli: images/demo_images/choice_trial_1.png","","","",""
"html-keyboard-response","36","62689","0.0-15.0-2.0","","null","","null","delaylearn","learning","feedback_duration_window","63ea497523794756c703094c","qrcJKsvZcpaQH1ykaCI1KRZsaDM2","","","","","","","","","","","","","","","","","","3000","","",""
"html-keyboard-response","37","64191","0.0-15.0-3.0","","null","<div style='margin:auto;width: auto; font-size: 150%'><span style='font-weight: bold; font-size: 100px; color: green;'>+10 points!</span><br><br></div>","null","delaylearn","learning","feedback_image_window","63ea497523794756c703094c","qrcJKsvZcpaQH1ykaCI1KRZsaDM2","","","","","","","","","","","","","","","","","","","","",""
"html-keyboard-response","38","65827","0.0-16.0","","null","<div style=""font-size:100px;"">+</div>","null","delaylearn","learning","ITI","63ea497523794756c703094c","qrcJKsvZcpaQH1ykaCI1KRZsaDM2","","","","","","","","","","","","","","","","","","","1634","",""
"html-keyboard-response","39","66411","0.0-17.0-0.0","","580.0000000000291","<div style=""display: flex; flex-direction: column; align-items: center; margin-top: -40px;""><img src=""images/demo_images/pattern_1.png"" style=""width: 234px; height: 230px; margin-top: -50px;""><div style=""display: flex; justify-content: space-between; margin-top: 33px;""><img src=""images/demo_images/choice_trial_1.png"" style=""width: 408px; height: 417px; margin-right: 200px;""><img src=""images/demo_images/choice_trial_2.png"" style=""width: 408px; height: 417px;""></div></div>","f","delaylearn","learning","trial","63ea497523794756c703094c","qrcJKsvZcpaQH1ykaCI1KRZsaDM2","5","images/demo_images/choice_trial_1.png","images/demo_images/choice_trial_2.png","images/demo_images/pattern_1.png","f","f","3000","1","2","20","0","8","1","1","1","40","","","","",""
"html-keyboard-response","40","67414","0.0-17.0-1.0","","null","<div style=""display: flex; flex-direction: column; align-items: center; margin-top: -40px;""><img src=""images/demo_images/pattern_1.png"" style=""width: 234px; height: 230px; margin-top: -50px;""><div style=""display: flex; justify-content: space-between; margin-top: 33px;""><img src=""images/demo_images/choice_trial_1.png"" style=""width: 408px; height: 417px; margin-right: 608px;""></div></div>","null","delaylearn","learning","display_response","63ea497523794756c703094c","qrcJKsvZcpaQH1ykaCI1KRZsaDM2","","","","","","","","","","","","","","","","","chosen stimuli: images/demo_images/choice_trial_1.png","","","",""
"html-keyboard-response","41","70416","0.0-17.0-2.0","","null","","null","delaylearn","learning","feedback_duration_window","63ea497523794756c703094c","qrcJKsvZcpaQH1ykaCI1KRZsaDM2","","","","","","","","","","","","","","","","","","3000","","",""
"html-keyboard-response","42","71919","0.0-17.0-3.0","","null","<div style='margin:auto;width: auto; font-size: 150%'><span style='font-weight: bold; font-size: 100px; color: green;'>+10 points!</span><br><br></div>","null","delaylearn","learning","feedback_image_window","63ea497523794756c703094c","qrcJKsvZcpaQH1ykaCI1KRZsaDM2","","","","","","","","","","","","","","","","","","","","",""
"html-button-response","43","75392","0.0-18.0","","3470.999999999971","
  <div style=""display: flex; align-items: center; justify-content: center; height: 80vh;"">
  <div>
          <img src=""images/inst_demo_finish.png"" style=""width: 80vw; height:auto;"">
          <br><br>
      </div>
      <br><br>
  </div>","0","","","","","","","","","","","","","","","","","","","","","","","","","",""
"html-keyboard-response","44","80708","0.0-19.0","","5314.999999999971","
  <div style=""display: flex; align-items: center; justify-content: center; height: 80vh;"">
  <div>
          <img src=""images/inst_6.png"" style=""width: 80vw; height:auto;"">
          <br><br>
      </div>
      <br><br>
  </div>","f","","","","","","","","","","","","","","","","","","","","","","","","","",""
"html-keyboard-response","45","83710","0.0-20.0","","null","<div style=""font-size:100px;"">+</div>","null","delaylearn","learning","pre_fixation","63ea497523794756c703094c","","","","","","","","","","","","","","","","","","","","","",""
"html-keyboard-response","46","86007","0.0-21.0","","null","<div style=""font-size:100px;"">+</div>","null","delaylearn","learning","ITI","63ea497523794756c703094c","qrcJKsvZcpaQH1ykaCI1KRZsaDM2","","","","","","","","","","","","","","","","","","","2293","",""
"html-keyboard-response","47","86770","0.0-22.0-0.0","","761","<div style=""display: flex; flex-direction: column; align-items: center; margin-top: -40px;""><img src=""images/pattern_3.png"" style=""width: 234px; height: 230px; margin-top: -50px;""><div style=""display: flex; justify-content: space-between; margin-top: 33px;""><img src=""images/choice_trial_16.png"" style=""width: 408px; height: 417px; margin-right: 200px;""><img src=""images/choice_trial_2.png"" style=""width: 408px; height: 417px;""></div></div>","j","delaylearn","learning","trial","63ea497523794756c703094c","qrcJKsvZcpaQH1ykaCI1KRZsaDM2","5","images/choice_trial_16.png","images/choice_trial_2.png","images/pattern_3.png","f","f","7000","16","2","2","0","9","0","0","2","40","","","","",""
"html-keyboard-response","48","87773","0.0-22.0-1.0","","null","<div style=""display: flex; flex-direction: column; align-items: center; margin-top: -40px;""><img src=""images/pattern_3.png"" style=""width: 234px; height: 230px; margin-top: -50px;""><div style=""display: flex; justify-content: space-between; margin-top: 33px;""><img src=""images/choice_trial_2.png"" style=""width: 408px; height: 417px; margin-left:608px;""></div></div>","null","delaylearn","learning","display_response","63ea497523794756c703094c","qrcJKsvZcpaQH1ykaCI1KRZsaDM2","","","","","","","","","","","","","","","","","chosen stimuli: images/choice_trial_2.png","","","",""
"html-keyboard-response","49","94776","0.0-22.0-2.0","","null","","null","delaylearn","learning","feedback_duration_window","63ea497523794756c703094c","qrcJKsvZcpaQH1ykaCI1KRZsaDM2","","","","","","","","","","","","","","","","","","7000","","",""
"html-keyboard-response","50","96279","0.0-22.0-3.0","","null","<div style='margin:auto;width: auto; font-size: 150%'><span style='font-weight: bold; font-size: 100px; color: red;'>0 points!</span><br><br></div>","null","delaylearn","learning","feedback_image_window","63ea497523794756c703094c","qrcJKsvZcpaQH1ykaCI1KRZsaDM2","","","","","","","","","","","","","","","","","","","","",""
"html-keyboard-response","51","98445","0.0-23.0","","null","<div style=""font-size:100px;"">+</div>","null","delaylearn","learning","ITI","63ea497523794756c703094c","qrcJKsvZcpaQH1ykaCI1KRZsaDM2","","","","","","","","","","","","","","","","","","","2162","",""
"html-keyboard-response","52","99219","0.0-24.0-0.0","","770","<div style=""display: flex; flex-direction: column; align-items: center; margin-top: -40px;""><img src=""images/pattern_7.png"" style=""width: 234px; height: 230px; margin-top: -50px;""><div style=""display: flex; justify-content: space-between; margin-top: 33px;""><img src=""images/choice_trial_10.png"" style=""width: 408px; height: 417px; margin-right: 200px;""><img src=""images/choice_trial_8.png"" style=""width: 408px; height: 417px;""></div></div>","f","delaylearn","learning","trial","63ea497523794756c703094c","qrcJKsvZcpaQH1ykaCI1KRZsaDM2","5","images/choice_trial_10.png","images/choice_trial_8.png","images/pattern_7.png","j","j","750","10","8","6","1","10","0","0","10","40","","","","",""
"html-keyboard-response","53","100222","0.0-24.0-1.0","","null","<div style=""display: flex; flex-direction: column; align-items: center; margin-top: -40px;""><img src=""images/pattern_7.png"" style=""width: 234px; height: 230px; margin-top: -50px;""><div style=""display: flex; justify-content: space-between; margin-top: 33px;""><img src=""images/choice_trial_10.png"" style=""width: 408px; height: 417px; margin-right: 608px;""></div></div>","null","delaylearn","learning","display_response","63ea497523794756c703094c","qrcJKsvZcpaQH1ykaCI1KRZsaDM2","","","","","","","","","","","","","","","","","chosen stimuli: images/choice_trial_10.png","","","",""
"html-keyboard-response","54","100975","0.0-24.0-2.0","","null","","null","delaylearn","learning","feedback_duration_window","63ea497523794756c703094c","qrcJKsvZcpaQH1ykaCI1KRZsaDM2","","","","","","","","","","","","","","","","","","750","","",""
"html-keyboard-response","55","102483","0.0-24.0-3.0","","null","<div style='margin:auto;width: auto; font-size: 150%'><span style='font-weight: bold; font-size: 100px; color: red;'>0 points!</span><br><br></div>","null","delaylearn","learning","feedback_image_window","63ea497523794756c703094c","qrcJKsvZcpaQH1ykaCI1KRZsaDM2","","","","","","","","","","","","","","","","","","","","",""
"html-keyboard-response","56","104092","0.0-25.0","","null","<div style=""font-size:100px;"">+</div>","null","delaylearn","learning","ITI","63ea497523794756c703094c","qrcJKsvZcpaQH1ykaCI1KRZsaDM2","","","","","","","","","","","","","","","","","","","1605","",""
"html-keyboard-response","57","104858","0.0-26.0-0.0","","763","<div style=""display: flex; flex-direction: column; align-items: center; margin-top: -40px;""><img src=""images/pattern_4.png"" style=""width: 234px; height: 230px; margin-top: -50px;""><div style=""display: flex; justify-content: space-between; margin-top: 33px;""><img src=""images/choice_trial_11.png"" style=""width: 408px; height: 417px; margin-right: 200px;""><img src=""images/choice_trial_4.png"" style=""width: 408px; height: 417px;""></div></div>","j","delaylearn","learning","trial","63ea497523794756c703094c","qrcJKsvZcpaQH1ykaCI1KRZsaDM2","5","images/choice_trial_11.png","images/choice_trial_4.png","images/pattern_4.png","f","f","7000","11","4","3","0","11","0","0","4","40","","","","",""
"html-keyboard-response","58","105863","0.0-26.0-1.0","","null","<div style=""display: flex; flex-direction: column; align-items: center; margin-top: -40px;""><img src=""images/pattern_4.png"" style=""width: 234px; height: 230px; margin-top: -50px;""><div style=""display: flex; justify-content: space-between; margin-top: 33px;""><img src=""images/choice_trial_4.png"" style=""width: 408px; height: 417px; margin-left:608px;""></div></div>","null","delaylearn","learning","display_response","63ea497523794756c703094c","qrcJKsvZcpaQH1ykaCI1KRZsaDM2","","","","","","","","","","","","","","","","","chosen stimuli: images/choice_trial_4.png","","","",""
"html-keyboard-response","59","112868","0.0-26.0-2.0","","null","","null","delaylearn","learning","feedback_duration_window","63ea497523794756c703094c","qrcJKsvZcpaQH1ykaCI1KRZsaDM2","","","","","","","","","","","","","","","","","","7000","","",""
"html-keyboard-response","60","114371","0.0-26.0-3.0","","null","<div style='margin:auto;width: auto; font-size: 150%'><span style='font-weight: bold; font-size: 100px; color: red;'>0 points!</span><br><br></div>","null","delaylearn","learning","feedback_image_window","63ea497523794756c703094c","qrcJKsvZcpaQH1ykaCI1KRZsaDM2","","","","","","","","","","","","","","","","","","","","",""
"html-keyboard-response","61","116540","0.0-27.0","","null","<div style=""font-size:100px;"">+</div>","null","delaylearn","learning","ITI","63ea497523794756c703094c","qrcJKsvZcpaQH1ykaCI1KRZsaDM2","","","","","","","","","","","","","","","","","","","2166","",""
"html-keyboard-response","62","117179","0.0-28.0-0.0","","635","<div style=""display: flex; flex-direction: column; align-items: center; margin-top: -40px;""><img src=""images/pattern_5.png"" style=""width: 234px; height: 230px; margin-top: -50px;""><div style=""display: flex; justify-content: space-between; margin-top: 33px;""><img src=""images/choice_trial_13.png"" style=""width: 408px; height: 417px; margin-right: 200px;""><img src=""images/choice_trial_7.png"" style=""width: 408px; height: 417px;""></div></div>","f","delaylearn","learning","trial","63ea497523794756c703094c","qrcJKsvZcpaQH1ykaCI1KRZsaDM2","5","images/choice_trial_13.png","images/choice_trial_7.png","images/pattern_5.png","j","j","750","13","7","4","1","12","0","0","13","40","","","","",""
"html-keyboard-response","63","118182","0.0-28.0-1.0","","null","<div style=""display: flex; flex-direction: column; align-items: center; margin-top: -40px;""><img src=""images/pattern_5.png"" style=""width: 234px; height: 230px; margin-top: -50px;""><div style=""display: flex; justify-content: space-between; margin-top: 33px;""><img src=""images/choice_trial_13.png"" style=""width: 408px; height: 417px; margin-right: 608px;""></div></div>","null","delaylearn","learning","display_response","63ea497523794756c703094c","qrcJKsvZcpaQH1ykaCI1KRZsaDM2","","","","","","","","","","","","","","","","","chosen stimuli: images/choice_trial_13.png","","","",""
"html-keyboard-response","64","118934","0.0-28.0-2.0","","null","","null","delaylearn","learning","feedback_duration_window","63ea497523794756c703094c","qrcJKsvZcpaQH1ykaCI1KRZsaDM2","","","","","","","","","","","","","","","","","","750","","",""
"html-keyboard-response","65","120437","0.0-28.0-3.0","","null","<div style='margin:auto;width: auto; font-size: 150%'><span style='font-weight: bold; font-size: 100px; color: red;'>0 points!</span><br><br></div>","null","delaylearn","learning","feedback_image_window","63ea497523794756c703094c","qrcJKsvZcpaQH1ykaCI1KRZsaDM2","","","","","","","","","","","","","","","","","","","","",""
"html-keyboard-response","66","122845","0.0-29.0","","null","<div style=""font-size:100px;"">+</div>","null","delaylearn","learning","ITI","63ea497523794756c703094c","qrcJKsvZcpaQH1ykaCI1KRZsaDM2","","","","","","","","","","","","","","","","","","","2406","",""
"html-keyboard-response","67","123566","0.0-30.0-0.0","","718","<div style=""display: flex; flex-direction: column; align-items: center; margin-top: -40px;""><img src=""images/pattern_6.png"" style=""width: 234px; height: 230px; margin-top: -50px;""><div style=""display: flex; justify-content: space-between; margin-top: 33px;""><img src=""images/choice_trial_14.png"" style=""width: 408px; height: 417px; margin-right: 200px;""><img src=""images/choice_trial_9.png"" style=""width: 408px; height: 417px;""></div></div>","f","delaylearn","learning","trial","63ea497523794756c703094c","qrcJKsvZcpaQH1ykaCI1KRZsaDM2","5","images/choice_trial_14.png","images/choice_trial_9.png","images/pattern_6.png","j","f","750","14","9","5","0","13","1","0","14","40","","","","",""
"html-keyboard-response","68","124569","0.0-30.0-1.0","","null","<div style=""display: flex; flex-direction: column; align-items: center; margin-top: -40px;""><img src=""images/pattern_6.png"" style=""width: 234px; height: 230px; margin-top: -50px;""><div style=""display: flex; justify-content: space-between; margin-top: 33px;""><img src=""images/choice_trial_14.png"" style=""width: 408px; height: 417px; margin-right: 608px;""></div></div>","null","delaylearn","learning","display_response","63ea497523794756c703094c","qrcJKsvZcpaQH1ykaCI1KRZsaDM2","","","","","","","","","","","","","","","","","chosen stimuli: images/choice_trial_14.png","","","",""
"html-keyboard-response","69","125322","0.0-30.0-2.0","","null","","null","delaylearn","learning","feedback_duration_window","63ea497523794756c703094c","qrcJKsvZcpaQH1ykaCI1KRZsaDM2","","","","","","","","","","","","","","","","","","750","","",""
"html-keyboard-response","70","126824","0.0-30.0-3.0","","null","<div style='margin:auto;width: auto; font-size: 150%'><span style='font-weight: bold; font-size: 100px; color: red;'>0 points!</span><br><br></div>","null","delaylearn","learning","feedback_image_window","63ea497523794756c703094c","qrcJKsvZcpaQH1ykaCI1KRZsaDM2","","","","","","","","","","","","","","","","","","","","",""
"html-keyboard-response","71","127326","0.0-31.0-0.0","","null","","null","","","mood_trial_fixation","","","","","","","","","","","","","","","","","","","","","","",""
"lmdlab-html-vas-response","72","131115","0.0-31.0-1.0","","2782","How happy are you right now?","0.26299189814814816","delaylearn","learning","mood_trial","63ea497523794756c703094c","qrcJKsvZcpaQH1ykaCI1KRZsaDM2","","","","","","","","","","","","","","","","","","","","[""Very unhappy"",""Very happy""]",""
"html-keyboard-response","73","132750","0.0-32.0","","null","<div style=""font-size:100px;"">+</div>","null","delaylearn","learning","ITI","63ea497523794756c703094c","qrcJKsvZcpaQH1ykaCI1KRZsaDM2","","","","","","","","","","","","","","","","","","","1633","",""
"html-keyboard-response","74","133374","0.0-33.0-0.0","","620","<div style=""display: flex; flex-direction: column; align-items: center; margin-top: -40px;""><img src=""images/pattern_1.png"" style=""width: 234px; height: 230px; margin-top: -50px;""><div style=""display: flex; justify-content: space-between; margin-top: 33px;""><img src=""images/choice_trial_15.png"" style=""width: 408px; height: 417px; margin-right: 200px;""><img src=""images/choice_trial_6.png"" style=""width: 408px; height: 417px;""></div></div>","j","delaylearn","learning","trial","63ea497523794756c703094c","qrcJKsvZcpaQH1ykaCI1KRZsaDM2","5","images/choice_trial_15.png","images/choice_trial_6.png","images/pattern_1.png","j","j","7000","15","6","1","1","14","1","1","6","50","","","","",""
"html-keyboard-response","75","134377","0.0-33.0-1.0","","null","<div style=""display: flex; flex-direction: column; align-items: center; margin-top: -40px;""><img src=""images/pattern_1.png"" style=""width: 234px; height: 230px; margin-top: -50px;""><div style=""display: flex; justify-content: space-between; margin-top: 33px;""><img src=""images/choice_trial_6.png"" style=""width: 408px; height: 417px; margin-left:608px;""></div></div>","null","delaylearn","learning","display_response","63ea497523794756c703094c","qrcJKsvZcpaQH1ykaCI1KRZsaDM2","","","","","","","","","","","","","","","","","chosen stimuli: images/choice_trial_6.png","","","",""
"html-keyboard-response","76","141379","0.0-33.0-2.0","","null","","null","delaylearn","learning","feedback_duration_window","63ea497523794756c703094c","qrcJKsvZcpaQH1ykaCI1KRZsaDM2","","","","","","","","","","","","","","","","","","7000","","",""
"html-keyboard-response","77","142882","0.0-33.0-3.0","","null","<div style='margin:auto;width: auto; font-size: 150%'><span style='font-weight: bold; font-size: 100px; color: green;'>+10 points!</span><br><br></div>","null","delaylearn","learning","feedback_image_window","63ea497523794756c703094c","qrcJKsvZcpaQH1ykaCI1KRZsaDM2","","","","","","","","","","","","","","","","","","","","",""
"html-keyboard-response","78","144469","0.0-34.0","","null","<div style=""font-size:100px;"">+</div>","null","delaylearn","learning","ITI","63ea497523794756c703094c","qrcJKsvZcpaQH1ykaCI1KRZsaDM2","","","","","","","","","","","","","","","","","","","1585","",""
"html-keyboard-response","79","145229","0.0-35.0-0.0","","757","<div style=""display: flex; flex-direction: column; align-items: center; margin-top: -40px;""><img src=""images/pattern_3.png"" style=""width: 234px; height: 230px; margin-top: -50px;""><div style=""display: flex; justify-content: space-between; margin-top: 33px;""><img src=""images/choice_trial_2.png"" style=""width: 408px; height: 417px; margin-right: 200px;""><img src=""images/choice_trial_16.png"" style=""width: 408px; height: 417px;""></div></div>","f","delaylearn","learning","trial","63ea497523794756c703094c","qrcJKsvZcpaQH1ykaCI1KRZsaDM2","5","images/choice_trial_2.png","images/choice_trial_16.png","images/pattern_3.png","f","j","7000","2","16","2","1","15","0","1","2","60","","","","",""
"html-keyboard-response","80","146232","0.0-35.0-1.0","","null","<div style=""display: flex; flex-direction: column; align-items: center; margin-top: -40px;""><img src=""images/pattern_3.png"" style=""width: 234px; height: 230px; margin-top: -50px;""><div style=""display: flex; justify-content: space-between; margin-top: 33px;""><img src=""images/choice_trial_2.png"" style=""width: 408px; height: 417px; margin-right: 608px;""></div></div>","null","delaylearn","learning","display_response","63ea497523794756c703094c","qrcJKsvZcpaQH1ykaCI1KRZsaDM2","","","","","","","","","","","","","","","","","chosen stimuli: images/choice_trial_2.png","","","",""
"html-keyboard-response","81","153236","0.0-35.0-2.0","","null","","null","delaylearn","learning","feedback_duration_window","63ea497523794756c703094c","qrcJKsvZcpaQH1ykaCI1KRZsaDM2","","","","","","","","","","","","","","","","","","7000","","",""
"html-keyboard-response","82","154738","0.0-35.0-3.0","","null","<div style='margin:auto;width: auto; font-size: 150%'><span style='font-weight: bold; font-size: 100px; color: green;'>+10 points!</span><br><br></div>","null","delaylearn","learning","feedback_image_window","63ea497523794756c703094c","qrcJKsvZcpaQH1ykaCI1KRZsaDM2","","","","","","","","","","","","","","","","","","","","",""
"html-keyboard-response","83","156325","0.0-36.0","","null","<div style=""font-size:100px;"">+</div>","null","delaylearn","learning","ITI","63ea497523794756c703094c","qrcJKsvZcpaQH1ykaCI1KRZsaDM2","","","","","","","","","","","","","","","","","","","1584","",""
"html-keyboard-response","84","157063","0.0-37.0-0.0","","735","<div style=""display: flex; flex-direction: column; align-items: center; margin-top: -40px;""><img src=""images/pattern_5.png"" style=""width: 234px; height: 230px; margin-top: -50px;""><div style=""display: flex; justify-content: space-between; margin-top: 33px;""><img src=""images/choice_trial_7.png"" style=""width: 408px; height: 417px; margin-right: 200px;""><img src=""images/choice_trial_13.png"" style=""width: 408px; height: 417px;""></div></div>","j","delaylearn","learning","trial","63ea497523794756c703094c","qrcJKsvZcpaQH1ykaCI1KRZsaDM2","5","images/choice_trial_7.png","images/choice_trial_13.png","images/pattern_5.png","f","f","750","7","13","4","0","16","0","0","13","60","","","","",""
"html-keyboard-response","85","158066","0.0-37.0-1.0","","null","<div style=""display: flex; flex-direction: column; align-items: center; margin-top: -40px;""><img src=""images/pattern_5.png"" style=""width: 234px; height: 230px; margin-top: -50px;""><div style=""display: flex; justify-content: space-between; margin-top: 33px;""><img src=""images/choice_trial_13.png"" style=""width: 408px; height: 417px; margin-left:608px;""></div></div>","null","delaylearn","learning","display_response","63ea497523794756c703094c","qrcJKsvZcpaQH1ykaCI1KRZsaDM2","","","","","","","","","","","","","","","","","chosen stimuli: images/choice_trial_13.png","","","",""
"html-keyboard-response","86","158818","0.0-37.0-2.0","","null","","null","delaylearn","learning","feedback_duration_window","63ea497523794756c703094c","qrcJKsvZcpaQH1ykaCI1KRZsaDM2","","","","","","","","","","","","","","","","","","750","","",""
"html-keyboard-response","87","160321","0.0-37.0-3.0","","null","<div style='margin:auto;width: auto; font-size: 150%'><span style='font-weight: bold; font-size: 100px; color: red;'>0 points!</span><br><br></div>","null","delaylearn","learning","feedback_image_window","63ea497523794756c703094c","qrcJKsvZcpaQH1ykaCI1KRZsaDM2","","","","","","","","","","","","","","","","","","","","",""
"html-keyboard-response","88","160823","0.0-38.0-0.0","","null","","null","","","mood_trial_fixation","","","","","","","","","","","","","","","","","","","","","","",""
"lmdlab-html-vas-response","89","164787","0.0-38.0-1.0","","2958","How happy are you right now?","0.38891782407407405","delaylearn","learning","mood_trial","63ea497523794756c703094c","qrcJKsvZcpaQH1ykaCI1KRZsaDM2","","","","","","","","","","","","","","","","","","","","[""Very unhappy"",""Very happy""]",""
"html-keyboard-response","90","166907","0.0-39.0","","null","<div style=""font-size:100px;"">+</div>","null","delaylearn","learning","ITI","63ea497523794756c703094c","qrcJKsvZcpaQH1ykaCI1KRZsaDM2","","","","","","","","","","","","","","","","","","","2118","",""
"html-keyboard-response","91","167382","0.0-40.0-0.0","","472","<div style=""display: flex; flex-direction: column; align-items: center; margin-top: -40px;""><img src=""images/pattern_6.png"" style=""width: 234px; height: 230px; margin-top: -50px;""><div style=""display: flex; justify-content: space-between; margin-top: 33px;""><img src=""images/choice_trial_14.png"" style=""width: 408px; height: 417px; margin-right: 200px;""><img src=""images/choice_trial_9.png"" style=""width: 408px; height: 417px;""></div></div>","f","delaylearn","learning","trial","63ea497523794756c703094c","qrcJKsvZcpaQH1ykaCI1KRZsaDM2","5","images/choice_trial_14.png","images/choice_trial_9.png","images/pattern_6.png","f","f","750","14","9","5","0","17","1","1","14","70","","","","",""
"html-keyboard-response","92","168387","0.0-40.0-1.0","","null","<div style=""display: flex; flex-direction: column; align-items: center; margin-top: -40px;""><img src=""images/pattern_6.png"" style=""width: 234px; height: 230px; margin-top: -50px;""><div style=""display: flex; justify-content: space-between; margin-top: 33px;""><img src=""images/choice_trial_14.png"" style=""width: 408px; height: 417px; margin-right: 608px;""></div></div>","null","delaylearn","learning","display_response","63ea497523794756c703094c","qrcJKsvZcpaQH1ykaCI1KRZsaDM2","","","","","","","","","","","","","","","","","chosen stimuli: images/choice_trial_14.png","","","",""
"html-keyboard-response","93","169139","0.0-40.0-2.0","","null","","null","delaylearn","learning","feedback_duration_window","63ea497523794756c703094c","qrcJKsvZcpaQH1ykaCI1KRZsaDM2","","","","","","","","","","","","","","","","","","750","","",""
"html-keyboard-response","94","170642","0.0-40.0-3.0","","null","<div style='margin:auto;width: auto; font-size: 150%'><span style='font-weight: bold; font-size: 100px; color: green;'>+10 points!</span><br><br></div>","null","delaylearn","learning","feedback_image_window","63ea497523794756c703094c","qrcJKsvZcpaQH1ykaCI1KRZsaDM2","","","","","","","","","","","","","","","","","","","","",""
"html-keyboard-response","95","172640","0.0-41.0","","null","<div style=""font-size:100px;"">+</div>","null","delaylearn","learning","ITI","63ea497523794756c703094c","qrcJKsvZcpaQH1ykaCI1KRZsaDM2","","","","","","","","","","","","","","","","","","","1996","",""
"html-keyboard-response","96","173595","0.0-42.0-0.0","","952","<div style=""display: flex; flex-direction: column; align-items: center; margin-top: -40px;""><img src=""images/pattern_4.png"" style=""width: 234px; height: 230px; margin-top: -50px;""><div style=""display: flex; justify-content: space-between; margin-top: 33px;""><img src=""images/choice_trial_4.png"" style=""width: 408px; height: 417px; margin-right: 200px;""><img src=""images/choice_trial_11.png"" style=""width: 408px; height: 417px;""></div></div>","f","delaylearn","learning","trial","63ea497523794756c703094c","qrcJKsvZcpaQH1ykaCI1KRZsaDM2","5","images/choice_trial_4.png","images/choice_trial_11.png","images/pattern_4.png","j","j","7000","4","11","3","1","18","0","0","4","70","","","","",""
"html-keyboard-response","97","174598","0.0-42.0-1.0","","null","<div style=""display: flex; flex-direction: column; align-items: center; margin-top: -40px;""><img src=""images/pattern_4.png"" style=""width: 234px; height: 230px; margin-top: -50px;""><div style=""display: flex; justify-content: space-between; margin-top: 33px;""><img src=""images/choice_trial_4.png"" style=""width: 408px; height: 417px; margin-right: 608px;""></div></div>","null","delaylearn","learning","display_response","63ea497523794756c703094c","qrcJKsvZcpaQH1ykaCI1KRZsaDM2","","","","","","","","","","","","","","","","","chosen stimuli: images/choice_trial_4.png","","","",""
"html-keyboard-response","98","181599","0.0-42.0-2.0","","null","","null","delaylearn","learning","feedback_duration_window","63ea497523794756c703094c","qrcJKsvZcpaQH1ykaCI1KRZsaDM2","","","","","","","","","","","","","","","","","","7000","","",""
"html-keyboard-response","99","183106","0.0-42.0-3.0","","null","<div style='margin:auto;width: auto; font-size: 150%'><span style='font-weight: bold; font-size: 100px; color: red;'>0 points!</span><br><br></div>","null","delaylearn","learning","feedback_image_window","63ea497523794756c703094c","qrcJKsvZcpaQH1ykaCI1KRZsaDM2","","","","","","","","","","","","","","","","","","","","",""
"html-keyboard-response","100","184634","0.0-43.0","","null","<div style=""font-size:100px;"">+</div>","null","delaylearn","learning","ITI","63ea497523794756c703094c","qrcJKsvZcpaQH1ykaCI1KRZsaDM2","","","","","","","","","","","","","","","","","","","1525","",""
"html-keyboard-response","101","185178","0.0-44.0-0.0","","541","<div style=""display: flex; flex-direction: column; align-items: center; margin-top: -40px;""><img src=""images/pattern_7.png"" style=""width: 234px; height: 230px; margin-top: -50px;""><div style=""display: flex; justify-content: space-between; margin-top: 33px;""><img src=""images/choice_trial_8.png"" style=""width: 408px; height: 417px; margin-right: 200px;""><img src=""images/choice_trial_10.png"" style=""width: 408px; height: 417px;""></div></div>","j","delaylearn","learning","trial","63ea497523794756c703094c","qrcJKsvZcpaQH1ykaCI1KRZsaDM2","5","images/choice_trial_8.png","images/choice_trial_10.png","images/pattern_7.png","j","f","750","8","10","6","0","19","0","1","10","80","","","","",""
"html-keyboard-response","102","186181","0.0-44.0-1.0","","null","<div style=""display: flex; flex-direction: column; align-items: center; margin-top: -40px;""><img src=""images/pattern_7.png"" style=""width: 234px; height: 230px; margin-top: -50px;""><div style=""display: flex; justify-content: space-between; margin-top: 33px;""><img src=""images/choice_trial_10.png"" style=""width: 408px; height: 417px; margin-left:608px;""></div></div>","null","delaylearn","learning","display_response","63ea497523794756c703094c","qrcJKsvZcpaQH1ykaCI1KRZsaDM2","","","","","","","","","","","","","","","","","chosen stimuli: images/choice_trial_10.png","","","",""
"html-keyboard-response","103","186932","0.0-44.0-2.0","","null","","null","delaylearn","learning","feedback_duration_window","63ea497523794756c703094c","qrcJKsvZcpaQH1ykaCI1KRZsaDM2","","","","","","","","","","","","","","","","","","750","","",""
"html-keyboard-response","104","188435","0.0-44.0-3.0","","null","<div style='margin:auto;width: auto; font-size: 150%'><span style='font-weight: bold; font-size: 100px; color: green;'>+10 points!</span><br><br></div>","null","delaylearn","learning","feedback_image_window","63ea497523794756c703094c","qrcJKsvZcpaQH1ykaCI1KRZsaDM2","","","","","","","","","","","","","","","","","","","","",""
"html-keyboard-response","105","190147","0.0-45.0","","null","<div style=""font-size:100px;"">+</div>","null","delaylearn","learning","ITI","63ea497523794756c703094c","qrcJKsvZcpaQH1ykaCI1KRZsaDM2","","","","","","","","","","","","","","","","","","","1710","",""
"html-keyboard-response","106","191112","0.0-46.0-0.0","","961","<div style=""display: flex; flex-direction: column; align-items: center; margin-top: -40px;""><img src=""images/pattern_1.png"" style=""width: 234px; height: 230px; margin-top: -50px;""><div style=""display: flex; justify-content: space-between; margin-top: 33px;""><img src=""images/choice_trial_6.png"" style=""width: 408px; height: 417px; margin-right: 200px;""><img src=""images/choice_trial_15.png"" style=""width: 408px; height: 417px;""></div></div>","f","delaylearn","learning","trial","63ea497523794756c703094c","qrcJKsvZcpaQH1ykaCI1KRZsaDM2","5","images/choice_trial_6.png","images/choice_trial_15.png","images/pattern_1.png","f","f","7000","6","15","1","0","20","1","1","6","90","","","","",""
"html-keyboard-response","107","192115","0.0-46.0-1.0","","null","<div style=""display: flex; flex-direction: column; align-items: center; margin-top: -40px;""><img src=""images/pattern_1.png"" style=""width: 234px; height: 230px; margin-top: -50px;""><div style=""display: flex; justify-content: space-between; margin-top: 33px;""><img src=""images/choice_trial_6.png"" style=""width: 408px; height: 417px; margin-right: 608px;""></div></div>","null","delaylearn","learning","display_response","63ea497523794756c703094c","qrcJKsvZcpaQH1ykaCI1KRZsaDM2","","","","","","","","","","","","","","","","","chosen stimuli: images/choice_trial_6.png","","","",""
"html-keyboard-response","108","199118","0.0-46.0-2.0","","null","","null","delaylearn","learning","feedback_duration_window","63ea497523794756c703094c","qrcJKsvZcpaQH1ykaCI1KRZsaDM2","","","","","","","","","","","","","","","","","","7000","","",""
"html-keyboard-response","109","200621","0.0-46.0-3.0","","null","<div style='margin:auto;width: auto; font-size: 150%'><span style='font-weight: bold; font-size: 100px; color: green;'>+10 points!</span><br><br></div>","null","delaylearn","learning","feedback_image_window","63ea497523794756c703094c","qrcJKsvZcpaQH1ykaCI1KRZsaDM2","","","","","","","","","","","","","","","","","","","","",""
"html-keyboard-response","110","202244","0.0-47.0","","null","<div style=""font-size:100px;"">+</div>","null","delaylearn","learning","ITI","63ea497523794756c703094c","qrcJKsvZcpaQH1ykaCI1KRZsaDM2","","","","","","","","","","","","","","","","","","","1620","",""
"html-keyboard-response","111","202972","0.0-48.0-0.0","","726","<div style=""display: flex; flex-direction: column; align-items: center; margin-top: -40px;""><img src=""images/pattern_6.png"" style=""width: 234px; height: 230px; margin-top: -50px;""><div style=""display: flex; justify-content: space-between; margin-top: 33px;""><img src=""images/choice_trial_9.png"" style=""width: 408px; height: 417px; margin-right: 200px;""><img src=""images/choice_trial_14.png"" style=""width: 408px; height: 417px;""></div></div>","j","delaylearn","learning","trial","63ea497523794756c703094c","qrcJKsvZcpaQH1ykaCI1KRZsaDM2","5","images/choice_trial_9.png","images/choice_trial_14.png","images/pattern_6.png","j","j","750","9","14","5","1","21","1","1","14","100","","","","",""
"html-keyboard-response","112","203975","0.0-48.0-1.0","","null","<div style=""display: flex; flex-direction: column; align-items: center; margin-top: -40px;""><img src=""images/pattern_6.png"" style=""width: 234px; height: 230px; margin-top: -50px;""><div style=""display: flex; justify-content: space-between; margin-top: 33px;""><img src=""images/choice_trial_14.png"" style=""width: 408px; height: 417px; margin-left:608px;""></div></div>","null","delaylearn","learning","display_response","63ea497523794756c703094c","qrcJKsvZcpaQH1ykaCI1KRZsaDM2","","","","","","","","","","","","","","","","","chosen stimuli: images/choice_trial_14.png","","","",""
"html-keyboard-response","113","204728","0.0-48.0-2.0","","null","","null","delaylearn","learning","feedback_duration_window","63ea497523794756c703094c","qrcJKsvZcpaQH1ykaCI1KRZsaDM2","","","","","","","","","","","","","","","","","","750","","",""
"html-keyboard-response","114","206230","0.0-48.0-3.0","","null","<div style='margin:auto;width: auto; font-size: 150%'><span style='font-weight: bold; font-size: 100px; color: green;'>+10 points!</span><br><br></div>","null","delaylearn","learning","feedback_image_window","63ea497523794756c703094c","qrcJKsvZcpaQH1ykaCI1KRZsaDM2","","","","","","","","","","","","","","","","","","","","",""
"html-keyboard-response","115","208265","0.0-49.0","","null","<div style=""font-size:100px;"">+</div>","null","delaylearn","learning","ITI","63ea497523794756c703094c","qrcJKsvZcpaQH1ykaCI1KRZsaDM2","","","","","","","","","","","","","","","","","","","2032","",""
"html-keyboard-response","116","209368","0.0-50.0-0.0","","1100.0000000000582","<div style=""display: flex; flex-direction: column; align-items: center; margin-top: -40px;""><img src=""images/pattern_4.png"" style=""width: 234px; height: 230px; margin-top: -50px;""><div style=""display: flex; justify-content: space-between; margin-top: 33px;""><img src=""images/choice_trial_11.png"" style=""width: 408px; height: 417px; margin-right: 200px;""><img src=""images/choice_trial_4.png"" style=""width: 408px; height: 417px;""></div></div>","f","delaylearn","learning","trial","63ea497523794756c703094c","qrcJKsvZcpaQH1ykaCI1KRZsaDM2","5","images/choice_trial_11.png","images/choice_trial_4.png","images/pattern_4.png","f","f","7000","11","4","3","0","22","1","1","11","110","","","","",""
"html-keyboard-response","117","210371","0.0-50.0-1.0","","null","<div style=""display: flex; flex-direction: column; align-items: center; margin-top: -40px;""><img src=""images/pattern_4.png"" style=""width: 234px; height: 230px; margin-top: -50px;""><div style=""display: flex; justify-content: space-between; margin-top: 33px;""><img src=""images/choice_trial_11.png"" style=""width: 408px; height: 417px; margin-right: 608px;""></div></div>","null","delaylearn","learning","display_response","63ea497523794756c703094c","qrcJKsvZcpaQH1ykaCI1KRZsaDM2","","","","","","","","","","","","","","","","","chosen stimuli: images/choice_trial_11.png","","","",""
"html-keyboard-response","118","217374","0.0-50.0-2.0","","null","","null","delaylearn","learning","feedback_duration_window","63ea497523794756c703094c","qrcJKsvZcpaQH1ykaCI1KRZsaDM2","","","","","","","","","","","","","","","","","","7000","","",""
"html-keyboard-response","119","218877","0.0-50.0-3.0","","null","<div style='margin:auto;width: auto; font-size: 150%'><span style='font-weight: bold; font-size: 100px; color: green;'>+10 points!</span><br><br></div>","null","delaylearn","learning","feedback_image_window","63ea497523794756c703094c","qrcJKsvZcpaQH1ykaCI1KRZsaDM2","","","","","","","","","","","","","","","","","","","","",""
"html-keyboard-response","120","219380","0.0-51.0-0.0","","null","","null","","","mood_trial_fixation","","","","","","","","","","","","","","","","","","","","","","",""
"lmdlab-html-vas-response","121","223056","0.0-51.0-1.0","","2671","How happy are you right now?","0.5389178240740741","delaylearn","learning","mood_trial","63ea497523794756c703094c","qrcJKsvZcpaQH1ykaCI1KRZsaDM2","","","","","","","","","","","","","","","","","","","","[""Very unhappy"",""Very happy""]",""
"html-keyboard-response","122","224882","0.0-52.0","","null","<div style=""font-size:100px;"">+</div>","null","delaylearn","learning","ITI","63ea497523794756c703094c","qrcJKsvZcpaQH1ykaCI1KRZsaDM2","","","","","","","","","","","","","","","","","","","1824","",""
"html-keyboard-response","123","225571","0.0-53.0-0.0","","685.9999999999418","<div style=""display: flex; flex-direction: column; align-items: center; margin-top: -40px;""><img src=""images/pattern_7.png"" style=""width: 234px; height: 230px; margin-top: -50px;""><div style=""display: flex; justify-content: space-between; margin-top: 33px;""><img src=""images/choice_trial_10.png"" style=""width: 408px; height: 417px; margin-right: 200px;""><img src=""images/choice_trial_8.png"" style=""width: 408px; height: 417px;""></div></div>","j","delaylearn","learning","trial","63ea497523794756c703094c","qrcJKsvZcpaQH1ykaCI1KRZsaDM2","5","images/choice_trial_10.png","images/choice_trial_8.png","images/pattern_7.png","j","j","750","10","8","6","1","23","1","1","8","120","","","","",""
"html-keyboard-response","124","226574","0.0-53.0-1.0","","null","<div style=""display: flex; flex-direction: column; align-items: center; margin-top: -40px;""><img src=""images/pattern_7.png"" style=""width: 234px; height: 230px; margin-top: -50px;""><div style=""display: flex; justify-content: space-between; margin-top: 33px;""><img src=""images/choice_trial_8.png"" style=""width: 408px; height: 417px; margin-left:608px;""></div></div>","null","delaylearn","learning","display_response","63ea497523794756c703094c","qrcJKsvZcpaQH1ykaCI1KRZsaDM2","","","","","","","","","","","","","","","","","chosen stimuli: images/choice_trial_8.png","","","",""
"html-keyboard-response","125","227327","0.0-53.0-2.0","","null","","null","delaylearn","learning","feedback_duration_window","63ea497523794756c703094c","qrcJKsvZcpaQH1ykaCI1KRZsaDM2","","","","","","","","","","","","","","","","","","750","","",""
"html-keyboard-response","126","228830","0.0-53.0-3.0","","null","<div style='margin:auto;width: auto; font-size: 150%'><span style='font-weight: bold; font-size: 100px; color: green;'>+10 points!</span><br><br></div>","null","delaylearn","learning","feedback_image_window","63ea497523794756c703094c","qrcJKsvZcpaQH1ykaCI1KRZsaDM2","","","","","","","","","","","","","","","","","","","","",""
"html-keyboard-response","127","230401","0.0-54.0","","null","<div style=""font-size:100px;"">+</div>","null","delaylearn","learning","ITI","63ea497523794756c703094c","qrcJKsvZcpaQH1ykaCI1KRZsaDM2","","","","","","","","","","","","","","","","","","","1568","",""
"html-keyboard-response","128","231204","0.0-55.0-0.0","","800","<div style=""display: flex; flex-direction: column; align-items: center; margin-top: -40px;""><img src=""images/pattern_1.png"" style=""width: 234px; height: 230px; margin-top: -50px;""><div style=""display: flex; justify-content: space-between; margin-top: 33px;""><img src=""images/choice_trial_15.png"" style=""width: 408px; height: 417px; margin-right: 200px;""><img src=""images/choice_trial_6.png"" style=""width: 408px; height: 417px;""></div></div>","j","delaylearn","learning","trial","63ea497523794756c703094c","qrcJKsvZcpaQH1ykaCI1KRZsaDM2","5","images/choice_trial_15.png","images/choice_trial_6.png","images/pattern_1.png","f","j","7000","15","6","1","1","24","1","0","6","120","","","","",""
"html-keyboard-response","129","232206","0.0-55.0-1.0","","null","<div style=""display: flex; flex-direction: column; align-items: center; margin-top: -40px;""><img src=""images/pattern_1.png"" style=""width: 234px; height: 230px; margin-top: -50px;""><div style=""display: flex; justify-content: space-between; margin-top: 33px;""><img src=""images/choice_trial_6.png"" style=""width: 408px; height: 417px; margin-left:608px;""></div></div>","null","delaylearn","learning","display_response","63ea497523794756c703094c","qrcJKsvZcpaQH1ykaCI1KRZsaDM2","","","","","","","","","","","","","","","","","chosen stimuli: images/choice_trial_6.png","","","",""
"html-keyboard-response","130","239209","0.0-55.0-2.0","","null","","null","delaylearn","learning","feedback_duration_window","63ea497523794756c703094c","qrcJKsvZcpaQH1ykaCI1KRZsaDM2","","","","","","","","","","","","","","","","","","7000","","",""
"html-keyboard-response","131","240711","0.0-55.0-3.0","","null","<div style='margin:auto;width: auto; font-size: 150%'><span style='font-weight: bold; font-size: 100px; color: red;'>0 points!</span><br><br></div>","null","delaylearn","learning","feedback_image_window","63ea497523794756c703094c","qrcJKsvZcpaQH1ykaCI1KRZsaDM2","","","","","","","","","","","","","","","","","","","","",""
"html-keyboard-response","132","243124","0.0-56.0","","null","<div style=""font-size:100px;"">+</div>","null","delaylearn","learning","ITI","63ea497523794756c703094c","qrcJKsvZcpaQH1ykaCI1KRZsaDM2","","","","","","","","","","","","","","","","","","","2410","",""
"html-keyboard-response","133","243978","0.0-57.0-0.0","","852","<div style=""display: flex; flex-direction: column; align-items: center; margin-top: -40px;""><img src=""images/pattern_5.png"" style=""width: 234px; height: 230px; margin-top: -50px;""><div style=""display: flex; justify-content: space-between; margin-top: 33px;""><img src=""images/choice_trial_13.png"" style=""width: 408px; height: 417px; margin-right: 200px;""><img src=""images/choice_trial_7.png"" style=""width: 408px; height: 417px;""></div></div>","j","delaylearn","learning","trial","63ea497523794756c703094c","qrcJKsvZcpaQH1ykaCI1KRZsaDM2","5","images/choice_trial_13.png","images/choice_trial_7.png","images/pattern_5.png","j","j","750","13","7","4","1","25","1","1","7","130","","","","",""
"html-keyboard-response","134","244982","0.0-57.0-1.0","","null","<div style=""display: flex; flex-direction: column; align-items: center; margin-top: -40px;""><img src=""images/pattern_5.png"" style=""width: 234px; height: 230px; margin-top: -50px;""><div style=""display: flex; justify-content: space-between; margin-top: 33px;""><img src=""images/choice_trial_7.png"" style=""width: 408px; height: 417px; margin-left:608px;""></div></div>","null","delaylearn","learning","display_response","63ea497523794756c703094c","qrcJKsvZcpaQH1ykaCI1KRZsaDM2","","","","","","","","","","","","","","","","","chosen stimuli: images/choice_trial_7.png","","","",""
"html-keyboard-response","135","245738","0.0-57.0-2.0","","null","","null","delaylearn","learning","feedback_duration_window","63ea497523794756c703094c","qrcJKsvZcpaQH1ykaCI1KRZsaDM2","","","","","","","","","","","","","","","","","","750","","",""
"html-keyboard-response","136","247241","0.0-57.0-3.0","","null","<div style='margin:auto;width: auto; font-size: 150%'><span style='font-weight: bold; font-size: 100px; color: green;'>+10 points!</span><br><br></div>","null","delaylearn","learning","feedback_image_window","63ea497523794756c703094c","qrcJKsvZcpaQH1ykaCI1KRZsaDM2","","","","","","","","","","","","","","","","","","","","",""
"html-keyboard-response","137","249238","0.0-58.0","","null","<div style=""font-size:100px;"">+</div>","null","delaylearn","learning","ITI","63ea497523794756c703094c","qrcJKsvZcpaQH1ykaCI1KRZsaDM2","","","","","","","","","","","","","","","","","","","1994","",""
"html-keyboard-response","138","250161","0.0-59.0-0.0","","921","<div style=""display: flex; flex-direction: column; align-items: center; margin-top: -40px;""><img src=""images/pattern_3.png"" style=""width: 234px; height: 230px; margin-top: -50px;""><div style=""display: flex; justify-content: space-between; margin-top: 33px;""><img src=""images/choice_trial_2.png"" style=""width: 408px; height: 417px; margin-right: 200px;""><img src=""images/choice_trial_16.png"" style=""width: 408px; height: 417px;""></div></div>","f","delaylearn","learning","trial","63ea497523794756c703094c","qrcJKsvZcpaQH1ykaCI1KRZsaDM2","5","images/choice_trial_2.png","images/choice_trial_16.png","images/pattern_3.png","j","j","7000","2","16","2","1","26","0","0","2","130","","","","",""
"html-keyboard-response","139","251164","0.0-59.0-1.0","","null","<div style=""display: flex; flex-direction: column; align-items: center; margin-top: -40px;""><img src=""images/pattern_3.png"" style=""width: 234px; height: 230px; margin-top: -50px;""><div style=""display: flex; justify-content: space-between; margin-top: 33px;""><img src=""images/choice_trial_2.png"" style=""width: 408px; height: 417px; margin-right: 608px;""></div></div>","null","delaylearn","learning","display_response","63ea497523794756c703094c","qrcJKsvZcpaQH1ykaCI1KRZsaDM2","","","","","","","","","","","","","","","","","chosen stimuli: images/choice_trial_2.png","","","",""
"html-keyboard-response","140","258167","0.0-59.0-2.0","","null","","null","delaylearn","learning","feedback_duration_window","63ea497523794756c703094c","qrcJKsvZcpaQH1ykaCI1KRZsaDM2","","","","","","","","","","","","","","","","","","7000","","",""
"html-keyboard-response","141","259669","0.0-59.0-3.0","","null","<div style='margin:auto;width: auto; font-size: 150%'><span style='font-weight: bold; font-size: 100px; color: red;'>0 points!</span><br><br></div>","null","delaylearn","learning","feedback_image_window","63ea497523794756c703094c","qrcJKsvZcpaQH1ykaCI1KRZsaDM2","","","","","","","","","","","","","","","","","","","","",""
"lmdlab-html-vas-response","142","266633","0.0-60.0-0.0","","5458","*How <b><u>confident</u></b> are you feeling about your answers at this moment?*","0.21481481481481482","rewlearn","rate_confidence","","63ea497523794756c703094c","qrcJKsvZcpaQH1ykaCI1KRZsaDM2","","","","","","","","","","","","","","","","","","","","[""No confidence"",""Complete confidence""]",""
"lmdlab-rest-trial-limit","143","277024","0.0-60.0-1.0","","8888","<div style=""font-size:40px;""><b>Please take a break!</b><br><br><br><br><p>Great work: you earned 130 points.<br><br><br><p>You have completed part(s) 1 of 5.<br><br><br><br>When you are ready to continue<br><br><br>please click the button.</p><br><br>","0","delaylearn","learning","break","63ea497523794756c703094c","qrcJKsvZcpaQH1ykaCI1KRZsaDM2","","","","","","","","","","","","","","","","","","","","","0"
"html-keyboard-response","144","280026","0.0-60.0-2.0","","null","<div style=""font-size:100px;"">+</div>","null","delaylearn","learning","pre_fixation","63ea497523794756c703094c","","","","","","","","","","","","","","","","","","","","","",""
"lmdlab-html-vas-response","145","283911","0.0-60.0-3.0-0.0","","2877","How happy are you right now?","0.4574363425925926","delaylearn","learning","mood_baseline","63ea497523794756c703094c","qrcJKsvZcpaQH1ykaCI1KRZsaDM2","","","","","","","","","","","","","","","","","","","","[""Very unhappy"",""Very happy""]",""
"html-keyboard-response","146","285413","0.0-60.0-3.0-1.0","","null","","null","","","mood_baseline_fixation","","","","","","","","","","","","","","","","","","","","","","",""
"html-keyboard-response","147","287383","0.0-61.0","","null","<div style=""font-size:100px;"">+</div>","null","delaylearn","learning","ITI","63ea497523794756c703094c","qrcJKsvZcpaQH1ykaCI1KRZsaDM2","","","","","","","","","","","","","","","","","","","1967","",""
"html-keyboard-response","148","288146","0.0-62.0-0.0","","759","<div style=""display: flex; flex-direction: column; align-items: center; margin-top: -40px;""><img src=""images/pattern_7.png"" style=""width: 234px; height: 230px; margin-top: -50px;""><div style=""display: flex; justify-content: space-between; margin-top: 33px;""><img src=""images/choice_trial_10.png"" style=""width: 408px; height: 417px; margin-right: 200px;""><img src=""images/choice_trial_8.png"" style=""width: 408px; height: 417px;""></div></div>","j","delaylearn","learning","trial","63ea497523794756c703094c","qrcJKsvZcpaQH1ykaCI1KRZsaDM2","5","images/choice_trial_10.png","images/choice_trial_8.png","images/pattern_7.png","j","j","750","10","8","6","1","27","1","1","8","140","","","","",""
"html-keyboard-response","149","289149","0.0-62.0-1.0","","null","<div style=""display: flex; flex-direction: column; align-items: center; margin-top: -40px;""><img src=""images/pattern_7.png"" style=""width: 234px; height: 230px; margin-top: -50px;""><div style=""display: flex; justify-content: space-between; margin-top: 33px;""><img src=""images/choice_trial_8.png"" style=""width: 408px; height: 417px; margin-left:608px;""></div></div>","null","delaylearn","learning","display_response","63ea497523794756c703094c","qrcJKsvZcpaQH1ykaCI1KRZsaDM2","","","","","","","","","","","","","","","","","chosen stimuli: images/choice_trial_8.png","","","",""
"html-keyboard-response","150","289901","0.0-62.0-2.0","","null","","null","delaylearn","learning","feedback_duration_window","63ea497523794756c703094c","qrcJKsvZcpaQH1ykaCI1KRZsaDM2","","","","","","","","","","","","","","","","","","750","","",""
"html-keyboard-response","151","291403","0.0-62.0-3.0","","null","<div style='margin:auto;width: auto; font-size: 150%'><span style='font-weight: bold; font-size: 100px; color: green;'>+10 points!</span><br><br></div>","null","delaylearn","learning","feedback_image_window","63ea497523794756c703094c","qrcJKsvZcpaQH1ykaCI1KRZsaDM2","","","","","","","","","","","","","","","","","","","","",""
"html-keyboard-response","152","291905","0.0-63.0-0.0","","null","","null","","","mood_trial_fixation","","","","","","","","","","","","","","","","","","","","","","",""
"lmdlab-html-vas-response","153","295140","0.0-63.0-1.0","","2229","How happy are you right now?","0.5000289351851852","delaylearn","learning","mood_trial","63ea497523794756c703094c","qrcJKsvZcpaQH1ykaCI1KRZsaDM2","","","","","","","","","","","","","","","","","","","","[""Very unhappy"",""Very happy""]",""
"html-keyboard-response","154","296762","0.0-64.0","","null","<div style=""font-size:100px;"">+</div>","null","delaylearn","learning","ITI","63ea497523794756c703094c","qrcJKsvZcpaQH1ykaCI1KRZsaDM2","","","","","","","","","","","","","","","","","","","1620","",""
"html-keyboard-response","155","297479","0.0-65.0-0.0","","714","<div style=""display: flex; flex-direction: column; align-items: center; margin-top: -40px;""><img src=""images/pattern_1.png"" style=""width: 234px; height: 230px; margin-top: -50px;""><div style=""display: flex; justify-content: space-between; margin-top: 33px;""><img src=""images/choice_trial_6.png"" style=""width: 408px; height: 417px; margin-right: 200px;""><img src=""images/choice_trial_15.png"" style=""width: 408px; height: 417px;""></div></div>","f","delaylearn","learning","trial","63ea497523794756c703094c","qrcJKsvZcpaQH1ykaCI1KRZsaDM2","5","images/choice_trial_6.png","images/choice_trial_15.png","images/pattern_1.png","f","f","7000","6","15","1","0","28","1","1","6","150","","","","",""
"html-keyboard-response","156","298482","0.0-65.0-1.0","","null","<div style=""display: flex; flex-direction: column; align-items: center; margin-top: -40px;""><img src=""images/pattern_1.png"" style=""width: 234px; height: 230px; margin-top: -50px;""><div style=""display: flex; justify-content: space-between; margin-top: 33px;""><img src=""images/choice_trial_6.png"" style=""width: 408px; height: 417px; margin-right: 608px;""></div></div>","null","delaylearn","learning","display_response","63ea497523794756c703094c","qrcJKsvZcpaQH1ykaCI1KRZsaDM2","","","","","","","","","","","","","","","","","chosen stimuli: images/choice_trial_6.png","","","",""
"html-keyboard-response","157","305485","0.0-65.0-2.0","","null","","null","delaylearn","learning","feedback_duration_window","63ea497523794756c703094c","qrcJKsvZcpaQH1ykaCI1KRZsaDM2","","","","","","","","","","","","","","","","","","7000","","",""
"html-keyboard-response","158","306988","0.0-65.0-3.0","","null","<div style='margin:auto;width: auto; font-size: 150%'><span style='font-weight: bold; font-size: 100px; color: green;'>+10 points!</span><br><br></div>","null","delaylearn","learning","feedback_image_window","63ea497523794756c703094c","qrcJKsvZcpaQH1ykaCI1KRZsaDM2","","","","","","","","","","","","","","","","","","","","",""
"html-keyboard-response","159","309307","0.0-66.0","","null","<div style=""font-size:100px;"">+</div>","null","delaylearn","learning","ITI","63ea497523794756c703094c","qrcJKsvZcpaQH1ykaCI1KRZsaDM2","","","","","","","","","","","","","","","","","","","2317","",""
"html-keyboard-response","160","310006","0.0-67.0-0.0","","696","<div style=""display: flex; flex-direction: column; align-items: center; margin-top: -40px;""><img src=""images/pattern_5.png"" style=""width: 234px; height: 230px; margin-top: -50px;""><div style=""display: flex; justify-content: space-between; margin-top: 33px;""><img src=""images/choice_trial_7.png"" style=""width: 408px; height: 417px; margin-right: 200px;""><img src=""images/choice_trial_13.png"" style=""width: 408px; height: 417px;""></div></div>","j","delaylearn","learning","trial","63ea497523794756c703094c","qrcJKsvZcpaQH1ykaCI1KRZsaDM2","5","images/choice_trial_7.png","images/choice_trial_13.png","images/pattern_5.png","f","f","750","7","13","4","0","29","0","0","13","150","","","","",""
"html-keyboard-response","161","311009","0.0-67.0-1.0","","null","<div style=""display: flex; flex-direction: column; align-items: center; margin-top: -40px;""><img src=""images/pattern_5.png"" style=""width: 234px; height: 230px; margin-top: -50px;""><div style=""display: flex; justify-content: space-between; margin-top: 33px;""><img src=""images/choice_trial_13.png"" style=""width: 408px; height: 417px; margin-left:608px;""></div></div>","null","delaylearn","learning","display_response","63ea497523794756c703094c","qrcJKsvZcpaQH1ykaCI1KRZsaDM2","","","","","","","","","","","","","","","","","chosen stimuli: images/choice_trial_13.png","","","",""
"html-keyboard-response","162","311761","0.0-67.0-2.0","","null","","null","delaylearn","learning","feedback_duration_window","63ea497523794756c703094c","qrcJKsvZcpaQH1ykaCI1KRZsaDM2","","","","","","","","","","","","","","","","","","750","","",""
"html-keyboard-response","163","313264","0.0-67.0-3.0","","null","<div style='margin:auto;width: auto; font-size: 150%'><span style='font-weight: bold; font-size: 100px; color: red;'>0 points!</span><br><br></div>","null","delaylearn","learning","feedback_image_window","63ea497523794756c703094c","qrcJKsvZcpaQH1ykaCI1KRZsaDM2","","","","","","","","","","","","","","","","","","","","",""
"html-keyboard-response","164","315506","0.0-68.0","","null","<div style=""font-size:100px;"">+</div>","null","delaylearn","learning","ITI","63ea497523794756c703094c","qrcJKsvZcpaQH1ykaCI1KRZsaDM2","","","","","","","","","","","","","","","","","","","2240","",""
"html-keyboard-response","165","316278","0.0-69.0-0.0","","768","<div style=""display: flex; flex-direction: column; align-items: center; margin-top: -40px;""><img src=""images/pattern_6.png"" style=""width: 234px; height: 230px; margin-top: -50px;""><div style=""display: flex; justify-content: space-between; margin-top: 33px;""><img src=""images/choice_trial_9.png"" style=""width: 408px; height: 417px; margin-right: 200px;""><img src=""images/choice_trial_14.png"" style=""width: 408px; height: 417px;""></div></div>","j","delaylearn","learning","trial","63ea497523794756c703094c","qrcJKsvZcpaQH1ykaCI1KRZsaDM2","5","images/choice_trial_9.png","images/choice_trial_14.png","images/pattern_6.png","j","j","750","9","14","5","1","30","1","1","14","160","","","","",""
"html-keyboard-response","166","317281","0.0-69.0-1.0","","null","<div style=""display: flex; flex-direction: column; align-items: center; margin-top: -40px;""><img src=""images/pattern_6.png"" style=""width: 234px; height: 230px; margin-top: -50px;""><div style=""display: flex; justify-content: space-between; margin-top: 33px;""><img src=""images/choice_trial_14.png"" style=""width: 408px; height: 417px; margin-left:608px;""></div></div>","null","delaylearn","learning","display_response","63ea497523794756c703094c","qrcJKsvZcpaQH1ykaCI1KRZsaDM2","","","","","","","","","","","","","","","","","chosen stimuli: images/choice_trial_14.png","","","",""
"html-keyboard-response","167","318033","0.0-69.0-2.0","","null","","null","delaylearn","learning","feedback_duration_window","63ea497523794756c703094c","qrcJKsvZcpaQH1ykaCI1KRZsaDM2","","","","","","","","","","","","","","","","","","750","","",""
"html-keyboard-response","168","319536","0.0-69.0-3.0","","null","<div style='margin:auto;width: auto; font-size: 150%'><span style='font-weight: bold; font-size: 100px; color: green;'>+10 points!</span><br><br></div>","null","delaylearn","learning","feedback_image_window","63ea497523794756c703094c","qrcJKsvZcpaQH1ykaCI1KRZsaDM2","","","","","","","","","","","","","","","","","","","","",""
"html-keyboard-response","169","320038","0.0-70.0-0.0","","null","","null","","","mood_trial_fixation","","","","","","","","","","","","","","","","","","","","","","",""
"lmdlab-html-vas-response","170","323892","0.0-70.0-1.0","","2848","How happy are you right now?","0.5037326388888889","delaylearn","learning","mood_trial","63ea497523794756c703094c","qrcJKsvZcpaQH1ykaCI1KRZsaDM2","","","","","","","","","","","","","","","","","","","","[""Very unhappy"",""Very happy""]",""
"html-keyboard-response","171","325799","0.0-71.0","","null","<div style=""font-size:100px;"">+</div>","null","delaylearn","learning","ITI","63ea497523794756c703094c","qrcJKsvZcpaQH1ykaCI1KRZsaDM2","","","","","","","","","","","","","","","","","","","1906","",""
"html-keyboard-response","172","326462","0.0-72.0-0.0","","660","<div style=""display: flex; flex-direction: column; align-items: center; margin-top: -40px;""><img src=""images/pattern_4.png"" style=""width: 234px; height: 230px; margin-top: -50px;""><div style=""display: flex; justify-content: space-between; margin-top: 33px;""><img src=""images/choice_trial_4.png"" style=""width: 408px; height: 417px; margin-right: 200px;""><img src=""images/choice_trial_11.png"" style=""width: 408px; height: 417px;""></div></div>","f","delaylearn","learning","trial","63ea497523794756c703094c","qrcJKsvZcpaQH1ykaCI1KRZsaDM2","5","images/choice_trial_4.png","images/choice_trial_11.png","images/pattern_4.png","j","j","7000","4","11","3","1","31","0","0","4","160","","","","",""
"html-keyboard-response","173","327465","0.0-72.0-1.0","","null","<div style=""display: flex; flex-direction: column; align-items: center; margin-top: -40px;""><img src=""images/pattern_4.png"" style=""width: 234px; height: 230px; margin-top: -50px;""><div style=""display: flex; justify-content: space-between; margin-top: 33px;""><img src=""images/choice_trial_4.png"" style=""width: 408px; height: 417px; margin-right: 608px;""></div></div>","null","delaylearn","learning","display_response","63ea497523794756c703094c","qrcJKsvZcpaQH1ykaCI1KRZsaDM2","","","","","","","","","","","","","","","","","chosen stimuli: images/choice_trial_4.png","","","",""
"html-keyboard-response","174","334473","0.0-72.0-2.0","","null","","null","delaylearn","learning","feedback_duration_window","63ea497523794756c703094c","qrcJKsvZcpaQH1ykaCI1KRZsaDM2","","","","","","","","","","","","","","","","","","7000","","",""
"html-keyboard-response","175","335975","0.0-72.0-3.0","","null","<div style='margin:auto;width: auto; font-size: 150%'><span style='font-weight: bold; font-size: 100px; color: red;'>0 points!</span><br><br></div>","null","delaylearn","learning","feedback_image_window","63ea497523794756c703094c","qrcJKsvZcpaQH1ykaCI1KRZsaDM2","","","","","","","","","","","","","","","","","","","","",""
"html-keyboard-response","176","338159","0.0-73.0","","null","<div style=""font-size:100px;"">+</div>","null","delaylearn","learning","ITI","63ea497523794756c703094c","qrcJKsvZcpaQH1ykaCI1KRZsaDM2","","","","","","","","","","","","","","","","","","","2181","",""
"html-keyboard-response","177","338699","0.0-74.0-0.0","","536.0000000000582","<div style=""display: flex; flex-direction: column; align-items: center; margin-top: -40px;""><img src=""images/pattern_3.png"" style=""width: 234px; height: 230px; margin-top: -50px;""><div style=""display: flex; justify-content: space-between; margin-top: 33px;""><img src=""images/choice_trial_2.png"" style=""width: 408px; height: 417px; margin-right: 200px;""><img src=""images/choice_trial_16.png"" style=""width: 408px; height: 417px;""></div></div>","j","delaylearn","learning","trial","63ea497523794756c703094c","qrcJKsvZcpaQH1ykaCI1KRZsaDM2","5","images/choice_trial_2.png","images/choice_trial_16.png","images/pattern_3.png","j","j","7000","2","16","2","1","32","1","1","16","170","","","","",""
"html-keyboard-response","178","339702","0.0-74.0-1.0","","null","<div style=""display: flex; flex-direction: column; align-items: center; margin-top: -40px;""><img src=""images/pattern_3.png"" style=""width: 234px; height: 230px; margin-top: -50px;""><div style=""display: flex; justify-content: space-between; margin-top: 33px;""><img src=""images/choice_trial_16.png"" style=""width: 408px; height: 417px; margin-left:608px;""></div></div>","null","delaylearn","learning","display_response","63ea497523794756c703094c","qrcJKsvZcpaQH1ykaCI1KRZsaDM2","","","","","","","","","","","","","","","","","chosen stimuli: images/choice_trial_16.png","","","",""
"html-keyboard-response","179","346705","0.0-74.0-2.0","","null","","null","delaylearn","learning","feedback_duration_window","63ea497523794756c703094c","qrcJKsvZcpaQH1ykaCI1KRZsaDM2","","","","","","","","","","","","","","","","","","7000","","",""
"html-keyboard-response","180","348207","0.0-74.0-3.0","","null","<div style='margin:auto;width: auto; font-size: 150%'><span style='font-weight: bold; font-size: 100px; color: green;'>+10 points!</span><br><br></div>","null","delaylearn","learning","feedback_image_window","63ea497523794756c703094c","qrcJKsvZcpaQH1ykaCI1KRZsaDM2","","","","","","","","","","","","","","","","","","","","",""
"html-keyboard-response","181","349851","0.0-75.0","","null","<div style=""font-size:100px;"">+</div>","null","delaylearn","learning","ITI","63ea497523794756c703094c","qrcJKsvZcpaQH1ykaCI1KRZsaDM2","","","","","","","","","","","","","","","","","","","1641","",""
"html-keyboard-response","182","350638","0.0-76.0-0.0","","784","<div style=""display: flex; flex-direction: column; align-items: center; margin-top: -40px;""><img src=""images/pattern_5.png"" style=""width: 234px; height: 230px; margin-top: -50px;""><div style=""display: flex; justify-content: space-between; margin-top: 33px;""><img src=""images/choice_trial_7.png"" style=""width: 408px; height: 417px; margin-right: 200px;""><img src=""images/choice_trial_13.png"" style=""width: 408px; height: 417px;""></div></div>","f","delaylearn","learning","trial","63ea497523794756c703094c","qrcJKsvZcpaQH1ykaCI1KRZsaDM2","5","images/choice_trial_7.png","images/choice_trial_13.png","images/pattern_5.png","j","f","750","7","13","4","0","33","1","0","7","170","","","","",""
"html-keyboard-response","183","351641","0.0-76.0-1.0","","null","<div style=""display: flex; flex-direction: column; align-items: center; margin-top: -40px;""><img src=""images/pattern_5.png"" style=""width: 234px; height: 230px; margin-top: -50px;""><div style=""display: flex; justify-content: space-between; margin-top: 33px;""><img src=""images/choice_trial_7.png"" style=""width: 408px; height: 417px; margin-right: 608px;""></div></div>","null","delaylearn","learning","display_response","63ea497523794756c703094c","qrcJKsvZcpaQH1ykaCI1KRZsaDM2","","","","","","","","","","","","","","","","","chosen stimuli: images/choice_trial_7.png","","","",""
"html-keyboard-response","184","352393","0.0-76.0-2.0","","null","","null","delaylearn","learning","feedback_duration_window","63ea497523794756c703094c","qrcJKsvZcpaQH1ykaCI1KRZsaDM2","","","","","","","","","","","","","","","","","","750","","",""
"html-keyboard-response","185","353895","0.0-76.0-3.0","","null","<div style='margin:auto;width: auto; font-size: 150%'><span style='font-weight: bold; font-size: 100px; color: red;'>0 points!</span><br><br></div>","null","delaylearn","learning","feedback_image_window","63ea497523794756c703094c","qrcJKsvZcpaQH1ykaCI1KRZsaDM2","","","","","","","","","","","","","","","","","","","","",""
"html-keyboard-response","186","355495","0.0-77.0","","null","<div style=""font-size:100px;"">+</div>","null","delaylearn","learning","ITI","63ea497523794756c703094c","qrcJKsvZcpaQH1ykaCI1KRZsaDM2","","","","","","","","","","","","","","","","","","","1597","",""
"html-keyboard-response","187","356126","0.0-78.0-0.0","","628","<div style=""display: flex; flex-direction: column; align-items: center; margin-top: -40px;""><img src=""images/pattern_1.png"" style=""width: 234px; height: 230px; margin-top: -50px;""><div style=""display: flex; justify-content: space-between; margin-top: 33px;""><img src=""images/choice_trial_6.png"" style=""width: 408px; height: 417px; margin-right: 200px;""><img src=""images/choice_trial_15.png"" style=""width: 408px; height: 417px;""></div></div>","j","delaylearn","learning","trial","63ea497523794756c703094c","qrcJKsvZcpaQH1ykaCI1KRZsaDM2","5","images/choice_trial_6.png","images/choice_trial_15.png","images/pattern_1.png","f","f","7000","6","15","1","0","34","0","0","15","170","","","","",""
"html-keyboard-response","188","357129","0.0-78.0-1.0","","null","<div style=""display: flex; flex-direction: column; align-items: center; margin-top: -40px;""><img src=""images/pattern_1.png"" style=""width: 234px; height: 230px; margin-top: -50px;""><div style=""display: flex; justify-content: space-between; margin-top: 33px;""><img src=""images/choice_trial_15.png"" style=""width: 408px; height: 417px; margin-left:608px;""></div></div>","null","delaylearn","learning","display_response","63ea497523794756c703094c","qrcJKsvZcpaQH1ykaCI1KRZsaDM2","","","","","","","","","","","","","","","","","chosen stimuli: images/choice_trial_15.png","","","",""
"html-keyboard-response","189","364132","0.0-78.0-2.0","","null","","null","delaylearn","learning","feedback_duration_window","63ea497523794756c703094c","qrcJKsvZcpaQH1ykaCI1KRZsaDM2","","","","","","","","","","","","","","","","","","7000","","",""
"html-keyboard-response","190","365634","0.0-78.0-3.0","","null","<div style='margin:auto;width: auto; font-size: 150%'><span style='font-weight: bold; font-size: 100px; color: red;'>0 points!</span><br><br></div>","null","delaylearn","learning","feedback_image_window","63ea497523794756c703094c","qrcJKsvZcpaQH1ykaCI1KRZsaDM2","","","","","","","","","","","","","","","","","","","","",""
"html-keyboard-response","191","366136","0.0-79.0-0.0","","null","","null","","","mood_trial_fixation","","","","","","","","","","","","","","","","","","","","","","",""
"lmdlab-html-vas-response","192","369802","0.0-79.0-1.0","","2659","How happy are you right now?","0.26484375","delaylearn","learning","mood_trial","63ea497523794756c703094c","qrcJKsvZcpaQH1ykaCI1KRZsaDM2","","","","","","","","","","","","","","","","","","","","[""Very unhappy"",""Very happy""]",""
"html-keyboard-response","193","371423","0.0-80.0","","null","<div style=""font-size:100px;"">+</div>","null","delaylearn","learning","ITI","63ea497523794756c703094c","qrcJKsvZcpaQH1ykaCI1KRZsaDM2","","","","","","","","","","","","","","","","","","","1619","",""
"html-keyboard-response","194","372624","0.0-81.0-0.0","","1197","<div style=""display: flex; flex-direction: column; align-items: center; margin-top: -40px;""><img src=""images/pattern_6.png"" style=""width: 234px; height: 230px; margin-top: -50px;""><div style=""display: flex; justify-content: space-between; margin-top: 33px;""><img src=""images/choice_trial_14.png"" style=""width: 408px; height: 417px; margin-right: 200px;""><img src=""images/choice_trial_9.png"" style=""width: 408px; height: 417px;""></div></div>","f","delaylearn","learning","trial","63ea497523794756c703094c","qrcJKsvZcpaQH1ykaCI1KRZsaDM2","5","images/choice_trial_14.png","images/choice_trial_9.png","images/pattern_6.png","j","f","750","14","9","5","0","35","1","0","14","170","","","","",""
"html-keyboard-response","195","373627","0.0-81.0-1.0","","null","<div style=""display: flex; flex-direction: column; align-items: center; margin-top: -40px;""><img src=""images/pattern_6.png"" style=""width: 234px; height: 230px; margin-top: -50px;""><div style=""display: flex; justify-content: space-between; margin-top: 33px;""><img src=""images/choice_trial_14.png"" style=""width: 408px; height: 417px; margin-right: 608px;""></div></div>","null","delaylearn","learning","display_response","63ea497523794756c703094c","qrcJKsvZcpaQH1ykaCI1KRZsaDM2","","","","","","","","","","","","","","","","","chosen stimuli: images/choice_trial_14.png","","","",""
"html-keyboard-response","196","374380","0.0-81.0-2.0","","null","","null","delaylearn","learning","feedback_duration_window","63ea497523794756c703094c","qrcJKsvZcpaQH1ykaCI1KRZsaDM2","","","","","","","","","","","","","","","","","","750","","",""
"html-keyboard-response","197","375883","0.0-81.0-3.0","","null","<div style='margin:auto;width: auto; font-size: 150%'><span style='font-weight: bold; font-size: 100px; color: red;'>0 points!</span><br><br></div>","null","delaylearn","learning","feedback_image_window","63ea497523794756c703094c","qrcJKsvZcpaQH1ykaCI1KRZsaDM2","","","","","","","","","","","","","","","","","","","","",""
"html-keyboard-response","198","378028","0.0-82.0","","null","<div style=""font-size:100px;"">+</div>","null","delaylearn","learning","ITI","63ea497523794756c703094c","qrcJKsvZcpaQH1ykaCI1KRZsaDM2","","","","","","","","","","","","","","","","","","","2142","",""
"html-keyboard-response","199","379205","0.0-83.0-0.0","","1173","<div style=""display: flex; flex-direction: column; align-items: center; margin-top: -40px;""><img src=""images/pattern_3.png"" style=""width: 234px; height: 230px; margin-top: -50px;""><div style=""display: flex; justify-content: space-between; margin-top: 33px;""><img src=""images/choice_trial_2.png"" style=""width: 408px; height: 417px; margin-right: 200px;""><img src=""images/choice_trial_16.png"" style=""width: 408px; height: 417px;""></div></div>","j","delaylearn","learning","trial","63ea497523794756c703094c","qrcJKsvZcpaQH1ykaCI1KRZsaDM2","5","images/choice_trial_2.png","images/choice_trial_16.png","images/pattern_3.png","j","j","7000","2","16","2","1","36","1","1","16","180","","","","",""
"html-keyboard-response","200","380208","0.0-83.0-1.0","","null","<div style=""display: flex; flex-direction: column; align-items: center; margin-top: -40px;""><img src=""images/pattern_3.png"" style=""width: 234px; height: 230px; margin-top: -50px;""><div style=""display: flex; justify-content: space-between; margin-top: 33px;""><img src=""images/choice_trial_16.png"" style=""width: 408px; height: 417px; margin-left:608px;""></div></div>","null","delaylearn","learning","display_response","63ea497523794756c703094c","qrcJKsvZcpaQH1ykaCI1KRZsaDM2","","","","","","","","","","","","","","","","","chosen stimuli: images/choice_trial_16.png","","","",""
"html-keyboard-response","201","387210","0.0-83.0-2.0","","null","","null","delaylearn","learning","feedback_duration_window","63ea497523794756c703094c","qrcJKsvZcpaQH1ykaCI1KRZsaDM2","","","","","","","","","","","","","","","","","","7000","","",""
"html-keyboard-response","202","388713","0.0-83.0-3.0","","null","<div style='margin:auto;width: auto; font-size: 150%'><span style='font-weight: bold; font-size: 100px; color: green;'>+10 points!</span><br><br></div>","null","delaylearn","learning","feedback_image_window","63ea497523794756c703094c","qrcJKsvZcpaQH1ykaCI1KRZsaDM2","","","","","","","","","","","","","","","","","","","","",""
"html-keyboard-response","203","390390","0.0-84.0","","null","<div style=""font-size:100px;"">+</div>","null","delaylearn","learning","ITI","63ea497523794756c703094c","qrcJKsvZcpaQH1ykaCI1KRZsaDM2","","","","","","","","","","","","","","","","","","","1675","",""
"html-keyboard-response","204","391422","0.0-85.0-0.0","","1028","<div style=""display: flex; flex-direction: column; align-items: center; margin-top: -40px;""><img src=""images/pattern_4.png"" style=""width: 234px; height: 230px; margin-top: -50px;""><div style=""display: flex; justify-content: space-between; margin-top: 33px;""><img src=""images/choice_trial_4.png"" style=""width: 408px; height: 417px; margin-right: 200px;""><img src=""images/choice_trial_11.png"" style=""width: 408px; height: 417px;""></div></div>","j","delaylearn","learning","trial","63ea497523794756c703094c","qrcJKsvZcpaQH1ykaCI1KRZsaDM2","5","images/choice_trial_4.png","images/choice_trial_11.png","images/pattern_4.png","f","j","7000","4","11","3","1","37","1","0","11","180","","","","",""
"html-keyboard-response","205","392425","0.0-85.0-1.0","","null","<div style=""display: flex; flex-direction: column; align-items: center; margin-top: -40px;""><img src=""images/pattern_4.png"" style=""width: 234px; height: 230px; margin-top: -50px;""><div style=""display: flex; justify-content: space-between; margin-top: 33px;""><img src=""images/choice_trial_11.png"" style=""width: 408px; height: 417px; margin-left:608px;""></div></div>","null","delaylearn","learning","display_response","63ea497523794756c703094c","qrcJKsvZcpaQH1ykaCI1KRZsaDM2","","","","","","","","","","","","","","","","","chosen stimuli: images/choice_trial_11.png","","","",""
"html-keyboard-response","206","399427","0.0-85.0-2.0","","null","","null","delaylearn","learning","feedback_duration_window","63ea497523794756c703094c","qrcJKsvZcpaQH1ykaCI1KRZsaDM2","","","","","","","","","","","","","","","","","","7000","","",""
"html-keyboard-response","207","400929","0.0-85.0-3.0","","null","<div style='margin:auto;width: auto; font-size: 150%'><span style='font-weight: bold; font-size: 100px; color: red;'>0 points!</span><br><br></div>","null","delaylearn","learning","feedback_image_window","63ea497523794756c703094c","qrcJKsvZcpaQH1ykaCI1KRZsaDM2","","","","","","","","","","","","","","","","","","","","",""
"html-keyboard-response","208","402668","0.0-86.0","","null","<div style=""font-size:100px;"">+</div>","null","delaylearn","learning","ITI","63ea497523794756c703094c","qrcJKsvZcpaQH1ykaCI1KRZsaDM2","","","","","","","","","","","","","","","","","","","1737","",""
"html-keyboard-response","209","404483","0.0-87.0-0.0","","1812.9999999998836","<div style=""display: flex; flex-direction: column; align-items: center; margin-top: -40px;""><img src=""images/pattern_7.png"" style=""width: 234px; height: 230px; margin-top: -50px;""><div style=""display: flex; justify-content: space-between; margin-top: 33px;""><img src=""images/choice_trial_8.png"" style=""width: 408px; height: 417px; margin-right: 200px;""><img src=""images/choice_trial_10.png"" style=""width: 408px; height: 417px;""></div></div>","j","delaylearn","learning","trial","63ea497523794756c703094c","qrcJKsvZcpaQH1ykaCI1KRZsaDM2","5","images/choice_trial_8.png","images/choice_trial_10.png","images/pattern_7.png","f","f","750","8","10","6","0","38","0","0","10","180","","","","",""
"html-keyboard-response","210","405485","0.0-87.0-1.0","","null","<div style=""display: flex; flex-direction: column; align-items: center; margin-top: -40px;""><img src=""images/pattern_7.png"" style=""width: 234px; height: 230px; margin-top: -50px;""><div style=""display: flex; justify-content: space-between; margin-top: 33px;""><img src=""images/choice_trial_10.png"" style=""width: 408px; height: 417px; margin-left:608px;""></div></div>","null","delaylearn","learning","display_response","63ea497523794756c703094c","qrcJKsvZcpaQH1ykaCI1KRZsaDM2","","","","","","","","","","","","","","","","","chosen stimuli: images/choice_trial_10.png","","","",""
"html-keyboard-response","211","406237","0.0-87.0-2.0","","null","","null","delaylearn","learning","feedback_duration_window","63ea497523794756c703094c","qrcJKsvZcpaQH1ykaCI1KRZsaDM2","","","","","","","","","","","","","","","","","","750","","",""
"html-keyboard-response","212","407739","0.0-87.0-3.0","","null","<div style='margin:auto;width: auto; font-size: 150%'><span style='font-weight: bold; font-size: 100px; color: red;'>0 points!</span><br><br></div>","null","delaylearn","learning","feedback_image_window","63ea497523794756c703094c","qrcJKsvZcpaQH1ykaCI1KRZsaDM2","","","","","","","","","","","","","","","","","","","","",""
"html-keyboard-response","213","409977","0.0-88.0","","null","<div style=""font-size:100px;"">+</div>","null","delaylearn","learning","ITI","63ea497523794756c703094c","qrcJKsvZcpaQH1ykaCI1KRZsaDM2","","","","","","","","","","","","","","","","","","","2235","",""
"html-keyboard-response","214","410758","0.0-89.0-0.0","","778","<div style=""display: flex; flex-direction: column; align-items: center; margin-top: -40px;""><img src=""images/pattern_1.png"" style=""width: 234px; height: 230px; margin-top: -50px;""><div style=""display: flex; justify-content: space-between; margin-top: 33px;""><img src=""images/choice_trial_6.png"" style=""width: 408px; height: 417px; margin-right: 200px;""><img src=""images/choice_trial_15.png"" style=""width: 408px; height: 417px;""></div></div>","f","delaylearn","learning","trial","63ea497523794756c703094c","qrcJKsvZcpaQH1ykaCI1KRZsaDM2","5","images/choice_trial_6.png","images/choice_trial_15.png","images/pattern_1.png","f","f","7000","6","15","1","0","39","1","1","6","190","","","","",""
"html-keyboard-response","215","411761","0.0-89.0-1.0","","null","<div style=""display: flex; flex-direction: column; align-items: center; margin-top: -40px;""><img src=""images/pattern_1.png"" style=""width: 234px; height: 230px; margin-top: -50px;""><div style=""display: flex; justify-content: space-between; margin-top: 33px;""><img src=""images/choice_trial_6.png"" style=""width: 408px; height: 417px; margin-right: 608px;""></div></div>","null","delaylearn","learning","display_response","63ea497523794756c703094c","qrcJKsvZcpaQH1ykaCI1KRZsaDM2","","","","","","","","","","","","","","","","","chosen stimuli: images/choice_trial_6.png","","","",""
"html-keyboard-response","216","418763","0.0-89.0-2.0","","null","","null","delaylearn","learning","feedback_duration_window","63ea497523794756c703094c","qrcJKsvZcpaQH1ykaCI1KRZsaDM2","","","","","","","","","","","","","","","","","","7000","","",""
"html-keyboard-response","217","420267","0.0-89.0-3.0","","null","<div style='margin:auto;width: auto; font-size: 150%'><span style='font-weight: bold; font-size: 100px; color: green;'>+10 points!</span><br><br></div>","null","delaylearn","learning","feedback_image_window","63ea497523794756c703094c","qrcJKsvZcpaQH1ykaCI1KRZsaDM2","","","","","","","","","","","","","","","","","","","","",""
"html-keyboard-response","218","420769","0.0-90.0-0.0","","null","","null","","","mood_trial_fixation","","","","","","","","","","","","","","","","","","","","","","",""
"lmdlab-html-vas-response","219","424549","0.0-90.0-1.0","","2774","How happy are you right now?","0.44632523148148145","delaylearn","learning","mood_trial","63ea497523794756c703094c","qrcJKsvZcpaQH1ykaCI1KRZsaDM2","","","","","","","","","","","","","","","","","","","","[""Very unhappy"",""Very happy""]",""
"html-keyboard-response","220","426159","0.0-91.0","","null","<div style=""font-size:100px;"">+</div>","null","delaylearn","learning","ITI","63ea497523794756c703094c","qrcJKsvZcpaQH1ykaCI1KRZsaDM2","","","","","","","","","","","","","","","","","","","1608","",""
