"trial_type","trial_index","time_elapsed","internal_node_id","participant","rt","stimulus","response","exp_name","exp_stage","test_part","subjectID","databaseID","counterbal","choice_stimuli_1","choice_stimuli_2","pattern_stimuli","rewarded_answer","correct_answer","feedback_duration_times","stim_left","stim_right","pair","leftright_counter","trial","response_correct","response_rewarded","chosen_stim","counter","displayed_choice","feedback_durations","ITI_duration","labels","rest_warning"
"pavlovia","0","525","0.0-0.0","","","","","","","","","","","","","","","","","","","","","","","","","","","","","",""
"html-keyboard-response","1","3531","0.0-1.0","","null","<div style=""font-size:100px;"">+</div>","null","delaylearn","learning","pre_fixation","5f6fa1423bef885572c5d7e7","","","","","","","","","","","","","","","","","","","","","",""
"html-keyboard-response","2","4834","0.0-2.0-0.0","","1299.3999999994412","<div style=""display: flex; flex-direction: column; align-items: center; margin-top: -40px;""><img src=""images/demo_images/pattern_1.png"" style=""width: 234px; height: 230px; margin-top: -50px;""><div style=""display: flex; justify-content: space-between; margin-top: 33px;""><img src=""images/demo_images/choice_trial_2.png"" style=""width: 408px; height: 417px; margin-right: 200px;""><img src=""images/demo_images/choice_trial_1.png"" style=""width: 408px; height: 417px;""></div></div>","f","delaylearn","learning","trial","5f6fa1423bef885572c5d7e7","h6agCi9rs5QvEbYN5XzfFxzV85v2","1","images/demo_images/choice_trial_2.png","images/demo_images/choice_trial_1.png","images/demo_images/pattern_1.png","j","j","3000","2","1","20","1","1","0","0","2","0","","","","",""
"html-keyboard-response","3","5843","0.0-2.0-1.0","","null","<div style=""display: flex; flex-direction: column; align-items: center; margin-top: -40px;""><img src=""images/demo_images/pattern_1.png"" style=""width: 234px; height: 230px; margin-top: -50px;""><div style=""display: flex; justify-content: space-between; margin-top: 33px;""><img src=""images/demo_images/choice_trial_2.png"" style=""width: 408px; height: 417px; margin-right: 608px;""></div></div>","null","delaylearn","learning","display_response","5f6fa1423bef885572c5d7e7","h6agCi9rs5QvEbYN5XzfFxzV85v2","","","","","","","","","","","","","","","","","chosen stimuli: images/demo_images/choice_trial_2.png","","","",""
"html-keyboard-response","4","8845","0.0-2.0-2.0","","null","","null","delaylearn","learning","feedback_duration_window","5f6fa1423bef885572c5d7e7","h6agCi9rs5QvEbYN5XzfFxzV85v2","","","","","","","","","","","","","","","","","","3000","","",""
"html-keyboard-response","5","10360","0.0-2.0-3.0","","null","<div style='margin:auto;width: auto; font-size: 150%'><span style='font-weight: bold; font-size: 100px; color: red;'>0 points!</span><br><br></div>","null","delaylearn","learning","feedback_image_window","5f6fa1423bef885572c5d7e7","h6agCi9rs5QvEbYN5XzfFxzV85v2","","","","","","","","","","","","","","","","","","","","",""
"html-keyboard-response","6","12109","0.0-3.0","","null","<div style=""font-size:100px;"">+</div>","null","delaylearn","learning","ITI","5f6fa1423bef885572c5d7e7","h6agCi9rs5QvEbYN5XzfFxzV85v2","","","","","","","","","","","","","","","","","","","1737","",""
"html-keyboard-response","7","13599","0.0-4.0-0.0","","1487.199999999255","<div style=""display: flex; flex-direction: column; align-items: center; margin-top: -40px;""><img src=""images/demo_images/pattern_1.png"" style=""width: 234px; height: 230px; margin-top: -50px;""><div style=""display: flex; justify-content: space-between; margin-top: 33px;""><img src=""images/demo_images/choice_trial_2.png"" style=""width: 408px; height: 417px; margin-right: 200px;""><img src=""images/demo_images/choice_trial_1.png"" style=""width: 408px; height: 417px;""></div></div>","j","delaylearn","learning","trial","5f6fa1423bef885572c5d7e7","h6agCi9rs5QvEbYN5XzfFxzV85v2","1","images/demo_images/choice_trial_2.png","images/demo_images/choice_trial_1.png","images/demo_images/pattern_1.png","j","j","3000","2","1","20","1","2","1","1","1","10","","","","",""
"html-keyboard-response","8","14608","0.0-4.0-1.0","","null","<div style=""display: flex; flex-direction: column; align-items: center; margin-top: -40px;""><img src=""images/demo_images/pattern_1.png"" style=""width: 234px; height: 230px; margin-top: -50px;""><div style=""display: flex; justify-content: space-between; margin-top: 33px;""><img src=""images/demo_images/choice_trial_1.png"" style=""width: 408px; height: 417px; margin-left:608px;""></div></div>","null","delaylearn","learning","display_response","5f6fa1423bef885572c5d7e7","h6agCi9rs5QvEbYN5XzfFxzV85v2","","","","","","","","","","","","","","","","","chosen stimuli: images/demo_images/choice_trial_1.png","","","",""
"html-keyboard-response","9","17613","0.0-4.0-2.0","","null","","null","delaylearn","learning","feedback_duration_window","5f6fa1423bef885572c5d7e7","h6agCi9rs5QvEbYN5XzfFxzV85v2","","","","","","","","","","","","","","","","","","3000","","",""
"html-keyboard-response","10","19122","0.0-4.0-3.0","","null","<div style='margin:auto;width: auto; font-size: 150%'><span style='font-weight: bold; font-size: 100px; color: green;'>+10 points!</span><br><br></div>","null","delaylearn","learning","feedback_image_window","5f6fa1423bef885572c5d7e7","h6agCi9rs5QvEbYN5XzfFxzV85v2","","","","","","","","","","","","","","","","","","","","",""
"html-keyboard-response","11","21216","0.0-5.0","","null","<div style=""font-size:100px;"">+</div>","null","delaylearn","learning","ITI","5f6fa1423bef885572c5d7e7","h6agCi9rs5QvEbYN5XzfFxzV85v2","","","","","","","","","","","","","","","","","","","2086","",""
"html-keyboard-response","12","22733","0.0-6.0-0.0","","1514.7999999998137","<div style=""display: flex; flex-direction: column; align-items: center; margin-top: -40px;""><img src=""images/demo_images/pattern_1.png"" style=""width: 234px; height: 230px; margin-top: -50px;""><div style=""display: flex; justify-content: space-between; margin-top: 33px;""><img src=""images/demo_images/choice_trial_1.png"" style=""width: 408px; height: 417px; margin-right: 200px;""><img src=""images/demo_images/choice_trial_2.png"" style=""width: 408px; height: 417px;""></div></div>","f","delaylearn","learning","trial","5f6fa1423bef885572c5d7e7","h6agCi9rs5QvEbYN5XzfFxzV85v2","1","images/demo_images/choice_trial_1.png","images/demo_images/choice_trial_2.png","images/demo_images/pattern_1.png","j","f","3000","1","2","20","0","3","1","0","1","10","","","","",""
"html-keyboard-response","13","23749","0.0-6.0-1.0","","null","<div style=""display: flex; flex-direction: column; align-items: center; margin-top: -40px;""><img src=""images/demo_images/pattern_1.png"" style=""width: 234px; height: 230px; margin-top: -50px;""><div style=""display: flex; justify-content: space-between; margin-top: 33px;""><img src=""images/demo_images/choice_trial_1.png"" style=""width: 408px; height: 417px; margin-right: 608px;""></div></div>","null","delaylearn","learning","display_response","5f6fa1423bef885572c5d7e7","h6agCi9rs5QvEbYN5XzfFxzV85v2","","","","","","","","","","","","","","","","","chosen stimuli: images/demo_images/choice_trial_1.png","","","",""
"html-keyboard-response","14","26764","0.0-6.0-2.0","","null","","null","delaylearn","learning","feedback_duration_window","5f6fa1423bef885572c5d7e7","h6agCi9rs5QvEbYN5XzfFxzV85v2","","","","","","","","","","","","","","","","","","3000","","",""
"html-keyboard-response","15","28279","0.0-6.0-3.0","","null","<div style='margin:auto;width: auto; font-size: 150%'><span style='font-weight: bold; font-size: 100px; color: red;'>0 points!</span><br><br></div>","null","delaylearn","learning","feedback_image_window","5f6fa1423bef885572c5d7e7","h6agCi9rs5QvEbYN5XzfFxzV85v2","","","","","","","","","","","","","","","","","","","","",""
"html-keyboard-response","16","29810","0.0-7.0","","null","<div style=""font-size:100px;"">+</div>","null","delaylearn","learning","ITI","5f6fa1423bef885572c5d7e7","h6agCi9rs5QvEbYN5XzfFxzV85v2","","","","","","","","","","","","","","","","","","","1511","",""
"html-keyboard-response","17","30758","0.0-8.0-0.0","","945.2000000001863","<div style=""display: flex; flex-direction: column; align-items: center; margin-top: -40px;""><img src=""images/demo_images/pattern_1.png"" style=""width: 234px; height: 230px; margin-top: -50px;""><div style=""display: flex; justify-content: space-between; margin-top: 33px;""><img src=""images/demo_images/choice_trial_1.png"" style=""width: 408px; height: 417px; margin-right: 200px;""><img src=""images/demo_images/choice_trial_2.png"" style=""width: 408px; height: 417px;""></div></div>","j","delaylearn","learning","trial","5f6fa1423bef885572c5d7e7","h6agCi9rs5QvEbYN5XzfFxzV85v2","1","images/demo_images/choice_trial_1.png","images/demo_images/choice_trial_2.png","images/demo_images/pattern_1.png","f","f","3000","1","2","20","0","4","0","0","2","10","","","","",""
"html-keyboard-response","18","31771","0.0-8.0-1.0","","null","<div style=""display: flex; flex-direction: column; align-items: center; margin-top: -40px;""><img src=""images/demo_images/pattern_1.png"" style=""width: 234px; height: 230px; margin-top: -50px;""><div style=""display: flex; justify-content: space-between; margin-top: 33px;""><img src=""images/demo_images/choice_trial_2.png"" style=""width: 408px; height: 417px; margin-left:608px;""></div></div>","null","delaylearn","learning","display_response","5f6fa1423bef885572c5d7e7","h6agCi9rs5QvEbYN5XzfFxzV85v2","","","","","","","","","","","","","","","","","chosen stimuli: images/demo_images/choice_trial_2.png","","","",""
"html-keyboard-response","19","34779","0.0-8.0-2.0","","null","","null","delaylearn","learning","feedback_duration_window","5f6fa1423bef885572c5d7e7","h6agCi9rs5QvEbYN5XzfFxzV85v2","","","","","","","","","","","","","","","","","","3000","","",""
"html-keyboard-response","20","36295","0.0-8.0-3.0","","null","<div style='margin:auto;width: auto; font-size: 150%'><span style='font-weight: bold; font-size: 100px; color: red;'>0 points!</span><br><br></div>","null","delaylearn","learning","feedback_image_window","5f6fa1423bef885572c5d7e7","h6agCi9rs5QvEbYN5XzfFxzV85v2","","","","","","","","","","","","","","","","","","","","",""
"html-keyboard-response","21","36811","0.0-9.0-0.0","","null","","null","","","mood_trial_fixation","","","","","","","","","","","","","","","","","","","","","","",""
"lmdlab-html-vas-response","22","44219","0.0-9.0-1.0","","6381","How happy are you right now?","0.2820456925358858","delaylearn","learning","mood_trial","5f6fa1423bef885572c5d7e7","h6agCi9rs5QvEbYN5XzfFxzV85v2","","","","","","","","","","","","","","","","","","","","[""Very unhappy"",""Very happy""]",""
"html-keyboard-response","23","45984","0.0-10.0","","null","<div style=""font-size:100px;"">+</div>","null","delaylearn","learning","ITI","5f6fa1423bef885572c5d7e7","h6agCi9rs5QvEbYN5XzfFxzV85v2","","","","","","","","","","","","","","","","","","","1757","",""
"html-keyboard-response","24","48242","0.0-11.0-0.0","","2255.199999999255","<div style=""display: flex; flex-direction: column; align-items: center; margin-top: -40px;""><img src=""images/demo_images/pattern_1.png"" style=""width: 234px; height: 230px; margin-top: -50px;""><div style=""display: flex; justify-content: space-between; margin-top: 33px;""><img src=""images/demo_images/choice_trial_2.png"" style=""width: 408px; height: 417px; margin-right: 200px;""><img src=""images/demo_images/choice_trial_1.png"" style=""width: 408px; height: 417px;""></div></div>","j","delaylearn","learning","trial","5f6fa1423bef885572c5d7e7","h6agCi9rs5QvEbYN5XzfFxzV85v2","1","images/demo_images/choice_trial_2.png","images/demo_images/choice_trial_1.png","images/demo_images/pattern_1.png","j","j","3000","2","1","20","1","5","1","1","1","20","","","","",""
"html-keyboard-response","25","49250","0.0-11.0-1.0","","null","<div style=""display: flex; flex-direction: column; align-items: center; margin-top: -40px;""><img src=""images/demo_images/pattern_1.png"" style=""width: 234px; height: 230px; margin-top: -50px;""><div style=""display: flex; justify-content: space-between; margin-top: 33px;""><img src=""images/demo_images/choice_trial_1.png"" style=""width: 408px; height: 417px; margin-left:608px;""></div></div>","null","delaylearn","learning","display_response","5f6fa1423bef885572c5d7e7","h6agCi9rs5QvEbYN5XzfFxzV85v2","","","","","","","","","","","","","","","","","chosen stimuli: images/demo_images/choice_trial_1.png","","","",""
"html-keyboard-response","26","52274","0.0-11.0-2.0","","null","","null","delaylearn","learning","feedback_duration_window","5f6fa1423bef885572c5d7e7","h6agCi9rs5QvEbYN5XzfFxzV85v2","","","","","","","","","","","","","","","","","","3000","","",""
"html-keyboard-response","27","53779","0.0-11.0-3.0","","null","<div style='margin:auto;width: auto; font-size: 150%'><span style='font-weight: bold; font-size: 100px; color: green;'>+10 points!</span><br><br></div>","null","delaylearn","learning","feedback_image_window","5f6fa1423bef885572c5d7e7","h6agCi9rs5QvEbYN5XzfFxzV85v2","","","","","","","","","","","","","","","","","","","","",""
"html-keyboard-response","28","55982","0.0-12.0","","null","<div style=""font-size:100px;"">+</div>","null","delaylearn","learning","ITI","5f6fa1423bef885572c5d7e7","h6agCi9rs5QvEbYN5XzfFxzV85v2","","","","","","","","","","","","","","","","","","","2179","",""
"html-keyboard-response","29","57537","0.0-13.0-0.0","","1551.7999999998137","<div style=""display: flex; flex-direction: column; align-items: center; margin-top: -40px;""><img src=""images/demo_images/pattern_1.png"" style=""width: 234px; height: 230px; margin-top: -50px;""><div style=""display: flex; justify-content: space-between; margin-top: 33px;""><img src=""images/demo_images/choice_trial_1.png"" style=""width: 408px; height: 417px; margin-right: 200px;""><img src=""images/demo_images/choice_trial_2.png"" style=""width: 408px; height: 417px;""></div></div>","f","delaylearn","learning","trial","5f6fa1423bef885572c5d7e7","h6agCi9rs5QvEbYN5XzfFxzV85v2","1","images/demo_images/choice_trial_1.png","images/demo_images/choice_trial_2.png","images/demo_images/pattern_1.png","f","f","3000","1","2","20","0","6","1","1","1","30","","","","",""
"html-keyboard-response","30","58546","0.0-13.0-1.0","","null","<div style=""display: flex; flex-direction: column; align-items: center; margin-top: -40px;""><img src=""images/demo_images/pattern_1.png"" style=""width: 234px; height: 230px; margin-top: -50px;""><div style=""display: flex; justify-content: space-between; margin-top: 33px;""><img src=""images/demo_images/choice_trial_1.png"" style=""width: 408px; height: 417px; margin-right: 608px;""></div></div>","null","delaylearn","learning","display_response","5f6fa1423bef885572c5d7e7","h6agCi9rs5QvEbYN5XzfFxzV85v2","","","","","","","","","","","","","","","","","chosen stimuli: images/demo_images/choice_trial_1.png","","","",""
"html-keyboard-response","31","61560","0.0-13.0-2.0","","null","","null","delaylearn","learning","feedback_duration_window","5f6fa1423bef885572c5d7e7","h6agCi9rs5QvEbYN5XzfFxzV85v2","","","","","","","","","","","","","","","","","","3000","","",""
"html-keyboard-response","32","63077","0.0-13.0-3.0","","null","<div style='margin:auto;width: auto; font-size: 150%'><span style='font-weight: bold; font-size: 100px; color: green;'>+10 points!</span><br><br></div>","null","delaylearn","learning","feedback_image_window","5f6fa1423bef885572c5d7e7","h6agCi9rs5QvEbYN5XzfFxzV85v2","","","","","","","","","","","","","","","","","","","","",""
"html-keyboard-response","33","64748","0.0-14.0","","null","<div style=""font-size:100px;"">+</div>","null","delaylearn","learning","ITI","5f6fa1423bef885572c5d7e7","h6agCi9rs5QvEbYN5XzfFxzV85v2","","","","","","","","","","","","","","","","","","","1670","",""
"html-keyboard-response","34","65541","0.0-15.0-0.0","","792.0999999996275","<div style=""display: flex; flex-direction: column; align-items: center; margin-top: -40px;""><img src=""images/demo_images/pattern_1.png"" style=""width: 234px; height: 230px; margin-top: -50px;""><div style=""display: flex; justify-content: space-between; margin-top: 33px;""><img src=""images/demo_images/choice_trial_2.png"" style=""width: 408px; height: 417px; margin-right: 200px;""><img src=""images/demo_images/choice_trial_1.png"" style=""width: 408px; height: 417px;""></div></div>","j","delaylearn","learning","trial","5f6fa1423bef885572c5d7e7","h6agCi9rs5QvEbYN5XzfFxzV85v2","1","images/demo_images/choice_trial_2.png","images/demo_images/choice_trial_1.png","images/demo_images/pattern_1.png","j","j","3000","2","1","20","1","7","1","1","1","40","","","","",""
"html-keyboard-response","35","66546","0.0-15.0-1.0","","null","<div style=""display: flex; flex-direction: column; align-items: center; margin-top: -40px;""><img src=""images/demo_images/pattern_1.png"" style=""width: 234px; height: 230px; margin-top: -50px;""><div style=""display: flex; justify-content: space-between; margin-top: 33px;""><img src=""images/demo_images/choice_trial_1.png"" style=""width: 408px; height: 417px; margin-left:608px;""></div></div>","null","delaylearn","learning","display_response","5f6fa1423bef885572c5d7e7","h6agCi9rs5QvEbYN5XzfFxzV85v2","","","","","","","","","","","","","","","","","chosen stimuli: images/demo_images/choice_trial_1.png","","","",""
"html-keyboard-response","36","69560","0.0-15.0-2.0","","null","","null","delaylearn","learning","feedback_duration_window","5f6fa1423bef885572c5d7e7","h6agCi9rs5QvEbYN5XzfFxzV85v2","","","","","","","","","","","","","","","","","","3000","","",""
"html-keyboard-response","37","71078","0.0-15.0-3.0","","null","<div style='margin:auto;width: auto; font-size: 150%'><span style='font-weight: bold; font-size: 100px; color: green;'>+10 points!</span><br><br></div>","null","delaylearn","learning","feedback_image_window","5f6fa1423bef885572c5d7e7","h6agCi9rs5QvEbYN5XzfFxzV85v2","","","","","","","","","","","","","","","","","","","","",""
"html-keyboard-response","38","73124","0.0-16.0","","null","<div style=""font-size:100px;"">+</div>","null","delaylearn","learning","ITI","5f6fa1423bef885572c5d7e7","h6agCi9rs5QvEbYN5XzfFxzV85v2","","","","","","","","","","","","","","","","","","","2036","",""
"html-keyboard-response","39","73735","0.0-17.0-0.0","","608.8000000007451","<div style=""display: flex; flex-direction: column; align-items: center; margin-top: -40px;""><img src=""images/demo_images/pattern_1.png"" style=""width: 234px; height: 230px; margin-top: -50px;""><div style=""display: flex; justify-content: space-between; margin-top: 33px;""><img src=""images/demo_images/choice_trial_1.png"" style=""width: 408px; height: 417px; margin-right: 200px;""><img src=""images/demo_images/choice_trial_2.png"" style=""width: 408px; height: 417px;""></div></div>","f","delaylearn","learning","trial","5f6fa1423bef885572c5d7e7","h6agCi9rs5QvEbYN5XzfFxzV85v2","1","images/demo_images/choice_trial_1.png","images/demo_images/choice_trial_2.png","images/demo_images/pattern_1.png","f","f","3000","1","2","20","0","8","1","1","1","50","","","","",""
"html-keyboard-response","40","74750","0.0-17.0-1.0","","null","<div style=""display: flex; flex-direction: column; align-items: center; margin-top: -40px;""><img src=""images/demo_images/pattern_1.png"" style=""width: 234px; height: 230px; margin-top: -50px;""><div style=""display: flex; justify-content: space-between; margin-top: 33px;""><img src=""images/demo_images/choice_trial_1.png"" style=""width: 408px; height: 417px; margin-right: 608px;""></div></div>","null","delaylearn","learning","display_response","5f6fa1423bef885572c5d7e7","h6agCi9rs5QvEbYN5XzfFxzV85v2","","","","","","","","","","","","","","","","","chosen stimuli: images/demo_images/choice_trial_1.png","","","",""
"html-keyboard-response","41","77763","0.0-17.0-2.0","","null","","null","delaylearn","learning","feedback_duration_window","5f6fa1423bef885572c5d7e7","h6agCi9rs5QvEbYN5XzfFxzV85v2","","","","","","","","","","","","","","","","","","3000","","",""
"html-keyboard-response","42","79272","0.0-17.0-3.0","","null","<div style='margin:auto;width: auto; font-size: 150%'><span style='font-weight: bold; font-size: 100px; color: green;'>+10 points!</span><br><br></div>","null","delaylearn","learning","feedback_image_window","5f6fa1423bef885572c5d7e7","h6agCi9rs5QvEbYN5XzfFxzV85v2","","","","","","","","","","","","","","","","","","","","",""
"html-button-response","43","84280","0.0-18.0","","5006.0999999996275","
  <div style=""display: flex; align-items: center; justify-content: center; height: 80vh;"">
  <div>
          <img src=""images/inst_demo_finish.png"" style=""width: 80vw; height:auto;"">
          <br><br>
      </div>
      <br><br>
  </div>","0","","","","","","","","","","","","","","","","","","","","","","","","","",""
"html-keyboard-response","44","89442","0.0-19.0","","5162.4000000003725","
  <div style=""display: flex; align-items: center; justify-content: center; height: 80vh;"">
  <div>
          <img src=""images/inst_6.png"" style=""width: 80vw; height:auto;"">
          <br><br>
      </div>
      <br><br>
  </div>","f","","","","","","","","","","","","","","","","","","","","","","","","","",""
"html-keyboard-response","45","92451","0.0-20.0","","null","<div style=""font-size:100px;"">+</div>","null","delaylearn","learning","pre_fixation","5f6fa1423bef885572c5d7e7","","","","","","","","","","","","","","","","","","","","","",""
"html-keyboard-response","46","94498","0.0-21.0","","null","<div style=""font-size:100px;"">+</div>","null","delaylearn","learning","ITI","5f6fa1423bef885572c5d7e7","h6agCi9rs5QvEbYN5XzfFxzV85v2","","","","","","","","","","","","","","","","","","","2043","",""
"html-keyboard-response","47","95755","0.0-22.0-0.0","","1254.9000000003725","<div style=""display: flex; flex-direction: column; align-items: center; margin-top: -40px;""><img src=""images/pattern_3.png"" style=""width: 234px; height: 230px; margin-top: -50px;""><div style=""display: flex; justify-content: space-between; margin-top: 33px;""><img src=""images/choice_trial_5.png"" style=""width: 408px; height: 417px; margin-right: 200px;""><img src=""images/choice_trial_6.png"" style=""width: 408px; height: 417px;""></div></div>","f","delaylearn","learning","trial","5f6fa1423bef885572c5d7e7","h6agCi9rs5QvEbYN5XzfFxzV85v2","1","images/choice_trial_5.png","images/choice_trial_6.png","images/pattern_3.png","f","f","7000","5","6","2","0","9","1","1","5","60","","","","",""
"html-keyboard-response","48","96770","0.0-22.0-1.0","","null","<div style=""display: flex; flex-direction: column; align-items: center; margin-top: -40px;""><img src=""images/pattern_3.png"" style=""width: 234px; height: 230px; margin-top: -50px;""><div style=""display: flex; justify-content: space-between; margin-top: 33px;""><img src=""images/choice_trial_5.png"" style=""width: 408px; height: 417px; margin-right: 608px;""></div></div>","null","delaylearn","learning","display_response","5f6fa1423bef885572c5d7e7","h6agCi9rs5QvEbYN5XzfFxzV85v2","","","","","","","","","","","","","","","","","chosen stimuli: images/choice_trial_5.png","","","",""
"html-keyboard-response","49","103785","0.0-22.0-2.0","","null","","null","delaylearn","learning","feedback_duration_window","5f6fa1423bef885572c5d7e7","h6agCi9rs5QvEbYN5XzfFxzV85v2","","","","","","","","","","","","","","","","","","7000","","",""
"html-keyboard-response","50","105297","0.0-22.0-3.0","","null","<div style='margin:auto;width: auto; font-size: 150%'><span style='font-weight: bold; font-size: 100px; color: green;'>+10 points!</span><br><br></div>","null","delaylearn","learning","feedback_image_window","5f6fa1423bef885572c5d7e7","h6agCi9rs5QvEbYN5XzfFxzV85v2","","","","","","","","","","","","","","","","","","","","",""
"html-keyboard-response","51","107436","0.0-23.0","","null","<div style=""font-size:100px;"">+</div>","null","delaylearn","learning","ITI","5f6fa1423bef885572c5d7e7","h6agCi9rs5QvEbYN5XzfFxzV85v2","","","","","","","","","","","","","","","","","","","2127","",""
"html-keyboard-response","52","109087","0.0-24.0-0.0","","1648.8999999994412","<div style=""display: flex; flex-direction: column; align-items: center; margin-top: -40px;""><img src=""images/pattern_7.png"" style=""width: 234px; height: 230px; margin-top: -50px;""><div style=""display: flex; justify-content: space-between; margin-top: 33px;""><img src=""images/choice_trial_14.png"" style=""width: 408px; height: 417px; margin-right: 200px;""><img src=""images/choice_trial_13.png"" style=""width: 408px; height: 417px;""></div></div>","f","delaylearn","learning","trial","5f6fa1423bef885572c5d7e7","h6agCi9rs5QvEbYN5XzfFxzV85v2","1","images/choice_trial_14.png","images/choice_trial_13.png","images/pattern_7.png","j","j","750","14","13","6","1","10","0","0","14","60","","","","",""
"html-keyboard-response","53","110091","0.0-24.0-1.0","","null","<div style=""display: flex; flex-direction: column; align-items: center; margin-top: -40px;""><img src=""images/pattern_7.png"" style=""width: 234px; height: 230px; margin-top: -50px;""><div style=""display: flex; justify-content: space-between; margin-top: 33px;""><img src=""images/choice_trial_14.png"" style=""width: 408px; height: 417px; margin-right: 608px;""></div></div>","null","delaylearn","learning","display_response","5f6fa1423bef885572c5d7e7","h6agCi9rs5QvEbYN5XzfFxzV85v2","","","","","","","","","","","","","","","","","chosen stimuli: images/choice_trial_14.png","","","",""
"html-keyboard-response","54","110850","0.0-24.0-2.0","","null","","null","delaylearn","learning","feedback_duration_window","5f6fa1423bef885572c5d7e7","h6agCi9rs5QvEbYN5XzfFxzV85v2","","","","","","","","","","","","","","","","","","750","","",""
"html-keyboard-response","55","112358","0.0-24.0-3.0","","null","<div style='margin:auto;width: auto; font-size: 150%'><span style='font-weight: bold; font-size: 100px; color: red;'>0 points!</span><br><br></div>","null","delaylearn","learning","feedback_image_window","5f6fa1423bef885572c5d7e7","h6agCi9rs5QvEbYN5XzfFxzV85v2","","","","","","","","","","","","","","","","","","","","",""
"html-keyboard-response","56","114672","0.0-25.0","","null","<div style=""font-size:100px;"">+</div>","null","delaylearn","learning","ITI","5f6fa1423bef885572c5d7e7","h6agCi9rs5QvEbYN5XzfFxzV85v2","","","","","","","","","","","","","","","","","","","2301","",""
"html-keyboard-response","57","116067","0.0-26.0-0.0","","1392.7999999998137","<div style=""display: flex; flex-direction: column; align-items: center; margin-top: -40px;""><img src=""images/pattern_4.png"" style=""width: 234px; height: 230px; margin-top: -50px;""><div style=""display: flex; justify-content: space-between; margin-top: 33px;""><img src=""images/choice_trial_7.png"" style=""width: 408px; height: 417px; margin-right: 200px;""><img src=""images/choice_trial_8.png"" style=""width: 408px; height: 417px;""></div></div>","j","delaylearn","learning","trial","5f6fa1423bef885572c5d7e7","h6agCi9rs5QvEbYN5XzfFxzV85v2","1","images/choice_trial_7.png","images/choice_trial_8.png","images/pattern_4.png","f","f","7000","7","8","3","0","11","0","0","8","60","","","","",""
"html-keyboard-response","58","117078","0.0-26.0-1.0","","null","<div style=""display: flex; flex-direction: column; align-items: center; margin-top: -40px;""><img src=""images/pattern_4.png"" style=""width: 234px; height: 230px; margin-top: -50px;""><div style=""display: flex; justify-content: space-between; margin-top: 33px;""><img src=""images/choice_trial_8.png"" style=""width: 408px; height: 417px; margin-left:608px;""></div></div>","null","delaylearn","learning","display_response","5f6fa1423bef885572c5d7e7","h6agCi9rs5QvEbYN5XzfFxzV85v2","","","","","","","","","","","","","","","","","chosen stimuli: images/choice_trial_8.png","","","",""
"html-keyboard-response","59","124092","0.0-26.0-2.0","","null","","null","delaylearn","learning","feedback_duration_window","5f6fa1423bef885572c5d7e7","h6agCi9rs5QvEbYN5XzfFxzV85v2","","","","","","","","","","","","","","","","","","7000","","",""
"html-keyboard-response","60","125608","0.0-26.0-3.0","","null","<div style='margin:auto;width: auto; font-size: 150%'><span style='font-weight: bold; font-size: 100px; color: red;'>0 points!</span><br><br></div>","null","delaylearn","learning","feedback_image_window","5f6fa1423bef885572c5d7e7","h6agCi9rs5QvEbYN5XzfFxzV85v2","","","","","","","","","","","","","","","","","","","","",""
"html-keyboard-response","61","128059","0.0-27.0","","null","<div style=""font-size:100px;"">+</div>","null","delaylearn","learning","ITI","5f6fa1423bef885572c5d7e7","h6agCi9rs5QvEbYN5XzfFxzV85v2","","","","","","","","","","","","","","","","","","","2442","",""
"html-keyboard-response","62","129238","0.0-28.0-0.0","","1176.2000000001863","<div style=""display: flex; flex-direction: column; align-items: center; margin-top: -40px;""><img src=""images/pattern_5.png"" style=""width: 234px; height: 230px; margin-top: -50px;""><div style=""display: flex; justify-content: space-between; margin-top: 33px;""><img src=""images/choice_trial_10.png"" style=""width: 408px; height: 417px; margin-right: 200px;""><img src=""images/choice_trial_9.png"" style=""width: 408px; height: 417px;""></div></div>","j","delaylearn","learning","trial","5f6fa1423bef885572c5d7e7","h6agCi9rs5QvEbYN5XzfFxzV85v2","1","images/choice_trial_10.png","images/choice_trial_9.png","images/pattern_5.png","j","j","750","10","9","4","1","12","1","1","9","70","","","","",""
"html-keyboard-response","63","130247","0.0-28.0-1.0","","null","<div style=""display: flex; flex-direction: column; align-items: center; margin-top: -40px;""><img src=""images/pattern_5.png"" style=""width: 234px; height: 230px; margin-top: -50px;""><div style=""display: flex; justify-content: space-between; margin-top: 33px;""><img src=""images/choice_trial_9.png"" style=""width: 408px; height: 417px; margin-left:608px;""></div></div>","null","delaylearn","learning","display_response","5f6fa1423bef885572c5d7e7","h6agCi9rs5QvEbYN5XzfFxzV85v2","","","","","","","","","","","","","","","","","chosen stimuli: images/choice_trial_9.png","","","",""
"html-keyboard-response","64","131014","0.0-28.0-2.0","","null","","null","delaylearn","learning","feedback_duration_window","5f6fa1423bef885572c5d7e7","h6agCi9rs5QvEbYN5XzfFxzV85v2","","","","","","","","","","","","","","","","","","750","","",""
"html-keyboard-response","65","132529","0.0-28.0-3.0","","null","<div style='margin:auto;width: auto; font-size: 150%'><span style='font-weight: bold; font-size: 100px; color: green;'>+10 points!</span><br><br></div>","null","delaylearn","learning","feedback_image_window","5f6fa1423bef885572c5d7e7","h6agCi9rs5QvEbYN5XzfFxzV85v2","","","","","","","","","","","","","","","","","","","","",""
"html-keyboard-response","66","135012","0.0-29.0","","null","<div style=""font-size:100px;"">+</div>","null","delaylearn","learning","ITI","5f6fa1423bef885572c5d7e7","h6agCi9rs5QvEbYN5XzfFxzV85v2","","","","","","","","","","","","","","","","","","","2479","",""
"html-keyboard-response","67","136116","0.0-30.0-0.0","","1101.7999999998137","<div style=""display: flex; flex-direction: column; align-items: center; margin-top: -40px;""><img src=""images/pattern_6.png"" style=""width: 234px; height: 230px; margin-top: -50px;""><div style=""display: flex; justify-content: space-between; margin-top: 33px;""><img src=""images/choice_trial_11.png"" style=""width: 408px; height: 417px; margin-right: 200px;""><img src=""images/choice_trial_12.png"" style=""width: 408px; height: 417px;""></div></div>","f","delaylearn","learning","trial","5f6fa1423bef885572c5d7e7","h6agCi9rs5QvEbYN5XzfFxzV85v2","1","images/choice_trial_11.png","images/choice_trial_12.png","images/pattern_6.png","j","f","750","11","12","5","0","13","1","0","11","70","","","","",""
"html-keyboard-response","68","137123","0.0-30.0-1.0","","null","<div style=""display: flex; flex-direction: column; align-items: center; margin-top: -40px;""><img src=""images/pattern_6.png"" style=""width: 234px; height: 230px; margin-top: -50px;""><div style=""display: flex; justify-content: space-between; margin-top: 33px;""><img src=""images/choice_trial_11.png"" style=""width: 408px; height: 417px; margin-right: 608px;""></div></div>","null","delaylearn","learning","display_response","5f6fa1423bef885572c5d7e7","h6agCi9rs5QvEbYN5XzfFxzV85v2","","","","","","","","","","","","","","","","","chosen stimuli: images/choice_trial_11.png","","","",""
"html-keyboard-response","69","137889","0.0-30.0-2.0","","null","","null","delaylearn","learning","feedback_duration_window","5f6fa1423bef885572c5d7e7","h6agCi9rs5QvEbYN5XzfFxzV85v2","","","","","","","","","","","","","","","","","","750","","",""
"html-keyboard-response","70","139403","0.0-30.0-3.0","","null","<div style='margin:auto;width: auto; font-size: 150%'><span style='font-weight: bold; font-size: 100px; color: red;'>0 points!</span><br><br></div>","null","delaylearn","learning","feedback_image_window","5f6fa1423bef885572c5d7e7","h6agCi9rs5QvEbYN5XzfFxzV85v2","","","","","","","","","","","","","","","","","","","","",""
"html-keyboard-response","71","139920","0.0-31.0-0.0","","null","","null","","","mood_trial_fixation","","","","","","","","","","","","","","","","","","","","","","",""
"lmdlab-html-vas-response","72","145044","0.0-31.0-1.0","","4106","How happy are you right now?","0.2222463126360899","delaylearn","learning","mood_trial","5f6fa1423bef885572c5d7e7","h6agCi9rs5QvEbYN5XzfFxzV85v2","","","","","","","","","","","","","","","","","","","","[""Very unhappy"",""Very happy""]",""
"html-keyboard-response","73","146920","0.0-32.0","","null","<div style=""font-size:100px;"">+</div>","null","delaylearn","learning","ITI","5f6fa1423bef885572c5d7e7","h6agCi9rs5QvEbYN5XzfFxzV85v2","","","","","","","","","","","","","","","","","","","1855","",""
"html-keyboard-response","74","147968","0.0-33.0-0.0","","1045.5","<div style=""display: flex; flex-direction: column; align-items: center; margin-top: -40px;""><img src=""images/pattern_1.png"" style=""width: 234px; height: 230px; margin-top: -50px;""><div style=""display: flex; justify-content: space-between; margin-top: 33px;""><img src=""images/choice_trial_2.png"" style=""width: 408px; height: 417px; margin-right: 200px;""><img src=""images/choice_trial_1.png"" style=""width: 408px; height: 417px;""></div></div>","f","delaylearn","learning","trial","5f6fa1423bef885572c5d7e7","h6agCi9rs5QvEbYN5XzfFxzV85v2","1","images/choice_trial_2.png","images/choice_trial_1.png","images/pattern_1.png","j","j","7000","2","1","1","1","14","0","0","2","70","","","","",""
"html-keyboard-response","75","148982","0.0-33.0-1.0","","null","<div style=""display: flex; flex-direction: column; align-items: center; margin-top: -40px;""><img src=""images/pattern_1.png"" style=""width: 234px; height: 230px; margin-top: -50px;""><div style=""display: flex; justify-content: space-between; margin-top: 33px;""><img src=""images/choice_trial_2.png"" style=""width: 408px; height: 417px; margin-right: 608px;""></div></div>","null","delaylearn","learning","display_response","5f6fa1423bef885572c5d7e7","h6agCi9rs5QvEbYN5XzfFxzV85v2","","","","","","","","","","","","","","","","","chosen stimuli: images/choice_trial_2.png","","","",""
"html-keyboard-response","76","155998","0.0-33.0-2.0","","null","","null","delaylearn","learning","feedback_duration_window","5f6fa1423bef885572c5d7e7","h6agCi9rs5QvEbYN5XzfFxzV85v2","","","","","","","","","","","","","","","","","","7000","","",""
"html-keyboard-response","77","157514","0.0-33.0-3.0","","null","<div style='margin:auto;width: auto; font-size: 150%'><span style='font-weight: bold; font-size: 100px; color: red;'>0 points!</span><br><br></div>","null","delaylearn","learning","feedback_image_window","5f6fa1423bef885572c5d7e7","h6agCi9rs5QvEbYN5XzfFxzV85v2","","","","","","","","","","","","","","","","","","","","",""
"html-keyboard-response","78","159247","0.0-34.0","","null","<div style=""font-size:100px;"">+</div>","null","delaylearn","learning","ITI","5f6fa1423bef885572c5d7e7","h6agCi9rs5QvEbYN5XzfFxzV85v2","","","","","","","","","","","","","","","","","","","1724","",""
"html-keyboard-response","79","160753","0.0-35.0-0.0","","1503.2999999998137","<div style=""display: flex; flex-direction: column; align-items: center; margin-top: -40px;""><img src=""images/pattern_3.png"" style=""width: 234px; height: 230px; margin-top: -50px;""><div style=""display: flex; justify-content: space-between; margin-top: 33px;""><img src=""images/choice_trial_6.png"" style=""width: 408px; height: 417px; margin-right: 200px;""><img src=""images/choice_trial_5.png"" style=""width: 408px; height: 417px;""></div></div>","j","delaylearn","learning","trial","5f6fa1423bef885572c5d7e7","h6agCi9rs5QvEbYN5XzfFxzV85v2","1","images/choice_trial_6.png","images/choice_trial_5.png","images/pattern_3.png","f","j","7000","6","5","2","1","15","1","0","5","70","","","","",""
"html-keyboard-response","80","161763","0.0-35.0-1.0","","null","<div style=""display: flex; flex-direction: column; align-items: center; margin-top: -40px;""><img src=""images/pattern_3.png"" style=""width: 234px; height: 230px; margin-top: -50px;""><div style=""display: flex; justify-content: space-between; margin-top: 33px;""><img src=""images/choice_trial_5.png"" style=""width: 408px; height: 417px; margin-left:608px;""></div></div>","null","delaylearn","learning","display_response","5f6fa1423bef885572c5d7e7","h6agCi9rs5QvEbYN5XzfFxzV85v2","","","","","","","","","","","","","","","","","chosen stimuli: images/choice_trial_5.png","","","",""
"html-keyboard-response","81","168780","0.0-35.0-2.0","","null","","null","delaylearn","learning","feedback_duration_window","5f6fa1423bef885572c5d7e7","h6agCi9rs5QvEbYN5XzfFxzV85v2","","","","","","","","","","","","","","","","","","7000","","",""
"html-keyboard-response","82","170294","0.0-35.0-3.0","","null","<div style='margin:auto;width: auto; font-size: 150%'><span style='font-weight: bold; font-size: 100px; color: red;'>0 points!</span><br><br></div>","null","delaylearn","learning","feedback_image_window","5f6fa1423bef885572c5d7e7","h6agCi9rs5QvEbYN5XzfFxzV85v2","","","","","","","","","","","","","","","","","","","","",""
"html-keyboard-response","83","172280","0.0-36.0","","null","<div style=""font-size:100px;"">+</div>","null","delaylearn","learning","ITI","5f6fa1423bef885572c5d7e7","h6agCi9rs5QvEbYN5XzfFxzV85v2","","","","","","","","","","","","","","","","","","","1975","",""
"html-keyboard-response","84","173771","0.0-37.0-0.0","","1488.5999999996275","<div style=""display: flex; flex-direction: column; align-items: center; margin-top: -40px;""><img src=""images/pattern_5.png"" style=""width: 234px; height: 230px; margin-top: -50px;""><div style=""display: flex; justify-content: space-between; margin-top: 33px;""><img src=""images/choice_trial_9.png"" style=""width: 408px; height: 417px; margin-right: 200px;""><img src=""images/choice_trial_10.png"" style=""width: 408px; height: 417px;""></div></div>","f","delaylearn","learning","trial","5f6fa1423bef885572c5d7e7","h6agCi9rs5QvEbYN5XzfFxzV85v2","1","images/choice_trial_9.png","images/choice_trial_10.png","images/pattern_5.png","f","f","750","9","10","4","0","16","1","1","9","80","","","","",""
"html-keyboard-response","85","174775","0.0-37.0-1.0","","null","<div style=""display: flex; flex-direction: column; align-items: center; margin-top: -40px;""><img src=""images/pattern_5.png"" style=""width: 234px; height: 230px; margin-top: -50px;""><div style=""display: flex; justify-content: space-between; margin-top: 33px;""><img src=""images/choice_trial_9.png"" style=""width: 408px; height: 417px; margin-right: 608px;""></div></div>","null","delaylearn","learning","display_response","5f6fa1423bef885572c5d7e7","h6agCi9rs5QvEbYN5XzfFxzV85v2","","","","","","","","","","","","","","","","","chosen stimuli: images/choice_trial_9.png","","","",""
"html-keyboard-response","86","175528","0.0-37.0-2.0","","null","","null","delaylearn","learning","feedback_duration_window","5f6fa1423bef885572c5d7e7","h6agCi9rs5QvEbYN5XzfFxzV85v2","","","","","","","","","","","","","","","","","","750","","",""
"html-keyboard-response","87","177044","0.0-37.0-3.0","","null","<div style='margin:auto;width: auto; font-size: 150%'><span style='font-weight: bold; font-size: 100px; color: green;'>+10 points!</span><br><br></div>","null","delaylearn","learning","feedback_image_window","5f6fa1423bef885572c5d7e7","h6agCi9rs5QvEbYN5XzfFxzV85v2","","","","","","","","","","","","","","","","","","","","",""
"html-keyboard-response","88","177560","0.0-38.0-0.0","","null","","null","","","mood_trial_fixation","","","","","","","","","","","","","","","","","","","","","","",""
"lmdlab-html-vas-response","89","182987","0.0-38.0-1.0","","4407","How happy are you right now?","0.3167679131228641","delaylearn","learning","mood_trial","5f6fa1423bef885572c5d7e7","h6agCi9rs5QvEbYN5XzfFxzV85v2","","","","","","","","","","","","","","","","","","","","[""Very unhappy"",""Very happy""]",""
"html-keyboard-response","90","184935","0.0-39.0","","null","<div style=""font-size:100px;"">+</div>","null","delaylearn","learning","ITI","5f6fa1423bef885572c5d7e7","h6agCi9rs5QvEbYN5XzfFxzV85v2","","","","","","","","","","","","","","","","","","","1937","",""
"html-keyboard-response","91","186549","0.0-40.0-0.0","","1612.2999999998137","<div style=""display: flex; flex-direction: column; align-items: center; margin-top: -40px;""><img src=""images/pattern_6.png"" style=""width: 234px; height: 230px; margin-top: -50px;""><div style=""display: flex; justify-content: space-between; margin-top: 33px;""><img src=""images/choice_trial_11.png"" style=""width: 408px; height: 417px; margin-right: 200px;""><img src=""images/choice_trial_12.png"" style=""width: 408px; height: 417px;""></div></div>","j","delaylearn","learning","trial","5f6fa1423bef885572c5d7e7","h6agCi9rs5QvEbYN5XzfFxzV85v2","1","images/choice_trial_11.png","images/choice_trial_12.png","images/pattern_6.png","f","f","750","11","12","5","0","17","0","0","12","80","","","","",""
"html-keyboard-response","92","187560","0.0-40.0-1.0","","null","<div style=""display: flex; flex-direction: column; align-items: center; margin-top: -40px;""><img src=""images/pattern_6.png"" style=""width: 234px; height: 230px; margin-top: -50px;""><div style=""display: flex; justify-content: space-between; margin-top: 33px;""><img src=""images/choice_trial_12.png"" style=""width: 408px; height: 417px; margin-left:608px;""></div></div>","null","delaylearn","learning","display_response","5f6fa1423bef885572c5d7e7","h6agCi9rs5QvEbYN5XzfFxzV85v2","","","","","","","","","","","","","","","","","chosen stimuli: images/choice_trial_12.png","","","",""
"html-keyboard-response","93","188325","0.0-40.0-2.0","","null","","null","delaylearn","learning","feedback_duration_window","5f6fa1423bef885572c5d7e7","h6agCi9rs5QvEbYN5XzfFxzV85v2","","","","","","","","","","","","","","","","","","750","","",""
"html-keyboard-response","94","189841","0.0-40.0-3.0","","null","<div style='margin:auto;width: auto; font-size: 150%'><span style='font-weight: bold; font-size: 100px; color: red;'>0 points!</span><br><br></div>","null","delaylearn","learning","feedback_image_window","5f6fa1423bef885572c5d7e7","h6agCi9rs5QvEbYN5XzfFxzV85v2","","","","","","","","","","","","","","","","","","","","",""
"html-keyboard-response","95","192123","0.0-41.0","","null","<div style=""font-size:100px;"">+</div>","null","delaylearn","learning","ITI","5f6fa1423bef885572c5d7e7","h6agCi9rs5QvEbYN5XzfFxzV85v2","","","","","","","","","","","","","","","","","","","2278","",""
"html-keyboard-response","96","193983","0.0-42.0-0.0","","1857.5","<div style=""display: flex; flex-direction: column; align-items: center; margin-top: -40px;""><img src=""images/pattern_4.png"" style=""width: 234px; height: 230px; margin-top: -50px;""><div style=""display: flex; justify-content: space-between; margin-top: 33px;""><img src=""images/choice_trial_8.png"" style=""width: 408px; height: 417px; margin-right: 200px;""><img src=""images/choice_trial_7.png"" style=""width: 408px; height: 417px;""></div></div>","j","delaylearn","learning","trial","5f6fa1423bef885572c5d7e7","h6agCi9rs5QvEbYN5XzfFxzV85v2","1","images/choice_trial_8.png","images/choice_trial_7.png","images/pattern_4.png","j","j","7000","8","7","3","1","18","1","1","7","90","","","","",""
"html-keyboard-response","97","195000","0.0-42.0-1.0","","null","<div style=""display: flex; flex-direction: column; align-items: center; margin-top: -40px;""><img src=""images/pattern_4.png"" style=""width: 234px; height: 230px; margin-top: -50px;""><div style=""display: flex; justify-content: space-between; margin-top: 33px;""><img src=""images/choice_trial_7.png"" style=""width: 408px; height: 417px; margin-left:608px;""></div></div>","null","delaylearn","learning","display_response","5f6fa1423bef885572c5d7e7","h6agCi9rs5QvEbYN5XzfFxzV85v2","","","","","","","","","","","","","","","","","chosen stimuli: images/choice_trial_7.png","","","",""
"html-keyboard-response","98","202029","0.0-42.0-2.0","","null","","null","delaylearn","learning","feedback_duration_window","5f6fa1423bef885572c5d7e7","h6agCi9rs5QvEbYN5XzfFxzV85v2","","","","","","","","","","","","","","","","","","7000","","",""
"html-keyboard-response","99","203531","0.0-42.0-3.0","","null","<div style='margin:auto;width: auto; font-size: 150%'><span style='font-weight: bold; font-size: 100px; color: green;'>+10 points!</span><br><br></div>","null","delaylearn","learning","feedback_image_window","5f6fa1423bef885572c5d7e7","h6agCi9rs5QvEbYN5XzfFxzV85v2","","","","","","","","","","","","","","","","","","","","",""
"html-keyboard-response","100","205935","0.0-43.0","","null","<div style=""font-size:100px;"">+</div>","null","delaylearn","learning","ITI","5f6fa1423bef885572c5d7e7","h6agCi9rs5QvEbYN5XzfFxzV85v2","","","","","","","","","","","","","","","","","","","2394","",""
"html-keyboard-response","101","207313","0.0-44.0-0.0","","1375.2000000001863","<div style=""display: flex; flex-direction: column; align-items: center; margin-top: -40px;""><img src=""images/pattern_7.png"" style=""width: 234px; height: 230px; margin-top: -50px;""><div style=""display: flex; justify-content: space-between; margin-top: 33px;""><img src=""images/choice_trial_13.png"" style=""width: 408px; height: 417px; margin-right: 200px;""><img src=""images/choice_trial_14.png"" style=""width: 408px; height: 417px;""></div></div>","f","delaylearn","learning","trial","5f6fa1423bef885572c5d7e7","h6agCi9rs5QvEbYN5XzfFxzV85v2","1","images/choice_trial_13.png","images/choice_trial_14.png","images/pattern_7.png","j","f","750","13","14","6","0","19","1","0","13","90","","","","",""
"html-keyboard-response","102","208325","0.0-44.0-1.0","","null","<div style=""display: flex; flex-direction: column; align-items: center; margin-top: -40px;""><img src=""images/pattern_7.png"" style=""width: 234px; height: 230px; margin-top: -50px;""><div style=""display: flex; justify-content: space-between; margin-top: 33px;""><img src=""images/choice_trial_13.png"" style=""width: 408px; height: 417px; margin-right: 608px;""></div></div>","null","delaylearn","learning","display_response","5f6fa1423bef885572c5d7e7","h6agCi9rs5QvEbYN5XzfFxzV85v2","","","","","","","","","","","","","","","","","chosen stimuli: images/choice_trial_13.png","","","",""
"html-keyboard-response","103","209091","0.0-44.0-2.0","","null","","null","delaylearn","learning","feedback_duration_window","5f6fa1423bef885572c5d7e7","h6agCi9rs5QvEbYN5XzfFxzV85v2","","","","","","","","","","","","","","","","","","750","","",""
"html-keyboard-response","104","210594","0.0-44.0-3.0","","null","<div style='margin:auto;width: auto; font-size: 150%'><span style='font-weight: bold; font-size: 100px; color: red;'>0 points!</span><br><br></div>","null","delaylearn","learning","feedback_image_window","5f6fa1423bef885572c5d7e7","h6agCi9rs5QvEbYN5XzfFxzV85v2","","","","","","","","","","","","","","","","","","","","",""
"html-keyboard-response","105","212625","0.0-45.0","","null","<div style=""font-size:100px;"">+</div>","null","delaylearn","learning","ITI","5f6fa1423bef885572c5d7e7","h6agCi9rs5QvEbYN5XzfFxzV85v2","","","","","","","","","","","","","","","","","","","2013","",""
"html-keyboard-response","106","214241","0.0-46.0-0.0","","1614.5","<div style=""display: flex; flex-direction: column; align-items: center; margin-top: -40px;""><img src=""images/pattern_1.png"" style=""width: 234px; height: 230px; margin-top: -50px;""><div style=""display: flex; justify-content: space-between; margin-top: 33px;""><img src=""images/choice_trial_1.png"" style=""width: 408px; height: 417px; margin-right: 200px;""><img src=""images/choice_trial_2.png"" style=""width: 408px; height: 417px;""></div></div>","f","delaylearn","learning","trial","5f6fa1423bef885572c5d7e7","h6agCi9rs5QvEbYN5XzfFxzV85v2","1","images/choice_trial_1.png","images/choice_trial_2.png","images/pattern_1.png","f","f","7000","1","2","1","0","20","1","1","1","100","","","","",""
"html-keyboard-response","107","215249","0.0-46.0-1.0","","null","<div style=""display: flex; flex-direction: column; align-items: center; margin-top: -40px;""><img src=""images/pattern_1.png"" style=""width: 234px; height: 230px; margin-top: -50px;""><div style=""display: flex; justify-content: space-between; margin-top: 33px;""><img src=""images/choice_trial_1.png"" style=""width: 408px; height: 417px; margin-right: 608px;""></div></div>","null","delaylearn","learning","display_response","5f6fa1423bef885572c5d7e7","h6agCi9rs5QvEbYN5XzfFxzV85v2","","","","","","","","","","","","","","","","","chosen stimuli: images/choice_trial_1.png","","","",""
"html-keyboard-response","108","222251","0.0-46.0-2.0","","null","","null","delaylearn","learning","feedback_duration_window","5f6fa1423bef885572c5d7e7","h6agCi9rs5QvEbYN5XzfFxzV85v2","","","","","","","","","","","","","","","","","","7000","","",""
"html-keyboard-response","109","223754","0.0-46.0-3.0","","null","<div style='margin:auto;width: auto; font-size: 150%'><span style='font-weight: bold; font-size: 100px; color: green;'>+10 points!</span><br><br></div>","null","delaylearn","learning","feedback_image_window","5f6fa1423bef885572c5d7e7","h6agCi9rs5QvEbYN5XzfFxzV85v2","","","","","","","","","","","","","","","","","","","","",""
"html-keyboard-response","110","225357","0.0-47.0","","null","<div style=""font-size:100px;"">+</div>","null","delaylearn","learning","ITI","5f6fa1423bef885572c5d7e7","h6agCi9rs5QvEbYN5XzfFxzV85v2","","","","","","","","","","","","","","","","","","","1578","",""
"html-keyboard-response","111","227686","0.0-48.0-0.0","","2325.899999999441","<div style=""display: flex; flex-direction: column; align-items: center; margin-top: -40px;""><img src=""images/pattern_6.png"" style=""width: 234px; height: 230px; margin-top: -50px;""><div style=""display: flex; justify-content: space-between; margin-top: 33px;""><img src=""images/choice_trial_12.png"" style=""width: 408px; height: 417px; margin-right: 200px;""><img src=""images/choice_trial_11.png"" style=""width: 408px; height: 417px;""></div></div>","j","delaylearn","learning","trial","5f6fa1423bef885572c5d7e7","h6agCi9rs5QvEbYN5XzfFxzV85v2","1","images/choice_trial_12.png","images/choice_trial_11.png","images/pattern_6.png","j","j","750","12","11","5","1","21","1","1","11","110","","","","",""
"html-keyboard-response","112","228700","0.0-48.0-1.0","","null","<div style=""display: flex; flex-direction: column; align-items: center; margin-top: -40px;""><img src=""images/pattern_6.png"" style=""width: 234px; height: 230px; margin-top: -50px;""><div style=""display: flex; justify-content: space-between; margin-top: 33px;""><img src=""images/choice_trial_11.png"" style=""width: 408px; height: 417px; margin-left:608px;""></div></div>","null","delaylearn","learning","display_response","5f6fa1423bef885572c5d7e7","h6agCi9rs5QvEbYN5XzfFxzV85v2","","","","","","","","","","","","","","","","","chosen stimuli: images/choice_trial_11.png","","","",""
"html-keyboard-response","113","229453","0.0-48.0-2.0","","null","","null","delaylearn","learning","feedback_duration_window","5f6fa1423bef885572c5d7e7","h6agCi9rs5QvEbYN5XzfFxzV85v2","","","","","","","","","","","","","","","","","","750","","",""
"html-keyboard-response","114","230968","0.0-48.0-3.0","","null","<div style='margin:auto;width: auto; font-size: 150%'><span style='font-weight: bold; font-size: 100px; color: green;'>+10 points!</span><br><br></div>","null","delaylearn","learning","feedback_image_window","5f6fa1423bef885572c5d7e7","h6agCi9rs5QvEbYN5XzfFxzV85v2","","","","","","","","","","","","","","","","","","","","",""
"html-keyboard-response","115","233046","0.0-49.0","","null","<div style=""font-size:100px;"">+</div>","null","delaylearn","learning","ITI","5f6fa1423bef885572c5d7e7","h6agCi9rs5QvEbYN5XzfFxzV85v2","","","","","","","","","","","","","","","","","","","2067","",""
"html-keyboard-response","116","234679","0.0-50.0-0.0","","1631.4000000003725","<div style=""display: flex; flex-direction: column; align-items: center; margin-top: -40px;""><img src=""images/pattern_4.png"" style=""width: 234px; height: 230px; margin-top: -50px;""><div style=""display: flex; justify-content: space-between; margin-top: 33px;""><img src=""images/choice_trial_7.png"" style=""width: 408px; height: 417px; margin-right: 200px;""><img src=""images/choice_trial_8.png"" style=""width: 408px; height: 417px;""></div></div>","f","delaylearn","learning","trial","5f6fa1423bef885572c5d7e7","h6agCi9rs5QvEbYN5XzfFxzV85v2","1","images/choice_trial_7.png","images/choice_trial_8.png","images/pattern_4.png","f","f","7000","7","8","3","0","22","1","1","7","120","","","","",""
"html-keyboard-response","117","235684","0.0-50.0-1.0","","null","<div style=""display: flex; flex-direction: column; align-items: center; margin-top: -40px;""><img src=""images/pattern_4.png"" style=""width: 234px; height: 230px; margin-top: -50px;""><div style=""display: flex; justify-content: space-between; margin-top: 33px;""><img src=""images/choice_trial_7.png"" style=""width: 408px; height: 417px; margin-right: 608px;""></div></div>","null","delaylearn","learning","display_response","5f6fa1423bef885572c5d7e7","h6agCi9rs5QvEbYN5XzfFxzV85v2","","","","","","","","","","","","","","","","","chosen stimuli: images/choice_trial_7.png","","","",""
"html-keyboard-response","118","242701","0.0-50.0-2.0","","null","","null","delaylearn","learning","feedback_duration_window","5f6fa1423bef885572c5d7e7","h6agCi9rs5QvEbYN5XzfFxzV85v2","","","","","","","","","","","","","","","","","","7000","","",""
"html-keyboard-response","119","244216","0.0-50.0-3.0","","null","<div style='margin:auto;width: auto; font-size: 150%'><span style='font-weight: bold; font-size: 100px; color: green;'>+10 points!</span><br><br></div>","null","delaylearn","learning","feedback_image_window","5f6fa1423bef885572c5d7e7","h6agCi9rs5QvEbYN5XzfFxzV85v2","","","","","","","","","","","","","","","","","","","","",""
"html-keyboard-response","120","244732","0.0-51.0-0.0","","null","","null","","","mood_trial_fixation","","","","","","","","","","","","","","","","","","","","","","",""
"lmdlab-html-vas-response","121","248769","0.0-51.0-1.0","","3018","How happy are you right now?","0.4865209915480912","delaylearn","learning","mood_trial","5f6fa1423bef885572c5d7e7","h6agCi9rs5QvEbYN5XzfFxzV85v2","","","","","","","","","","","","","","","","","","","","[""Very unhappy"",""Very happy""]",""
"html-keyboard-response","122","251170","0.0-52.0","","null","<div style=""font-size:100px;"">+</div>","null","delaylearn","learning","ITI","5f6fa1423bef885572c5d7e7","h6agCi9rs5QvEbYN5XzfFxzV85v2","","","","","","","","","","","","","","","","","","","2395","",""
"html-keyboard-response","123","252619","0.0-53.0-0.0","","1445.4000000003725","<div style=""display: flex; flex-direction: column; align-items: center; margin-top: -40px;""><img src=""images/pattern_7.png"" style=""width: 234px; height: 230px; margin-top: -50px;""><div style=""display: flex; justify-content: space-between; margin-top: 33px;""><img src=""images/choice_trial_14.png"" style=""width: 408px; height: 417px; margin-right: 200px;""><img src=""images/choice_trial_13.png"" style=""width: 408px; height: 417px;""></div></div>","j","delaylearn","learning","trial","5f6fa1423bef885572c5d7e7","h6agCi9rs5QvEbYN5XzfFxzV85v2","1","images/choice_trial_14.png","images/choice_trial_13.png","images/pattern_7.png","j","j","750","14","13","6","1","23","1","1","13","130","","","","",""
"html-keyboard-response","124","253623","0.0-53.0-1.0","","null","<div style=""display: flex; flex-direction: column; align-items: center; margin-top: -40px;""><img src=""images/pattern_7.png"" style=""width: 234px; height: 230px; margin-top: -50px;""><div style=""display: flex; justify-content: space-between; margin-top: 33px;""><img src=""images/choice_trial_13.png"" style=""width: 408px; height: 417px; margin-left:608px;""></div></div>","null","delaylearn","learning","display_response","5f6fa1423bef885572c5d7e7","h6agCi9rs5QvEbYN5XzfFxzV85v2","","","","","","","","","","","","","","","","","chosen stimuli: images/choice_trial_13.png","","","",""
"html-keyboard-response","125","254389","0.0-53.0-2.0","","null","","null","delaylearn","learning","feedback_duration_window","5f6fa1423bef885572c5d7e7","h6agCi9rs5QvEbYN5XzfFxzV85v2","","","","","","","","","","","","","","","","","","750","","",""
"html-keyboard-response","126","255904","0.0-53.0-3.0","","null","<div style='margin:auto;width: auto; font-size: 150%'><span style='font-weight: bold; font-size: 100px; color: green;'>+10 points!</span><br><br></div>","null","delaylearn","learning","feedback_image_window","5f6fa1423bef885572c5d7e7","h6agCi9rs5QvEbYN5XzfFxzV85v2","","","","","","","","","","","","","","","","","","","","",""
"html-keyboard-response","127","258155","0.0-54.0","","null","<div style=""font-size:100px;"">+</div>","null","delaylearn","learning","ITI","5f6fa1423bef885572c5d7e7","h6agCi9rs5QvEbYN5XzfFxzV85v2","","","","","","","","","","","","","","","","","","","2243","",""
"html-keyboard-response","128","260290","0.0-55.0-0.0","","2131.9000000003725","<div style=""display: flex; flex-direction: column; align-items: center; margin-top: -40px;""><img src=""images/pattern_1.png"" style=""width: 234px; height: 230px; margin-top: -50px;""><div style=""display: flex; justify-content: space-between; margin-top: 33px;""><img src=""images/choice_trial_2.png"" style=""width: 408px; height: 417px; margin-right: 200px;""><img src=""images/choice_trial_1.png"" style=""width: 408px; height: 417px;""></div></div>","j","delaylearn","learning","trial","5f6fa1423bef885572c5d7e7","h6agCi9rs5QvEbYN5XzfFxzV85v2","1","images/choice_trial_2.png","images/choice_trial_1.png","images/pattern_1.png","f","j","7000","2","1","1","1","24","1","0","1","130","","","","",""
"html-keyboard-response","129","261295","0.0-55.0-1.0","","null","<div style=""display: flex; flex-direction: column; align-items: center; margin-top: -40px;""><img src=""images/pattern_1.png"" style=""width: 234px; height: 230px; margin-top: -50px;""><div style=""display: flex; justify-content: space-between; margin-top: 33px;""><img src=""images/choice_trial_1.png"" style=""width: 408px; height: 417px; margin-left:608px;""></div></div>","null","delaylearn","learning","display_response","5f6fa1423bef885572c5d7e7","h6agCi9rs5QvEbYN5XzfFxzV85v2","","","","","","","","","","","","","","","","","chosen stimuli: images/choice_trial_1.png","","","",""
"html-keyboard-response","130","268297","0.0-55.0-2.0","","null","","null","delaylearn","learning","feedback_duration_window","5f6fa1423bef885572c5d7e7","h6agCi9rs5QvEbYN5XzfFxzV85v2","","","","","","","","","","","","","","","","","","7000","","",""
"html-keyboard-response","131","269804","0.0-55.0-3.0","","null","<div style='margin:auto;width: auto; font-size: 150%'><span style='font-weight: bold; font-size: 100px; color: red;'>0 points!</span><br><br></div>","null","delaylearn","learning","feedback_image_window","5f6fa1423bef885572c5d7e7","h6agCi9rs5QvEbYN5XzfFxzV85v2","","","","","","","","","","","","","","","","","","","","",""
"html-keyboard-response","132","271654","0.0-56.0","","null","<div style=""font-size:100px;"">+</div>","null","delaylearn","learning","ITI","5f6fa1423bef885572c5d7e7","h6agCi9rs5QvEbYN5XzfFxzV85v2","","","","","","","","","","","","","","","","","","","1827","",""
"html-keyboard-response","133","273710","0.0-57.0-0.0","","2053.2999999998137","<div style=""display: flex; flex-direction: column; align-items: center; margin-top: -40px;""><img src=""images/pattern_5.png"" style=""width: 234px; height: 230px; margin-top: -50px;""><div style=""display: flex; justify-content: space-between; margin-top: 33px;""><img src=""images/choice_trial_10.png"" style=""width: 408px; height: 417px; margin-right: 200px;""><img src=""images/choice_trial_9.png"" style=""width: 408px; height: 417px;""></div></div>","f","delaylearn","learning","trial","5f6fa1423bef885572c5d7e7","h6agCi9rs5QvEbYN5XzfFxzV85v2","1","images/choice_trial_10.png","images/choice_trial_9.png","images/pattern_5.png","j","j","750","10","9","4","1","25","0","0","10","130","","","","",""
"html-keyboard-response","134","274719","0.0-57.0-1.0","","null","<div style=""display: flex; flex-direction: column; align-items: center; margin-top: -40px;""><img src=""images/pattern_5.png"" style=""width: 234px; height: 230px; margin-top: -50px;""><div style=""display: flex; justify-content: space-between; margin-top: 33px;""><img src=""images/choice_trial_10.png"" style=""width: 408px; height: 417px; margin-right: 608px;""></div></div>","null","delaylearn","learning","display_response","5f6fa1423bef885572c5d7e7","h6agCi9rs5QvEbYN5XzfFxzV85v2","","","","","","","","","","","","","","","","","chosen stimuli: images/choice_trial_10.png","","","",""
"html-keyboard-response","135","275484","0.0-57.0-2.0","","null","","null","delaylearn","learning","feedback_duration_window","5f6fa1423bef885572c5d7e7","h6agCi9rs5QvEbYN5XzfFxzV85v2","","","","","","","","","","","","","","","","","","750","","",""
"html-keyboard-response","136","276997","0.0-57.0-3.0","","null","<div style='margin:auto;width: auto; font-size: 150%'><span style='font-weight: bold; font-size: 100px; color: red;'>0 points!</span><br><br></div>","null","delaylearn","learning","feedback_image_window","5f6fa1423bef885572c5d7e7","h6agCi9rs5QvEbYN5XzfFxzV85v2","","","","","","","","","","","","","","","","","","","","",""
"html-keyboard-response","137","278545","0.0-58.0","","null","<div style=""font-size:100px;"">+</div>","null","delaylearn","learning","ITI","5f6fa1423bef885572c5d7e7","h6agCi9rs5QvEbYN5XzfFxzV85v2","","","","","","","","","","","","","","","","","","","1539","",""
"html-keyboard-response","138","279536","0.0-59.0-0.0","","989.5","<div style=""display: flex; flex-direction: column; align-items: center; margin-top: -40px;""><img src=""images/pattern_3.png"" style=""width: 234px; height: 230px; margin-top: -50px;""><div style=""display: flex; justify-content: space-between; margin-top: 33px;""><img src=""images/choice_trial_6.png"" style=""width: 408px; height: 417px; margin-right: 200px;""><img src=""images/choice_trial_5.png"" style=""width: 408px; height: 417px;""></div></div>","f","delaylearn","learning","trial","5f6fa1423bef885572c5d7e7","h6agCi9rs5QvEbYN5XzfFxzV85v2","1","images/choice_trial_6.png","images/choice_trial_5.png","images/pattern_3.png","j","j","7000","6","5","2","1","26","0","0","6","130","","","","",""
"html-keyboard-response","139","280546","0.0-59.0-1.0","","null","<div style=""display: flex; flex-direction: column; align-items: center; margin-top: -40px;""><img src=""images/pattern_3.png"" style=""width: 234px; height: 230px; margin-top: -50px;""><div style=""display: flex; justify-content: space-between; margin-top: 33px;""><img src=""images/choice_trial_6.png"" style=""width: 408px; height: 417px; margin-right: 608px;""></div></div>","null","delaylearn","learning","display_response","5f6fa1423bef885572c5d7e7","h6agCi9rs5QvEbYN5XzfFxzV85v2","","","","","","","","","","","","","","","","","chosen stimuli: images/choice_trial_6.png","","","",""
"html-keyboard-response","140","287576","0.0-59.0-2.0","","null","","null","delaylearn","learning","feedback_duration_window","5f6fa1423bef885572c5d7e7","h6agCi9rs5QvEbYN5XzfFxzV85v2","","","","","","","","","","","","","","","","","","7000","","",""
"html-keyboard-response","141","289093","0.0-59.0-3.0","","null","<div style='margin:auto;width: auto; font-size: 150%'><span style='font-weight: bold; font-size: 100px; color: red;'>0 points!</span><br><br></div>","null","delaylearn","learning","feedback_image_window","5f6fa1423bef885572c5d7e7","h6agCi9rs5QvEbYN5XzfFxzV85v2","","","","","","","","","","","","","","","","","","","","",""
"lmdlab-html-vas-response","142","296374","0.0-60.0-0.0","","5771","*How <b><u>confident</u></b> are you feeling about your answers at this moment?*","0.24537032349337715","rewlearn","rate_confidence","","5f6fa1423bef885572c5d7e7","h6agCi9rs5QvEbYN5XzfFxzV85v2","","","","","","","","","","","","","","","","","","","","[""No confidence"",""Complete confidence""]",""
"lmdlab-rest-trial-limit","143","308789","0.0-60.0-1.0","","10901.5","<div style=""font-size:40px;""><b>Please take a break!</b><br><br><br><br><p>Great work: you earned 130 points.<br><br><br><p>You have completed part(s) 1 of 5.<br><br><br><br>When you are ready to continue<br><br><br>please click the button.</p><br><br>","0","delaylearn","learning","break","5f6fa1423bef885572c5d7e7","h6agCi9rs5QvEbYN5XzfFxzV85v2","","","","","","","","","","","","","","","","","","","","","0"
"html-keyboard-response","144","311805","0.0-60.0-2.0","","null","<div style=""font-size:100px;"">+</div>","null","delaylearn","learning","pre_fixation","5f6fa1423bef885572c5d7e7","","","","","","","","","","","","","","","","","","","","","",""
"lmdlab-html-vas-response","145","316137","0.0-60.0-3.0-0.0","","3320","How happy are you right now?","0.37270926851299574","delaylearn","learning","mood_baseline","5f6fa1423bef885572c5d7e7","h6agCi9rs5QvEbYN5XzfFxzV85v2","","","","","","","","","","","","","","","","","","","","[""Very unhappy"",""Very happy""]",""
"html-keyboard-response","146","317654","0.0-60.0-3.0-1.0","","null","","null","","","mood_baseline_fixation","","","","","","","","","","","","","","","","","","","","","","",""
"html-keyboard-response","147","319747","0.0-61.0","","null","<div style=""font-size:100px;"">+</div>","null","delaylearn","learning","ITI","5f6fa1423bef885572c5d7e7","h6agCi9rs5QvEbYN5XzfFxzV85v2","","","","","","","","","","","","","","","","","","","2086","",""
"html-keyboard-response","148","320993","0.0-62.0-0.0","","1244.2000000001863","<div style=""display: flex; flex-direction: column; align-items: center; margin-top: -40px;""><img src=""images/pattern_7.png"" style=""width: 234px; height: 230px; margin-top: -50px;""><div style=""display: flex; justify-content: space-between; margin-top: 33px;""><img src=""images/choice_trial_14.png"" style=""width: 408px; height: 417px; margin-right: 200px;""><img src=""images/choice_trial_13.png"" style=""width: 408px; height: 417px;""></div></div>","j","delaylearn","learning","trial","5f6fa1423bef885572c5d7e7","h6agCi9rs5QvEbYN5XzfFxzV85v2","1","images/choice_trial_14.png","images/choice_trial_13.png","images/pattern_7.png","j","j","750","14","13","6","1","27","1","1","13","140","","","","",""
"html-keyboard-response","149","321999","0.0-62.0-1.0","","null","<div style=""display: flex; flex-direction: column; align-items: center; margin-top: -40px;""><img src=""images/pattern_7.png"" style=""width: 234px; height: 230px; margin-top: -50px;""><div style=""display: flex; justify-content: space-between; margin-top: 33px;""><img src=""images/choice_trial_13.png"" style=""width: 408px; height: 417px; margin-left:608px;""></div></div>","null","delaylearn","learning","display_response","5f6fa1423bef885572c5d7e7","h6agCi9rs5QvEbYN5XzfFxzV85v2","","","","","","","","","","","","","","","","","chosen stimuli: images/choice_trial_13.png","","","",""
"html-keyboard-response","150","322765","0.0-62.0-2.0","","null","","null","delaylearn","learning","feedback_duration_window","5f6fa1423bef885572c5d7e7","h6agCi9rs5QvEbYN5XzfFxzV85v2","","","","","","","","","","","","","","","","","","750","","",""
"html-keyboard-response","151","324280","0.0-62.0-3.0","","null","<div style='margin:auto;width: auto; font-size: 150%'><span style='font-weight: bold; font-size: 100px; color: green;'>+10 points!</span><br><br></div>","null","delaylearn","learning","feedback_image_window","5f6fa1423bef885572c5d7e7","h6agCi9rs5QvEbYN5XzfFxzV85v2","","","","","","","","","","","","","","","","","","","","",""
"html-keyboard-response","152","324795","0.0-63.0-0.0","","null","","null","","","mood_trial_fixation","","","","","","","","","","","","","","","","","","","","","","",""
"lmdlab-html-vas-response","153","329111","0.0-63.0-1.0","","3310","How happy are you right now?","0.4267216116482953","delaylearn","learning","mood_trial","5f6fa1423bef885572c5d7e7","h6agCi9rs5QvEbYN5XzfFxzV85v2","","","","","","","","","","","","","","","","","","","","[""Very unhappy"",""Very happy""]",""
"html-keyboard-response","154","331473","0.0-64.0","","null","<div style=""font-size:100px;"">+</div>","null","delaylearn","learning","ITI","5f6fa1423bef885572c5d7e7","h6agCi9rs5QvEbYN5XzfFxzV85v2","","","","","","","","","","","","","","","","","","","2352","",""
"html-keyboard-response","155","332979","0.0-65.0-0.0","","1503.3999999994412","<div style=""display: flex; flex-direction: column; align-items: center; margin-top: -40px;""><img src=""images/pattern_1.png"" style=""width: 234px; height: 230px; margin-top: -50px;""><div style=""display: flex; justify-content: space-between; margin-top: 33px;""><img src=""images/choice_trial_1.png"" style=""width: 408px; height: 417px; margin-right: 200px;""><img src=""images/choice_trial_2.png"" style=""width: 408px; height: 417px;""></div></div>","j","delaylearn","learning","trial","5f6fa1423bef885572c5d7e7","h6agCi9rs5QvEbYN5XzfFxzV85v2","1","images/choice_trial_1.png","images/choice_trial_2.png","images/pattern_1.png","f","f","7000","1","2","1","0","28","0","0","2","140","","","","",""
"html-keyboard-response","156","333986","0.0-65.0-1.0","","null","<div style=""display: flex; flex-direction: column; align-items: center; margin-top: -40px;""><img src=""images/pattern_1.png"" style=""width: 234px; height: 230px; margin-top: -50px;""><div style=""display: flex; justify-content: space-between; margin-top: 33px;""><img src=""images/choice_trial_2.png"" style=""width: 408px; height: 417px; margin-left:608px;""></div></div>","null","delaylearn","learning","display_response","5f6fa1423bef885572c5d7e7","h6agCi9rs5QvEbYN5XzfFxzV85v2","","","","","","","","","","","","","","","","","chosen stimuli: images/choice_trial_2.png","","","",""
"html-keyboard-response","157","340999","0.0-65.0-2.0","","null","","null","delaylearn","learning","feedback_duration_window","5f6fa1423bef885572c5d7e7","h6agCi9rs5QvEbYN5XzfFxzV85v2","","","","","","","","","","","","","","","","","","7000","","",""
"html-keyboard-response","158","342515","0.0-65.0-3.0","","null","<div style='margin:auto;width: auto; font-size: 150%'><span style='font-weight: bold; font-size: 100px; color: red;'>0 points!</span><br><br></div>","null","delaylearn","learning","feedback_image_window","5f6fa1423bef885572c5d7e7","h6agCi9rs5QvEbYN5XzfFxzV85v2","","","","","","","","","","","","","","","","","","","","",""
"html-keyboard-response","159","344857","0.0-66.0","","null","<div style=""font-size:100px;"">+</div>","null","delaylearn","learning","ITI","5f6fa1423bef885572c5d7e7","h6agCi9rs5QvEbYN5XzfFxzV85v2","","","","","","","","","","","","","","","","","","","2335","",""
"html-keyboard-response","160","347314","0.0-67.0-0.0","","2454.199999999255","<div style=""display: flex; flex-direction: column; align-items: center; margin-top: -40px;""><img src=""images/pattern_5.png"" style=""width: 234px; height: 230px; margin-top: -50px;""><div style=""display: flex; justify-content: space-between; margin-top: 33px;""><img src=""images/choice_trial_9.png"" style=""width: 408px; height: 417px; margin-right: 200px;""><img src=""images/choice_trial_10.png"" style=""width: 408px; height: 417px;""></div></div>","f","delaylearn","learning","trial","5f6fa1423bef885572c5d7e7","h6agCi9rs5QvEbYN5XzfFxzV85v2","1","images/choice_trial_9.png","images/choice_trial_10.png","images/pattern_5.png","f","f","750","9","10","4","0","29","1","1","9","150","","","","",""
"html-keyboard-response","161","348341","0.0-67.0-1.0","","null","<div style=""display: flex; flex-direction: column; align-items: center; margin-top: -40px;""><img src=""images/pattern_5.png"" style=""width: 234px; height: 230px; margin-top: -50px;""><div style=""display: flex; justify-content: space-between; margin-top: 33px;""><img src=""images/choice_trial_9.png"" style=""width: 408px; height: 417px; margin-right: 608px;""></div></div>","null","delaylearn","learning","display_response","5f6fa1423bef885572c5d7e7","h6agCi9rs5QvEbYN5XzfFxzV85v2","","","","","","","","","","","","","","","","","chosen stimuli: images/choice_trial_9.png","","","",""
"html-keyboard-response","162","349108","0.0-67.0-2.0","","null","","null","delaylearn","learning","feedback_duration_window","5f6fa1423bef885572c5d7e7","h6agCi9rs5QvEbYN5XzfFxzV85v2","","","","","","","","","","","","","","","","","","750","","",""
"html-keyboard-response","163","350623","0.0-67.0-3.0","","null","<div style='margin:auto;width: auto; font-size: 150%'><span style='font-weight: bold; font-size: 100px; color: green;'>+10 points!</span><br><br></div>","null","delaylearn","learning","feedback_image_window","5f6fa1423bef885572c5d7e7","h6agCi9rs5QvEbYN5XzfFxzV85v2","","","","","","","","","","","","","","","","","","","","",""
"html-keyboard-response","164","352719","0.0-68.0","","null","<div style=""font-size:100px;"">+</div>","null","delaylearn","learning","ITI","5f6fa1423bef885572c5d7e7","h6agCi9rs5QvEbYN5XzfFxzV85v2","","","","","","","","","","","","","","","","","","","2093","",""
"html-keyboard-response","165","354341","0.0-69.0-0.0","","1618.9000000003725","<div style=""display: flex; flex-direction: column; align-items: center; margin-top: -40px;""><img src=""images/pattern_6.png"" style=""width: 234px; height: 230px; margin-top: -50px;""><div style=""display: flex; justify-content: space-between; margin-top: 33px;""><img src=""images/choice_trial_12.png"" style=""width: 408px; height: 417px; margin-right: 200px;""><img src=""images/choice_trial_11.png"" style=""width: 408px; height: 417px;""></div></div>","j","delaylearn","learning","trial","5f6fa1423bef885572c5d7e7","h6agCi9rs5QvEbYN5XzfFxzV85v2","1","images/choice_trial_12.png","images/choice_trial_11.png","images/pattern_6.png","j","j","750","12","11","5","1","30","1","1","11","160","","","","",""
"html-keyboard-response","166","355358","0.0-69.0-1.0","","null","<div style=""display: flex; flex-direction: column; align-items: center; margin-top: -40px;""><img src=""images/pattern_6.png"" style=""width: 234px; height: 230px; margin-top: -50px;""><div style=""display: flex; justify-content: space-between; margin-top: 33px;""><img src=""images/choice_trial_11.png"" style=""width: 408px; height: 417px; margin-left:608px;""></div></div>","null","delaylearn","learning","display_response","5f6fa1423bef885572c5d7e7","h6agCi9rs5QvEbYN5XzfFxzV85v2","","","","","","","","","","","","","","","","","chosen stimuli: images/choice_trial_11.png","","","",""
"html-keyboard-response","167","356123","0.0-69.0-2.0","","null","","null","delaylearn","learning","feedback_duration_window","5f6fa1423bef885572c5d7e7","h6agCi9rs5QvEbYN5XzfFxzV85v2","","","","","","","","","","","","","","","","","","750","","",""
"html-keyboard-response","168","357640","0.0-69.0-3.0","","null","<div style='margin:auto;width: auto; font-size: 150%'><span style='font-weight: bold; font-size: 100px; color: green;'>+10 points!</span><br><br></div>","null","delaylearn","learning","feedback_image_window","5f6fa1423bef885572c5d7e7","h6agCi9rs5QvEbYN5XzfFxzV85v2","","","","","","","","","","","","","","","","","","","","",""
"html-keyboard-response","169","358155","0.0-70.0-0.0","","null","","null","","","mood_trial_fixation","","","","","","","","","","","","","","","","","","","","","","",""
"lmdlab-html-vas-response","170","362138","0.0-70.0-1.0","","2964","How happy are you right now?","0.5000240773319161","delaylearn","learning","mood_trial","5f6fa1423bef885572c5d7e7","h6agCi9rs5QvEbYN5XzfFxzV85v2","","","","","","","","","","","","","","","","","","","","[""Very unhappy"",""Very happy""]",""
"html-keyboard-response","171","364186","0.0-71.0","","null","<div style=""font-size:100px;"">+</div>","null","delaylearn","learning","ITI","5f6fa1423bef885572c5d7e7","h6agCi9rs5QvEbYN5XzfFxzV85v2","","","","","","","","","","","","","","","","","","","2041","",""
"html-keyboard-response","172","365877","0.0-72.0-0.0","","1687.9000000003725","<div style=""display: flex; flex-direction: column; align-items: center; margin-top: -40px;""><img src=""images/pattern_4.png"" style=""width: 234px; height: 230px; margin-top: -50px;""><div style=""display: flex; justify-content: space-between; margin-top: 33px;""><img src=""images/choice_trial_8.png"" style=""width: 408px; height: 417px; margin-right: 200px;""><img src=""images/choice_trial_7.png"" style=""width: 408px; height: 417px;""></div></div>","j","delaylearn","learning","trial","5f6fa1423bef885572c5d7e7","h6agCi9rs5QvEbYN5XzfFxzV85v2","1","images/choice_trial_8.png","images/choice_trial_7.png","images/pattern_4.png","j","j","7000","8","7","3","1","31","1","1","7","170","","","","",""
"html-keyboard-response","173","366889","0.0-72.0-1.0","","null","<div style=""display: flex; flex-direction: column; align-items: center; margin-top: -40px;""><img src=""images/pattern_4.png"" style=""width: 234px; height: 230px; margin-top: -50px;""><div style=""display: flex; justify-content: space-between; margin-top: 33px;""><img src=""images/choice_trial_7.png"" style=""width: 408px; height: 417px; margin-left:608px;""></div></div>","null","delaylearn","learning","display_response","5f6fa1423bef885572c5d7e7","h6agCi9rs5QvEbYN5XzfFxzV85v2","","","","","","","","","","","","","","","","","chosen stimuli: images/choice_trial_7.png","","","",""
"html-keyboard-response","174","373921","0.0-72.0-2.0","","null","","null","delaylearn","learning","feedback_duration_window","5f6fa1423bef885572c5d7e7","h6agCi9rs5QvEbYN5XzfFxzV85v2","","","","","","","","","","","","","","","","","","7000","","",""
"html-keyboard-response","175","375436","0.0-72.0-3.0","","null","<div style='margin:auto;width: auto; font-size: 150%'><span style='font-weight: bold; font-size: 100px; color: green;'>+10 points!</span><br><br></div>","null","delaylearn","learning","feedback_image_window","5f6fa1423bef885572c5d7e7","h6agCi9rs5QvEbYN5XzfFxzV85v2","","","","","","","","","","","","","","","","","","","","",""
"html-keyboard-response","176","377660","0.0-73.0","","null","<div style=""font-size:100px;"">+</div>","null","delaylearn","learning","ITI","5f6fa1423bef885572c5d7e7","h6agCi9rs5QvEbYN5XzfFxzV85v2","","","","","","","","","","","","","","","","","","","2216","",""
"html-keyboard-response","177","379813","0.0-74.0-0.0","","2150.699999999255","<div style=""display: flex; flex-direction: column; align-items: center; margin-top: -40px;""><img src=""images/pattern_3.png"" style=""width: 234px; height: 230px; margin-top: -50px;""><div style=""display: flex; justify-content: space-between; margin-top: 33px;""><img src=""images/choice_trial_6.png"" style=""width: 408px; height: 417px; margin-right: 200px;""><img src=""images/choice_trial_5.png"" style=""width: 408px; height: 417px;""></div></div>","j","delaylearn","learning","trial","5f6fa1423bef885572c5d7e7","h6agCi9rs5QvEbYN5XzfFxzV85v2","1","images/choice_trial_6.png","images/choice_trial_5.png","images/pattern_3.png","j","j","7000","6","5","2","1","32","1","1","5","180","","","","",""
"html-keyboard-response","178","380827","0.0-74.0-1.0","","null","<div style=""display: flex; flex-direction: column; align-items: center; margin-top: -40px;""><img src=""images/pattern_3.png"" style=""width: 234px; height: 230px; margin-top: -50px;""><div style=""display: flex; justify-content: space-between; margin-top: 33px;""><img src=""images/choice_trial_5.png"" style=""width: 408px; height: 417px; margin-left:608px;""></div></div>","null","delaylearn","learning","display_response","5f6fa1423bef885572c5d7e7","h6agCi9rs5QvEbYN5XzfFxzV85v2","","","","","","","","","","","","","","","","","chosen stimuli: images/choice_trial_5.png","","","",""
"html-keyboard-response","179","387842","0.0-74.0-2.0","","null","","null","delaylearn","learning","feedback_duration_window","5f6fa1423bef885572c5d7e7","h6agCi9rs5QvEbYN5XzfFxzV85v2","","","","","","","","","","","","","","","","","","7000","","",""
"html-keyboard-response","180","389359","0.0-74.0-3.0","","null","<div style='margin:auto;width: auto; font-size: 150%'><span style='font-weight: bold; font-size: 100px; color: green;'>+10 points!</span><br><br></div>","null","delaylearn","learning","feedback_image_window","5f6fa1423bef885572c5d7e7","h6agCi9rs5QvEbYN5XzfFxzV85v2","","","","","","","","","","","","","","","","","","","","",""
"html-keyboard-response","181","391187","0.0-75.0","","null","<div style=""font-size:100px;"">+</div>","null","delaylearn","learning","ITI","5f6fa1423bef885572c5d7e7","h6agCi9rs5QvEbYN5XzfFxzV85v2","","","","","","","","","","","","","","","","","","","1811","",""
"html-keyboard-response","182","392134","0.0-76.0-0.0","","944.7999999998137","<div style=""display: flex; flex-direction: column; align-items: center; margin-top: -40px;""><img src=""images/pattern_5.png"" style=""width: 234px; height: 230px; margin-top: -50px;""><div style=""display: flex; justify-content: space-between; margin-top: 33px;""><img src=""images/choice_trial_9.png"" style=""width: 408px; height: 417px; margin-right: 200px;""><img src=""images/choice_trial_10.png"" style=""width: 408px; height: 417px;""></div></div>","f","delaylearn","learning","trial","5f6fa1423bef885572c5d7e7","h6agCi9rs5QvEbYN5XzfFxzV85v2","1","images/choice_trial_9.png","images/choice_trial_10.png","images/pattern_5.png","j","f","750","9","10","4","0","33","1","0","9","180","","","","",""
"html-keyboard-response","183","393139","0.0-76.0-1.0","","null","<div style=""display: flex; flex-direction: column; align-items: center; margin-top: -40px;""><img src=""images/pattern_5.png"" style=""width: 234px; height: 230px; margin-top: -50px;""><div style=""display: flex; justify-content: space-between; margin-top: 33px;""><img src=""images/choice_trial_9.png"" style=""width: 408px; height: 417px; margin-right: 608px;""></div></div>","null","delaylearn","learning","display_response","5f6fa1423bef885572c5d7e7","h6agCi9rs5QvEbYN5XzfFxzV85v2","","","","","","","","","","","","","","","","","chosen stimuli: images/choice_trial_9.png","","","",""
"html-keyboard-response","184","393899","0.0-76.0-2.0","","null","","null","delaylearn","learning","feedback_duration_window","5f6fa1423bef885572c5d7e7","h6agCi9rs5QvEbYN5XzfFxzV85v2","","","","","","","","","","","","","","","","","","750","","",""
"html-keyboard-response","185","395405","0.0-76.0-3.0","","null","<div style='margin:auto;width: auto; font-size: 150%'><span style='font-weight: bold; font-size: 100px; color: red;'>0 points!</span><br><br></div>","null","delaylearn","learning","feedback_image_window","5f6fa1423bef885572c5d7e7","h6agCi9rs5QvEbYN5XzfFxzV85v2","","","","","","","","","","","","","","","","","","","","",""
"html-keyboard-response","186","397171","0.0-77.0","","null","<div style=""font-size:100px;"">+</div>","null","delaylearn","learning","ITI","5f6fa1423bef885572c5d7e7","h6agCi9rs5QvEbYN5XzfFxzV85v2","","","","","","","","","","","","","","","","","","","1764","",""
"html-keyboard-response","187","398619","0.0-78.0-0.0","","1444.2999999998137","<div style=""display: flex; flex-direction: column; align-items: center; margin-top: -40px;""><img src=""images/pattern_1.png"" style=""width: 234px; height: 230px; margin-top: -50px;""><div style=""display: flex; justify-content: space-between; margin-top: 33px;""><img src=""images/choice_trial_1.png"" style=""width: 408px; height: 417px; margin-right: 200px;""><img src=""images/choice_trial_2.png"" style=""width: 408px; height: 417px;""></div></div>","j","delaylearn","learning","trial","5f6fa1423bef885572c5d7e7","h6agCi9rs5QvEbYN5XzfFxzV85v2","1","images/choice_trial_1.png","images/choice_trial_2.png","images/pattern_1.png","f","f","7000","1","2","1","0","34","0","0","2","180","","","","",""
"html-keyboard-response","188","399638","0.0-78.0-1.0","","null","<div style=""display: flex; flex-direction: column; align-items: center; margin-top: -40px;""><img src=""images/pattern_1.png"" style=""width: 234px; height: 230px; margin-top: -50px;""><div style=""display: flex; justify-content: space-between; margin-top: 33px;""><img src=""images/choice_trial_2.png"" style=""width: 408px; height: 417px; margin-left:608px;""></div></div>","null","delaylearn","learning","display_response","5f6fa1423bef885572c5d7e7","h6agCi9rs5QvEbYN5XzfFxzV85v2","","","","","","","","","","","","","","","","","chosen stimuli: images/choice_trial_2.png","","","",""
"html-keyboard-response","189","406654","0.0-78.0-2.0","","null","","null","delaylearn","learning","feedback_duration_window","5f6fa1423bef885572c5d7e7","h6agCi9rs5QvEbYN5XzfFxzV85v2","","","","","","","","","","","","","","","","","","7000","","",""
"html-keyboard-response","190","408171","0.0-78.0-3.0","","null","<div style='margin:auto;width: auto; font-size: 150%'><span style='font-weight: bold; font-size: 100px; color: red;'>0 points!</span><br><br></div>","null","delaylearn","learning","feedback_image_window","5f6fa1423bef885572c5d7e7","h6agCi9rs5QvEbYN5XzfFxzV85v2","","","","","","","","","","","","","","","","","","","","",""
"html-keyboard-response","191","408686","0.0-79.0-0.0","","null","","null","","","mood_trial_fixation","","","","","","","","","","","","","","","","","","","","","","",""
"lmdlab-html-vas-response","192","413522","0.0-79.0-1.0","","3816","How happy are you right now?","0.2569685332230682","delaylearn","learning","mood_trial","5f6fa1423bef885572c5d7e7","h6agCi9rs5QvEbYN5XzfFxzV85v2","","","","","","","","","","","","","","","","","","","","[""Very unhappy"",""Very happy""]",""
"html-keyboard-response","193","415640","0.0-80.0","","null","<div style=""font-size:100px;"">+</div>","null","delaylearn","learning","ITI","5f6fa1423bef885572c5d7e7","h6agCi9rs5QvEbYN5XzfFxzV85v2","","","","","","","","","","","","","","","","","","","2111","",""
"html-keyboard-response","194","416787","0.0-81.0-0.0","","1144.6000000005588","<div style=""display: flex; flex-direction: column; align-items: center; margin-top: -40px;""><img src=""images/pattern_6.png"" style=""width: 234px; height: 230px; margin-top: -50px;""><div style=""display: flex; justify-content: space-between; margin-top: 33px;""><img src=""images/choice_trial_11.png"" style=""width: 408px; height: 417px; margin-right: 200px;""><img src=""images/choice_trial_12.png"" style=""width: 408px; height: 417px;""></div></div>","f","delaylearn","learning","trial","5f6fa1423bef885572c5d7e7","h6agCi9rs5QvEbYN5XzfFxzV85v2","1","images/choice_trial_11.png","images/choice_trial_12.png","images/pattern_6.png","j","f","750","11","12","5","0","35","1","0","11","180","","","","",""
"html-keyboard-response","195","417798","0.0-81.0-1.0","","null","<div style=""display: flex; flex-direction: column; align-items: center; margin-top: -40px;""><img src=""images/pattern_6.png"" style=""width: 234px; height: 230px; margin-top: -50px;""><div style=""display: flex; justify-content: space-between; margin-top: 33px;""><img src=""images/choice_trial_11.png"" style=""width: 408px; height: 417px; margin-right: 608px;""></div></div>","null","delaylearn","learning","display_response","5f6fa1423bef885572c5d7e7","h6agCi9rs5QvEbYN5XzfFxzV85v2","","","","","","","","","","","","","","","","","chosen stimuli: images/choice_trial_11.png","","","",""
"html-keyboard-response","196","418576","0.0-81.0-2.0","","null","","null","delaylearn","learning","feedback_duration_window","5f6fa1423bef885572c5d7e7","h6agCi9rs5QvEbYN5XzfFxzV85v2","","","","","","","","","","","","","","","","","","750","","",""
"html-keyboard-response","197","420091","0.0-81.0-3.0","","null","<div style='margin:auto;width: auto; font-size: 150%'><span style='font-weight: bold; font-size: 100px; color: red;'>0 points!</span><br><br></div>","null","delaylearn","learning","feedback_image_window","5f6fa1423bef885572c5d7e7","h6agCi9rs5QvEbYN5XzfFxzV85v2","","","","","","","","","","","","","","","","","","","","",""
"html-keyboard-response","198","421951","0.0-82.0","","null","<div style=""font-size:100px;"">+</div>","null","delaylearn","learning","ITI","5f6fa1423bef885572c5d7e7","h6agCi9rs5QvEbYN5XzfFxzV85v2","","","","","","","","","","","","","","","","","","","1858","",""
"html-keyboard-response","199","424601","0.0-83.0-0.0","","2647.2000000001863","<div style=""display: flex; flex-direction: column; align-items: center; margin-top: -40px;""><img src=""images/pattern_3.png"" style=""width: 234px; height: 230px; margin-top: -50px;""><div style=""display: flex; justify-content: space-between; margin-top: 33px;""><img src=""images/choice_trial_6.png"" style=""width: 408px; height: 417px; margin-right: 200px;""><img src=""images/choice_trial_5.png"" style=""width: 408px; height: 417px;""></div></div>","f","delaylearn","learning","trial","5f6fa1423bef885572c5d7e7","h6agCi9rs5QvEbYN5XzfFxzV85v2","1","images/choice_trial_6.png","images/choice_trial_5.png","images/pattern_3.png","j","j","7000","6","5","2","1","36","0","0","6","180","","","","",""
"html-keyboard-response","200","425609","0.0-83.0-1.0","","null","<div style=""display: flex; flex-direction: column; align-items: center; margin-top: -40px;""><img src=""images/pattern_3.png"" style=""width: 234px; height: 230px; margin-top: -50px;""><div style=""display: flex; justify-content: space-between; margin-top: 33px;""><img src=""images/choice_trial_6.png"" style=""width: 408px; height: 417px; margin-right: 608px;""></div></div>","null","delaylearn","learning","display_response","5f6fa1423bef885572c5d7e7","h6agCi9rs5QvEbYN5XzfFxzV85v2","","","","","","","","","","","","","","","","","chosen stimuli: images/choice_trial_6.png","","","",""
"html-keyboard-response","201","432611","0.0-83.0-2.0","","null","","null","delaylearn","learning","feedback_duration_window","5f6fa1423bef885572c5d7e7","h6agCi9rs5QvEbYN5XzfFxzV85v2","","","","","","","","","","","","","","","","","","7000","","",""
"html-keyboard-response","202","434124","0.0-83.0-3.0","","null","<div style='margin:auto;width: auto; font-size: 150%'><span style='font-weight: bold; font-size: 100px; color: red;'>0 points!</span><br><br></div>","null","delaylearn","learning","feedback_image_window","5f6fa1423bef885572c5d7e7","h6agCi9rs5QvEbYN5XzfFxzV85v2","","","","","","","","","","","","","","","","","","","","",""
"html-keyboard-response","203","435935","0.0-84.0","","null","<div style=""font-size:100px;"">+</div>","null","delaylearn","learning","ITI","5f6fa1423bef885572c5d7e7","h6agCi9rs5QvEbYN5XzfFxzV85v2","","","","","","","","","","","","","","","","","","","1792","",""
"html-keyboard-response","204","437791","0.0-85.0-0.0","","1853.4000000003725","<div style=""display: flex; flex-direction: column; align-items: center; margin-top: -40px;""><img src=""images/pattern_4.png"" style=""width: 234px; height: 230px; margin-top: -50px;""><div style=""display: flex; justify-content: space-between; margin-top: 33px;""><img src=""images/choice_trial_8.png"" style=""width: 408px; height: 417px; margin-right: 200px;""><img src=""images/choice_trial_7.png"" style=""width: 408px; height: 417px;""></div></div>","j","delaylearn","learning","trial","5f6fa1423bef885572c5d7e7","h6agCi9rs5QvEbYN5XzfFxzV85v2","1","images/choice_trial_8.png","images/choice_trial_7.png","images/pattern_4.png","f","j","7000","8","7","3","1","37","1","0","7","180","","","","",""
"html-keyboard-response","205","438794","0.0-85.0-1.0","","null","<div style=""display: flex; flex-direction: column; align-items: center; margin-top: -40px;""><img src=""images/pattern_4.png"" style=""width: 234px; height: 230px; margin-top: -50px;""><div style=""display: flex; justify-content: space-between; margin-top: 33px;""><img src=""images/choice_trial_7.png"" style=""width: 408px; height: 417px; margin-left:608px;""></div></div>","null","delaylearn","learning","display_response","5f6fa1423bef885572c5d7e7","h6agCi9rs5QvEbYN5XzfFxzV85v2","","","","","","","","","","","","","","","","","chosen stimuli: images/choice_trial_7.png","","","",""
"html-keyboard-response","206","445796","0.0-85.0-2.0","","null","","null","delaylearn","learning","feedback_duration_window","5f6fa1423bef885572c5d7e7","h6agCi9rs5QvEbYN5XzfFxzV85v2","","","","","","","","","","","","","","","","","","7000","","",""
"html-keyboard-response","207","447313","0.0-85.0-3.0","","null","<div style='margin:auto;width: auto; font-size: 150%'><span style='font-weight: bold; font-size: 100px; color: red;'>0 points!</span><br><br></div>","null","delaylearn","learning","feedback_image_window","5f6fa1423bef885572c5d7e7","h6agCi9rs5QvEbYN5XzfFxzV85v2","","","","","","","","","","","","","","","","","","","","",""
"html-keyboard-response","208","449217","0.0-86.0","","null","<div style=""font-size:100px;"">+</div>","null","delaylearn","learning","ITI","5f6fa1423bef885572c5d7e7","h6agCi9rs5QvEbYN5XzfFxzV85v2","","","","","","","","","","","","","","","","","","","1895","",""
"html-keyboard-response","209","451801","0.0-87.0-0.0","","2580.7999999998137","<div style=""display: flex; flex-direction: column; align-items: center; margin-top: -40px;""><img src=""images/pattern_7.png"" style=""width: 234px; height: 230px; margin-top: -50px;""><div style=""display: flex; justify-content: space-between; margin-top: 33px;""><img src=""images/choice_trial_13.png"" style=""width: 408px; height: 417px; margin-right: 200px;""><img src=""images/choice_trial_14.png"" style=""width: 408px; height: 417px;""></div></div>","f","delaylearn","learning","trial","5f6fa1423bef885572c5d7e7","h6agCi9rs5QvEbYN5XzfFxzV85v2","1","images/choice_trial_13.png","images/choice_trial_14.png","images/pattern_7.png","f","f","750","13","14","6","0","38","1","1","13","190","","","","",""
"html-keyboard-response","210","452816","0.0-87.0-1.0","","null","<div style=""display: flex; flex-direction: column; align-items: center; margin-top: -40px;""><img src=""images/pattern_7.png"" style=""width: 234px; height: 230px; margin-top: -50px;""><div style=""display: flex; justify-content: space-between; margin-top: 33px;""><img src=""images/choice_trial_13.png"" style=""width: 408px; height: 417px; margin-right: 608px;""></div></div>","null","delaylearn","learning","display_response","5f6fa1423bef885572c5d7e7","h6agCi9rs5QvEbYN5XzfFxzV85v2","","","","","","","","","","","","","","","","","chosen stimuli: images/choice_trial_13.png","","","",""
"html-keyboard-response","211","453578","0.0-87.0-2.0","","null","","null","delaylearn","learning","feedback_duration_window","5f6fa1423bef885572c5d7e7","h6agCi9rs5QvEbYN5XzfFxzV85v2","","","","","","","","","","","","","","","","","","750","","",""
"html-keyboard-response","212","455094","0.0-87.0-3.0","","null","<div style='margin:auto;width: auto; font-size: 150%'><span style='font-weight: bold; font-size: 100px; color: green;'>+10 points!</span><br><br></div>","null","delaylearn","learning","feedback_image_window","5f6fa1423bef885572c5d7e7","h6agCi9rs5QvEbYN5XzfFxzV85v2","","","","","","","","","","","","","","","","","","","","",""
"html-keyboard-response","213","456786","0.0-88.0","","null","<div style=""font-size:100px;"">+</div>","null","delaylearn","learning","ITI","5f6fa1423bef885572c5d7e7","h6agCi9rs5QvEbYN5XzfFxzV85v2","","","","","","","","","","","","","","","","","","","1684","",""
"html-keyboard-response","214","459236","0.0-89.0-0.0","","2446.2999999998137","<div style=""display: flex; flex-direction: column; align-items: center; margin-top: -40px;""><img src=""images/pattern_1.png"" style=""width: 234px; height: 230px; margin-top: -50px;""><div style=""display: flex; justify-content: space-between; margin-top: 33px;""><img src=""images/choice_trial_1.png"" style=""width: 408px; height: 417px; margin-right: 200px;""><img src=""images/choice_trial_2.png"" style=""width: 408px; height: 417px;""></div></div>","j","delaylearn","learning","trial","5f6fa1423bef885572c5d7e7","h6agCi9rs5QvEbYN5XzfFxzV85v2","1","images/choice_trial_1.png","images/choice_trial_2.png","images/pattern_1.png","f","f","7000","1","2","1","0","39","0","0","2","190","","","","",""
"html-keyboard-response","215","460248","0.0-89.0-1.0","","null","<div style=""display: flex; flex-direction: column; align-items: center; margin-top: -40px;""><img src=""images/pattern_1.png"" style=""width: 234px; height: 230px; margin-top: -50px;""><div style=""display: flex; justify-content: space-between; margin-top: 33px;""><img src=""images/choice_trial_2.png"" style=""width: 408px; height: 417px; margin-left:608px;""></div></div>","null","delaylearn","learning","display_response","5f6fa1423bef885572c5d7e7","h6agCi9rs5QvEbYN5XzfFxzV85v2","","","","","","","","","","","","","","","","","chosen stimuli: images/choice_trial_2.png","","","",""
"html-keyboard-response","216","467264","0.0-89.0-2.0","","null","","null","delaylearn","learning","feedback_duration_window","5f6fa1423bef885572c5d7e7","h6agCi9rs5QvEbYN5XzfFxzV85v2","","","","","","","","","","","","","","","","","","7000","","",""
"html-keyboard-response","217","468779","0.0-89.0-3.0","","null","<div style='margin:auto;width: auto; font-size: 150%'><span style='font-weight: bold; font-size: 100px; color: red;'>0 points!</span><br><br></div>","null","delaylearn","learning","feedback_image_window","5f6fa1423bef885572c5d7e7","h6agCi9rs5QvEbYN5XzfFxzV85v2","","","","","","","","","","","","","","","","","","","","",""
"html-keyboard-response","218","469282","0.0-90.0-0.0","","null","","null","","","mood_trial_fixation","","","","","","","","","","","","","","","","","","","","","","",""
"lmdlab-html-vas-response","219","473350","0.0-90.0-1.0","","3051","How happy are you right now?","0.09878952832683383","delaylearn","learning","mood_trial","5f6fa1423bef885572c5d7e7","h6agCi9rs5QvEbYN5XzfFxzV85v2","","","","","","","","","","","","","","","","","","","","[""Very unhappy"",""Very happy""]",""
"html-keyboard-response","220","475514","0.0-91.0","","null","<div style=""font-size:100px;"">+</div>","null","delaylearn","learning","ITI","5f6fa1423bef885572c5d7e7","h6agCi9rs5QvEbYN5XzfFxzV85v2","","","","","","","","","","","","","","","","","","","2150","",""
