"trial_type","trial_index","time_elapsed","internal_node_id","participant","rt","stimulus","response","exp_name","exp_stage","test_part","subjectID","databaseID","counterbal","choice_stimuli_1","choice_stimuli_2","pattern_stimuli","rewarded_answer","correct_answer","feedback_duration_times","stim_left","stim_right","pair","leftright_counter","trial","response_correct","response_rewarded","chosen_stim","counter","displayed_choice","feedback_durations","ITI_duration","labels","rest_warning"
"pavlovia","0","554","0.0-0.0","","","","","","","","","","","","","","","","","","","","","","","","","","","","","",""
"html-keyboard-response","1","3557","0.0-1.0","","null","<div style=""font-size:100px;"">+</div>","null","delaylearn","learning","pre_fixation","5e3da76a9e51f801298c7510","","","","","","","","","","","","","","","","","","","","","",""
"html-keyboard-response","2","4841","0.0-2.0-0.0","","1281.2999999821186","<div style=""display: flex; flex-direction: column; align-items: center; margin-top: -40px;""><img src=""images/demo_images/pattern_1.png"" style=""width: 234px; height: 230px; margin-top: -50px;""><div style=""display: flex; justify-content: space-between; margin-top: 33px;""><img src=""images/demo_images/choice_trial_2.png"" style=""width: 408px; height: 417px; margin-right: 200px;""><img src=""images/demo_images/choice_trial_1.png"" style=""width: 408px; height: 417px;""></div></div>","f","delaylearn","learning","trial","5e3da76a9e51f801298c7510","mMp7Lgc6YWVrJS1zBG1rBVjrd2E2","4","images/demo_images/choice_trial_2.png","images/demo_images/choice_trial_1.png","images/demo_images/pattern_1.png","j","j","3000","2","1","20","1","1","0","0","2","0","","","","",""
"html-keyboard-response","3","5845","0.0-2.0-1.0","","null","<div style=""display: flex; flex-direction: column; align-items: center; margin-top: -40px;""><img src=""images/demo_images/pattern_1.png"" style=""width: 234px; height: 230px; margin-top: -50px;""><div style=""display: flex; justify-content: space-between; margin-top: 33px;""><img src=""images/demo_images/choice_trial_2.png"" style=""width: 408px; height: 417px; margin-right: 608px;""></div></div>","null","delaylearn","learning","display_response","5e3da76a9e51f801298c7510","mMp7Lgc6YWVrJS1zBG1rBVjrd2E2","","","","","","","","","","","","","","","","","chosen stimuli: images/demo_images/choice_trial_2.png","","","",""
"html-keyboard-response","4","8853","0.0-2.0-2.0","","null","","null","delaylearn","learning","feedback_duration_window","5e3da76a9e51f801298c7510","mMp7Lgc6YWVrJS1zBG1rBVjrd2E2","","","","","","","","","","","","","","","","","","3000","","",""
"html-keyboard-response","5","10358","0.0-2.0-3.0","","null","<div style='margin:auto;width: auto; font-size: 150%'><span style='font-weight: bold; font-size: 100px; color: red;'>0 points!</span><br><br></div>","null","delaylearn","learning","feedback_image_window","5e3da76a9e51f801298c7510","mMp7Lgc6YWVrJS1zBG1rBVjrd2E2","","","","","","","","","","","","","","","","","","","","",""
"html-keyboard-response","6","12761","0.0-3.0","","null","<div style=""font-size:100px;"">+</div>","null","delaylearn","learning","ITI","5e3da76a9e51f801298c7510","mMp7Lgc6YWVrJS1zBG1rBVjrd2E2","","","","","","","","","","","","","","","","","","","2400","",""
"html-keyboard-response","7","14132","0.0-4.0-0.0","","1367.5999999940395","<div style=""display: flex; flex-direction: column; align-items: center; margin-top: -40px;""><img src=""images/demo_images/pattern_1.png"" style=""width: 234px; height: 230px; margin-top: -50px;""><div style=""display: flex; justify-content: space-between; margin-top: 33px;""><img src=""images/demo_images/choice_trial_2.png"" style=""width: 408px; height: 417px; margin-right: 200px;""><img src=""images/demo_images/choice_trial_1.png"" style=""width: 408px; height: 417px;""></div></div>","j","delaylearn","learning","trial","5e3da76a9e51f801298c7510","mMp7Lgc6YWVrJS1zBG1rBVjrd2E2","4","images/demo_images/choice_trial_2.png","images/demo_images/choice_trial_1.png","images/demo_images/pattern_1.png","j","j","3000","2","1","20","1","2","1","1","1","10","","","","",""
"html-keyboard-response","8","15137","0.0-4.0-1.0","","null","<div style=""display: flex; flex-direction: column; align-items: center; margin-top: -40px;""><img src=""images/demo_images/pattern_1.png"" style=""width: 234px; height: 230px; margin-top: -50px;""><div style=""display: flex; justify-content: space-between; margin-top: 33px;""><img src=""images/demo_images/choice_trial_1.png"" style=""width: 408px; height: 417px; margin-left:608px;""></div></div>","null","delaylearn","learning","display_response","5e3da76a9e51f801298c7510","mMp7Lgc6YWVrJS1zBG1rBVjrd2E2","","","","","","","","","","","","","","","","","chosen stimuli: images/demo_images/choice_trial_1.png","","","",""
"html-keyboard-response","9","18141","0.0-4.0-2.0","","null","","null","delaylearn","learning","feedback_duration_window","5e3da76a9e51f801298c7510","mMp7Lgc6YWVrJS1zBG1rBVjrd2E2","","","","","","","","","","","","","","","","","","3000","","",""
"html-keyboard-response","10","19645","0.0-4.0-3.0","","null","<div style='margin:auto;width: auto; font-size: 150%'><span style='font-weight: bold; font-size: 100px; color: green;'>+10 points!</span><br><br></div>","null","delaylearn","learning","feedback_image_window","5e3da76a9e51f801298c7510","mMp7Lgc6YWVrJS1zBG1rBVjrd2E2","","","","","","","","","","","","","","","","","","","","",""
"html-keyboard-response","11","21640","0.0-5.0","","null","<div style=""font-size:100px;"">+</div>","null","delaylearn","learning","ITI","5e3da76a9e51f801298c7510","mMp7Lgc6YWVrJS1zBG1rBVjrd2E2","","","","","","","","","","","","","","","","","","","1988","",""
"html-keyboard-response","12","24048","0.0-6.0-0.0","","2405.7000000178814","<div style=""display: flex; flex-direction: column; align-items: center; margin-top: -40px;""><img src=""images/demo_images/pattern_1.png"" style=""width: 234px; height: 230px; margin-top: -50px;""><div style=""display: flex; justify-content: space-between; margin-top: 33px;""><img src=""images/demo_images/choice_trial_1.png"" style=""width: 408px; height: 417px; margin-right: 200px;""><img src=""images/demo_images/choice_trial_2.png"" style=""width: 408px; height: 417px;""></div></div>","f","delaylearn","learning","trial","5e3da76a9e51f801298c7510","mMp7Lgc6YWVrJS1zBG1rBVjrd2E2","4","images/demo_images/choice_trial_1.png","images/demo_images/choice_trial_2.png","images/demo_images/pattern_1.png","j","f","3000","1","2","20","0","3","1","0","1","10","","","","",""
"html-keyboard-response","13","25055","0.0-6.0-1.0","","null","<div style=""display: flex; flex-direction: column; align-items: center; margin-top: -40px;""><img src=""images/demo_images/pattern_1.png"" style=""width: 234px; height: 230px; margin-top: -50px;""><div style=""display: flex; justify-content: space-between; margin-top: 33px;""><img src=""images/demo_images/choice_trial_1.png"" style=""width: 408px; height: 417px; margin-right: 608px;""></div></div>","null","delaylearn","learning","display_response","5e3da76a9e51f801298c7510","mMp7Lgc6YWVrJS1zBG1rBVjrd2E2","","","","","","","","","","","","","","","","","chosen stimuli: images/demo_images/choice_trial_1.png","","","",""
"html-keyboard-response","14","28057","0.0-6.0-2.0","","null","","null","delaylearn","learning","feedback_duration_window","5e3da76a9e51f801298c7510","mMp7Lgc6YWVrJS1zBG1rBVjrd2E2","","","","","","","","","","","","","","","","","","3000","","",""
"html-keyboard-response","15","29563","0.0-6.0-3.0","","null","<div style='margin:auto;width: auto; font-size: 150%'><span style='font-weight: bold; font-size: 100px; color: red;'>0 points!</span><br><br></div>","null","delaylearn","learning","feedback_image_window","5e3da76a9e51f801298c7510","mMp7Lgc6YWVrJS1zBG1rBVjrd2E2","","","","","","","","","","","","","","","","","","","","",""
"html-keyboard-response","16","31992","0.0-7.0","","null","<div style=""font-size:100px;"">+</div>","null","delaylearn","learning","ITI","5e3da76a9e51f801298c7510","mMp7Lgc6YWVrJS1zBG1rBVjrd2E2","","","","","","","","","","","","","","","","","","","2421","",""
"html-keyboard-response","17","33802","0.0-8.0-0.0","","1807.5","<div style=""display: flex; flex-direction: column; align-items: center; margin-top: -40px;""><img src=""images/demo_images/pattern_1.png"" style=""width: 234px; height: 230px; margin-top: -50px;""><div style=""display: flex; justify-content: space-between; margin-top: 33px;""><img src=""images/demo_images/choice_trial_1.png"" style=""width: 408px; height: 417px; margin-right: 200px;""><img src=""images/demo_images/choice_trial_2.png"" style=""width: 408px; height: 417px;""></div></div>","j","delaylearn","learning","trial","5e3da76a9e51f801298c7510","mMp7Lgc6YWVrJS1zBG1rBVjrd2E2","4","images/demo_images/choice_trial_1.png","images/demo_images/choice_trial_2.png","images/demo_images/pattern_1.png","f","f","3000","1","2","20","0","4","0","0","2","10","","","","",""
"html-keyboard-response","18","34810","0.0-8.0-1.0","","null","<div style=""display: flex; flex-direction: column; align-items: center; margin-top: -40px;""><img src=""images/demo_images/pattern_1.png"" style=""width: 234px; height: 230px; margin-top: -50px;""><div style=""display: flex; justify-content: space-between; margin-top: 33px;""><img src=""images/demo_images/choice_trial_2.png"" style=""width: 408px; height: 417px; margin-left:608px;""></div></div>","null","delaylearn","learning","display_response","5e3da76a9e51f801298c7510","mMp7Lgc6YWVrJS1zBG1rBVjrd2E2","","","","","","","","","","","","","","","","","chosen stimuli: images/demo_images/choice_trial_2.png","","","",""
"html-keyboard-response","19","37816","0.0-8.0-2.0","","null","","null","delaylearn","learning","feedback_duration_window","5e3da76a9e51f801298c7510","mMp7Lgc6YWVrJS1zBG1rBVjrd2E2","","","","","","","","","","","","","","","","","","3000","","",""
"html-keyboard-response","20","39324","0.0-8.0-3.0","","null","<div style='margin:auto;width: auto; font-size: 150%'><span style='font-weight: bold; font-size: 100px; color: red;'>0 points!</span><br><br></div>","null","delaylearn","learning","feedback_image_window","5e3da76a9e51f801298c7510","mMp7Lgc6YWVrJS1zBG1rBVjrd2E2","","","","","","","","","","","","","","","","","","","","",""
"html-keyboard-response","21","39830","0.0-9.0-0.0","","null","","null","","","mood_trial_fixation","","","","","","","","","","","","","","","","","","","","","","",""
"lmdlab-html-vas-response","22","44887","0.0-9.0-1.0","","4042","How happy are you right now?","0.4185185185185185","delaylearn","learning","mood_trial","5e3da76a9e51f801298c7510","mMp7Lgc6YWVrJS1zBG1rBVjrd2E2","","","","","","","","","","","","","","","","","","","","[""Very unhappy"",""Very happy""]",""
"html-keyboard-response","23","46417","0.0-10.0","","null","<div style=""font-size:100px;"">+</div>","null","delaylearn","learning","ITI","5e3da76a9e51f801298c7510","mMp7Lgc6YWVrJS1zBG1rBVjrd2E2","","","","","","","","","","","","","","","","","","","1523","",""
"html-keyboard-response","24","47639","0.0-11.0-0.0","","1219.7999999821186","<div style=""display: flex; flex-direction: column; align-items: center; margin-top: -40px;""><img src=""images/demo_images/pattern_1.png"" style=""width: 234px; height: 230px; margin-top: -50px;""><div style=""display: flex; justify-content: space-between; margin-top: 33px;""><img src=""images/demo_images/choice_trial_2.png"" style=""width: 408px; height: 417px; margin-right: 200px;""><img src=""images/demo_images/choice_trial_1.png"" style=""width: 408px; height: 417px;""></div></div>","j","delaylearn","learning","trial","5e3da76a9e51f801298c7510","mMp7Lgc6YWVrJS1zBG1rBVjrd2E2","4","images/demo_images/choice_trial_2.png","images/demo_images/choice_trial_1.png","images/demo_images/pattern_1.png","j","j","3000","2","1","20","1","5","1","1","1","20","","","","",""
"html-keyboard-response","25","48646","0.0-11.0-1.0","","null","<div style=""display: flex; flex-direction: column; align-items: center; margin-top: -40px;""><img src=""images/demo_images/pattern_1.png"" style=""width: 234px; height: 230px; margin-top: -50px;""><div style=""display: flex; justify-content: space-between; margin-top: 33px;""><img src=""images/demo_images/choice_trial_1.png"" style=""width: 408px; height: 417px; margin-left:608px;""></div></div>","null","delaylearn","learning","display_response","5e3da76a9e51f801298c7510","mMp7Lgc6YWVrJS1zBG1rBVjrd2E2","","","","","","","","","","","","","","","","","chosen stimuli: images/demo_images/choice_trial_1.png","","","",""
"html-keyboard-response","26","51651","0.0-11.0-2.0","","null","","null","delaylearn","learning","feedback_duration_window","5e3da76a9e51f801298c7510","mMp7Lgc6YWVrJS1zBG1rBVjrd2E2","","","","","","","","","","","","","","","","","","3000","","",""
"html-keyboard-response","27","53153","0.0-11.0-3.0","","null","<div style='margin:auto;width: auto; font-size: 150%'><span style='font-weight: bold; font-size: 100px; color: green;'>+10 points!</span><br><br></div>","null","delaylearn","learning","feedback_image_window","5e3da76a9e51f801298c7510","mMp7Lgc6YWVrJS1zBG1rBVjrd2E2","","","","","","","","","","","","","","","","","","","","",""
"html-keyboard-response","28","55005","0.0-12.0","","null","<div style=""font-size:100px;"">+</div>","null","delaylearn","learning","ITI","5e3da76a9e51f801298c7510","mMp7Lgc6YWVrJS1zBG1rBVjrd2E2","","","","","","","","","","","","","","","","","","","1849","",""
"html-keyboard-response","29","56061","0.0-13.0-0.0","","1053","<div style=""display: flex; flex-direction: column; align-items: center; margin-top: -40px;""><img src=""images/demo_images/pattern_1.png"" style=""width: 234px; height: 230px; margin-top: -50px;""><div style=""display: flex; justify-content: space-between; margin-top: 33px;""><img src=""images/demo_images/choice_trial_1.png"" style=""width: 408px; height: 417px; margin-right: 200px;""><img src=""images/demo_images/choice_trial_2.png"" style=""width: 408px; height: 417px;""></div></div>","f","delaylearn","learning","trial","5e3da76a9e51f801298c7510","mMp7Lgc6YWVrJS1zBG1rBVjrd2E2","4","images/demo_images/choice_trial_1.png","images/demo_images/choice_trial_2.png","images/demo_images/pattern_1.png","f","f","3000","1","2","20","0","6","1","1","1","30","","","","",""
"html-keyboard-response","30","57066","0.0-13.0-1.0","","null","<div style=""display: flex; flex-direction: column; align-items: center; margin-top: -40px;""><img src=""images/demo_images/pattern_1.png"" style=""width: 234px; height: 230px; margin-top: -50px;""><div style=""display: flex; justify-content: space-between; margin-top: 33px;""><img src=""images/demo_images/choice_trial_1.png"" style=""width: 408px; height: 417px; margin-right: 608px;""></div></div>","null","delaylearn","learning","display_response","5e3da76a9e51f801298c7510","mMp7Lgc6YWVrJS1zBG1rBVjrd2E2","","","","","","","","","","","","","","","","","chosen stimuli: images/demo_images/choice_trial_1.png","","","",""
"html-keyboard-response","31","60071","0.0-13.0-2.0","","null","","null","delaylearn","learning","feedback_duration_window","5e3da76a9e51f801298c7510","mMp7Lgc6YWVrJS1zBG1rBVjrd2E2","","","","","","","","","","","","","","","","","","3000","","",""
"html-keyboard-response","32","61578","0.0-13.0-3.0","","null","<div style='margin:auto;width: auto; font-size: 150%'><span style='font-weight: bold; font-size: 100px; color: green;'>+10 points!</span><br><br></div>","null","delaylearn","learning","feedback_image_window","5e3da76a9e51f801298c7510","mMp7Lgc6YWVrJS1zBG1rBVjrd2E2","","","","","","","","","","","","","","","","","","","","",""
"html-keyboard-response","33","63270","0.0-14.0","","null","<div style=""font-size:100px;"">+</div>","null","delaylearn","learning","ITI","5e3da76a9e51f801298c7510","mMp7Lgc6YWVrJS1zBG1rBVjrd2E2","","","","","","","","","","","","","","","","","","","1685","",""
"html-keyboard-response","34","64098","0.0-15.0-0.0","","825","<div style=""display: flex; flex-direction: column; align-items: center; margin-top: -40px;""><img src=""images/demo_images/pattern_1.png"" style=""width: 234px; height: 230px; margin-top: -50px;""><div style=""display: flex; justify-content: space-between; margin-top: 33px;""><img src=""images/demo_images/choice_trial_2.png"" style=""width: 408px; height: 417px; margin-right: 200px;""><img src=""images/demo_images/choice_trial_1.png"" style=""width: 408px; height: 417px;""></div></div>","j","delaylearn","learning","trial","5e3da76a9e51f801298c7510","mMp7Lgc6YWVrJS1zBG1rBVjrd2E2","4","images/demo_images/choice_trial_2.png","images/demo_images/choice_trial_1.png","images/demo_images/pattern_1.png","j","j","3000","2","1","20","1","7","1","1","1","40","","","","",""
"html-keyboard-response","35","65105","0.0-15.0-1.0","","null","<div style=""display: flex; flex-direction: column; align-items: center; margin-top: -40px;""><img src=""images/demo_images/pattern_1.png"" style=""width: 234px; height: 230px; margin-top: -50px;""><div style=""display: flex; justify-content: space-between; margin-top: 33px;""><img src=""images/demo_images/choice_trial_1.png"" style=""width: 408px; height: 417px; margin-left:608px;""></div></div>","null","delaylearn","learning","display_response","5e3da76a9e51f801298c7510","mMp7Lgc6YWVrJS1zBG1rBVjrd2E2","","","","","","","","","","","","","","","","","chosen stimuli: images/demo_images/choice_trial_1.png","","","",""
"html-keyboard-response","36","68112","0.0-15.0-2.0","","null","","null","delaylearn","learning","feedback_duration_window","5e3da76a9e51f801298c7510","mMp7Lgc6YWVrJS1zBG1rBVjrd2E2","","","","","","","","","","","","","","","","","","3000","","",""
"html-keyboard-response","37","69620","0.0-15.0-3.0","","null","<div style='margin:auto;width: auto; font-size: 150%'><span style='font-weight: bold; font-size: 100px; color: green;'>+10 points!</span><br><br></div>","null","delaylearn","learning","feedback_image_window","5e3da76a9e51f801298c7510","mMp7Lgc6YWVrJS1zBG1rBVjrd2E2","","","","","","","","","","","","","","","","","","","","",""
"html-keyboard-response","38","71128","0.0-16.0","","null","<div style=""font-size:100px;"">+</div>","null","delaylearn","learning","ITI","5e3da76a9e51f801298c7510","mMp7Lgc6YWVrJS1zBG1rBVjrd2E2","","","","","","","","","","","","","","","","","","","1501","",""
"html-keyboard-response","39","72075","0.0-17.0-0.0","","943.9000000059605","<div style=""display: flex; flex-direction: column; align-items: center; margin-top: -40px;""><img src=""images/demo_images/pattern_1.png"" style=""width: 234px; height: 230px; margin-top: -50px;""><div style=""display: flex; justify-content: space-between; margin-top: 33px;""><img src=""images/demo_images/choice_trial_1.png"" style=""width: 408px; height: 417px; margin-right: 200px;""><img src=""images/demo_images/choice_trial_2.png"" style=""width: 408px; height: 417px;""></div></div>","f","delaylearn","learning","trial","5e3da76a9e51f801298c7510","mMp7Lgc6YWVrJS1zBG1rBVjrd2E2","4","images/demo_images/choice_trial_1.png","images/demo_images/choice_trial_2.png","images/demo_images/pattern_1.png","f","f","3000","1","2","20","0","8","1","1","1","50","","","","",""
"html-keyboard-response","40","73082","0.0-17.0-1.0","","null","<div style=""display: flex; flex-direction: column; align-items: center; margin-top: -40px;""><img src=""images/demo_images/pattern_1.png"" style=""width: 234px; height: 230px; margin-top: -50px;""><div style=""display: flex; justify-content: space-between; margin-top: 33px;""><img src=""images/demo_images/choice_trial_1.png"" style=""width: 408px; height: 417px; margin-right: 608px;""></div></div>","null","delaylearn","learning","display_response","5e3da76a9e51f801298c7510","mMp7Lgc6YWVrJS1zBG1rBVjrd2E2","","","","","","","","","","","","","","","","","chosen stimuli: images/demo_images/choice_trial_1.png","","","",""
"html-keyboard-response","41","76088","0.0-17.0-2.0","","null","","null","delaylearn","learning","feedback_duration_window","5e3da76a9e51f801298c7510","mMp7Lgc6YWVrJS1zBG1rBVjrd2E2","","","","","","","","","","","","","","","","","","3000","","",""
"html-keyboard-response","42","77592","0.0-17.0-3.0","","null","<div style='margin:auto;width: auto; font-size: 150%'><span style='font-weight: bold; font-size: 100px; color: green;'>+10 points!</span><br><br></div>","null","delaylearn","learning","feedback_image_window","5e3da76a9e51f801298c7510","mMp7Lgc6YWVrJS1zBG1rBVjrd2E2","","","","","","","","","","","","","","","","","","","","",""
"html-button-response","43","80152","0.0-18.0","","2557.2000000178814","
  <div style=""display: flex; align-items: center; justify-content: center; height: 80vh;"">
  <div>
          <img src=""images/inst_demo_finish.png"" style=""width: 80vw; height:auto;"">
          <br><br>
      </div>
      <br><br>
  </div>","0","","","","","","","","","","","","","","","","","","","","","","","","","",""
"html-keyboard-response","44","82408","0.0-19.0","","2254.5","
  <div style=""display: flex; align-items: center; justify-content: center; height: 80vh;"">
  <div>
          <img src=""images/inst_6.png"" style=""width: 80vw; height:auto;"">
          <br><br>
      </div>
      <br><br>
  </div>","f","","","","","","","","","","","","","","","","","","","","","","","","","",""
"html-keyboard-response","45","85412","0.0-20.0","","null","<div style=""font-size:100px;"">+</div>","null","delaylearn","learning","pre_fixation","5e3da76a9e51f801298c7510","","","","","","","","","","","","","","","","","","","","","",""
"html-keyboard-response","46","87390","0.0-21.0","","null","<div style=""font-size:100px;"">+</div>","null","delaylearn","learning","ITI","5e3da76a9e51f801298c7510","mMp7Lgc6YWVrJS1zBG1rBVjrd2E2","","","","","","","","","","","","","","","","","","","1970","",""
"html-keyboard-response","47","89590","0.0-22.0-0.0","","2197.4000000059605","<div style=""display: flex; flex-direction: column; align-items: center; margin-top: -40px;""><img src=""images/pattern_3.png"" style=""width: 234px; height: 230px; margin-top: -50px;""><div style=""display: flex; justify-content: space-between; margin-top: 33px;""><img src=""images/choice_trial_16.png"" style=""width: 408px; height: 417px; margin-right: 200px;""><img src=""images/choice_trial_6.png"" style=""width: 408px; height: 417px;""></div></div>","f","delaylearn","learning","trial","5e3da76a9e51f801298c7510","mMp7Lgc6YWVrJS1zBG1rBVjrd2E2","4","images/choice_trial_16.png","images/choice_trial_6.png","images/pattern_3.png","f","f","7000","16","6","2","0","9","1","1","16","60","","","","",""
"html-keyboard-response","48","90597","0.0-22.0-1.0","","null","<div style=""display: flex; flex-direction: column; align-items: center; margin-top: -40px;""><img src=""images/pattern_3.png"" style=""width: 234px; height: 230px; margin-top: -50px;""><div style=""display: flex; justify-content: space-between; margin-top: 33px;""><img src=""images/choice_trial_16.png"" style=""width: 408px; height: 417px; margin-right: 608px;""></div></div>","null","delaylearn","learning","display_response","5e3da76a9e51f801298c7510","mMp7Lgc6YWVrJS1zBG1rBVjrd2E2","","","","","","","","","","","","","","","","","chosen stimuli: images/choice_trial_16.png","","","",""
"html-keyboard-response","49","97603","0.0-22.0-2.0","","null","","null","delaylearn","learning","feedback_duration_window","5e3da76a9e51f801298c7510","mMp7Lgc6YWVrJS1zBG1rBVjrd2E2","","","","","","","","","","","","","","","","","","7000","","",""
"html-keyboard-response","50","99112","0.0-22.0-3.0","","null","<div style='margin:auto;width: auto; font-size: 150%'><span style='font-weight: bold; font-size: 100px; color: green;'>+10 points!</span><br><br></div>","null","delaylearn","learning","feedback_image_window","5e3da76a9e51f801298c7510","mMp7Lgc6YWVrJS1zBG1rBVjrd2E2","","","","","","","","","","","","","","","","","","","","",""
"html-keyboard-response","51","101269","0.0-23.0","","null","<div style=""font-size:100px;"">+</div>","null","delaylearn","learning","ITI","5e3da76a9e51f801298c7510","mMp7Lgc6YWVrJS1zBG1rBVjrd2E2","","","","","","","","","","","","","","","","","","","2150","",""
"html-keyboard-response","52","102844","0.0-24.0-0.0","","1572.7000000178814","<div style=""display: flex; flex-direction: column; align-items: center; margin-top: -40px;""><img src=""images/pattern_7.png"" style=""width: 234px; height: 230px; margin-top: -50px;""><div style=""display: flex; justify-content: space-between; margin-top: 33px;""><img src=""images/choice_trial_4.png"" style=""width: 408px; height: 417px; margin-right: 200px;""><img src=""images/choice_trial_13.png"" style=""width: 408px; height: 417px;""></div></div>","j","delaylearn","learning","trial","5e3da76a9e51f801298c7510","mMp7Lgc6YWVrJS1zBG1rBVjrd2E2","4","images/choice_trial_4.png","images/choice_trial_13.png","images/pattern_7.png","j","j","750","4","13","6","1","10","1","1","13","70","","","","",""
"html-keyboard-response","53","103852","0.0-24.0-1.0","","null","<div style=""display: flex; flex-direction: column; align-items: center; margin-top: -40px;""><img src=""images/pattern_7.png"" style=""width: 234px; height: 230px; margin-top: -50px;""><div style=""display: flex; justify-content: space-between; margin-top: 33px;""><img src=""images/choice_trial_13.png"" style=""width: 408px; height: 417px; margin-left:608px;""></div></div>","null","delaylearn","learning","display_response","5e3da76a9e51f801298c7510","mMp7Lgc6YWVrJS1zBG1rBVjrd2E2","","","","","","","","","","","","","","","","","chosen stimuli: images/choice_trial_13.png","","","",""
"html-keyboard-response","54","104609","0.0-24.0-2.0","","null","","null","delaylearn","learning","feedback_duration_window","5e3da76a9e51f801298c7510","mMp7Lgc6YWVrJS1zBG1rBVjrd2E2","","","","","","","","","","","","","","","","","","750","","",""
"html-keyboard-response","55","106117","0.0-24.0-3.0","","null","<div style='margin:auto;width: auto; font-size: 150%'><span style='font-weight: bold; font-size: 100px; color: green;'>+10 points!</span><br><br></div>","null","delaylearn","learning","feedback_image_window","5e3da76a9e51f801298c7510","mMp7Lgc6YWVrJS1zBG1rBVjrd2E2","","","","","","","","","","","","","","","","","","","","",""
"html-keyboard-response","56","108088","0.0-25.0","","null","<div style=""font-size:100px;"">+</div>","null","delaylearn","learning","ITI","5e3da76a9e51f801298c7510","mMp7Lgc6YWVrJS1zBG1rBVjrd2E2","","","","","","","","","","","","","","","","","","","1966","",""
"html-keyboard-response","57","110689","0.0-26.0-0.0","","2597.300000011921","<div style=""display: flex; flex-direction: column; align-items: center; margin-top: -40px;""><img src=""images/pattern_4.png"" style=""width: 234px; height: 230px; margin-top: -50px;""><div style=""display: flex; justify-content: space-between; margin-top: 33px;""><img src=""images/choice_trial_8.png"" style=""width: 408px; height: 417px; margin-right: 200px;""><img src=""images/choice_trial_7.png"" style=""width: 408px; height: 417px;""></div></div>","j","delaylearn","learning","trial","5e3da76a9e51f801298c7510","mMp7Lgc6YWVrJS1zBG1rBVjrd2E2","4","images/choice_trial_8.png","images/choice_trial_7.png","images/pattern_4.png","f","f","7000","8","7","3","0","11","0","0","7","70","","","","",""
"html-keyboard-response","58","111693","0.0-26.0-1.0","","null","<div style=""display: flex; flex-direction: column; align-items: center; margin-top: -40px;""><img src=""images/pattern_4.png"" style=""width: 234px; height: 230px; margin-top: -50px;""><div style=""display: flex; justify-content: space-between; margin-top: 33px;""><img src=""images/choice_trial_7.png"" style=""width: 408px; height: 417px; margin-left:608px;""></div></div>","null","delaylearn","learning","display_response","5e3da76a9e51f801298c7510","mMp7Lgc6YWVrJS1zBG1rBVjrd2E2","","","","","","","","","","","","","","","","","chosen stimuli: images/choice_trial_7.png","","","",""
"html-keyboard-response","59","118697","0.0-26.0-2.0","","null","","null","delaylearn","learning","feedback_duration_window","5e3da76a9e51f801298c7510","mMp7Lgc6YWVrJS1zBG1rBVjrd2E2","","","","","","","","","","","","","","","","","","7000","","",""
"html-keyboard-response","60","120205","0.0-26.0-3.0","","null","<div style='margin:auto;width: auto; font-size: 150%'><span style='font-weight: bold; font-size: 100px; color: red;'>0 points!</span><br><br></div>","null","delaylearn","learning","feedback_image_window","5e3da76a9e51f801298c7510","mMp7Lgc6YWVrJS1zBG1rBVjrd2E2","","","","","","","","","","","","","","","","","","","","",""
"html-keyboard-response","61","122664","0.0-27.0","","null","<div style=""font-size:100px;"">+</div>","null","delaylearn","learning","ITI","5e3da76a9e51f801298c7510","mMp7Lgc6YWVrJS1zBG1rBVjrd2E2","","","","","","","","","","","","","","","","","","","2453","",""
"html-keyboard-response","62","124475","0.0-28.0-0.0","","1807","<div style=""display: flex; flex-direction: column; align-items: center; margin-top: -40px;""><img src=""images/pattern_5.png"" style=""width: 234px; height: 230px; margin-top: -50px;""><div style=""display: flex; justify-content: space-between; margin-top: 33px;""><img src=""images/choice_trial_15.png"" style=""width: 408px; height: 417px; margin-right: 200px;""><img src=""images/choice_trial_5.png"" style=""width: 408px; height: 417px;""></div></div>","j","delaylearn","learning","trial","5e3da76a9e51f801298c7510","mMp7Lgc6YWVrJS1zBG1rBVjrd2E2","4","images/choice_trial_15.png","images/choice_trial_5.png","images/pattern_5.png","j","j","750","15","5","4","1","12","1","1","5","80","","","","",""
"html-keyboard-response","63","125482","0.0-28.0-1.0","","null","<div style=""display: flex; flex-direction: column; align-items: center; margin-top: -40px;""><img src=""images/pattern_5.png"" style=""width: 234px; height: 230px; margin-top: -50px;""><div style=""display: flex; justify-content: space-between; margin-top: 33px;""><img src=""images/choice_trial_5.png"" style=""width: 408px; height: 417px; margin-left:608px;""></div></div>","null","delaylearn","learning","display_response","5e3da76a9e51f801298c7510","mMp7Lgc6YWVrJS1zBG1rBVjrd2E2","","","","","","","","","","","","","","","","","chosen stimuli: images/choice_trial_5.png","","","",""
"html-keyboard-response","64","126239","0.0-28.0-2.0","","null","","null","delaylearn","learning","feedback_duration_window","5e3da76a9e51f801298c7510","mMp7Lgc6YWVrJS1zBG1rBVjrd2E2","","","","","","","","","","","","","","","","","","750","","",""
"html-keyboard-response","65","127746","0.0-28.0-3.0","","null","<div style='margin:auto;width: auto; font-size: 150%'><span style='font-weight: bold; font-size: 100px; color: green;'>+10 points!</span><br><br></div>","null","delaylearn","learning","feedback_image_window","5e3da76a9e51f801298c7510","mMp7Lgc6YWVrJS1zBG1rBVjrd2E2","","","","","","","","","","","","","","","","","","","","",""
"html-keyboard-response","66","129501","0.0-29.0","","null","<div style=""font-size:100px;"">+</div>","null","delaylearn","learning","ITI","5e3da76a9e51f801298c7510","mMp7Lgc6YWVrJS1zBG1rBVjrd2E2","","","","","","","","","","","","","","","","","","","1748","",""
"html-keyboard-response","67","131162","0.0-30.0-0.0","","1657.2000000178814","<div style=""display: flex; flex-direction: column; align-items: center; margin-top: -40px;""><img src=""images/pattern_6.png"" style=""width: 234px; height: 230px; margin-top: -50px;""><div style=""display: flex; justify-content: space-between; margin-top: 33px;""><img src=""images/choice_trial_10.png"" style=""width: 408px; height: 417px; margin-right: 200px;""><img src=""images/choice_trial_3.png"" style=""width: 408px; height: 417px;""></div></div>","f","delaylearn","learning","trial","5e3da76a9e51f801298c7510","mMp7Lgc6YWVrJS1zBG1rBVjrd2E2","4","images/choice_trial_10.png","images/choice_trial_3.png","images/pattern_6.png","j","f","750","10","3","5","0","13","1","0","10","80","","","","",""
"html-keyboard-response","68","132167","0.0-30.0-1.0","","null","<div style=""display: flex; flex-direction: column; align-items: center; margin-top: -40px;""><img src=""images/pattern_6.png"" style=""width: 234px; height: 230px; margin-top: -50px;""><div style=""display: flex; justify-content: space-between; margin-top: 33px;""><img src=""images/choice_trial_10.png"" style=""width: 408px; height: 417px; margin-right: 608px;""></div></div>","null","delaylearn","learning","display_response","5e3da76a9e51f801298c7510","mMp7Lgc6YWVrJS1zBG1rBVjrd2E2","","","","","","","","","","","","","","","","","chosen stimuli: images/choice_trial_10.png","","","",""
"html-keyboard-response","69","132921","0.0-30.0-2.0","","null","","null","delaylearn","learning","feedback_duration_window","5e3da76a9e51f801298c7510","mMp7Lgc6YWVrJS1zBG1rBVjrd2E2","","","","","","","","","","","","","","","","","","750","","",""
"html-keyboard-response","70","134428","0.0-30.0-3.0","","null","<div style='margin:auto;width: auto; font-size: 150%'><span style='font-weight: bold; font-size: 100px; color: red;'>0 points!</span><br><br></div>","null","delaylearn","learning","feedback_image_window","5e3da76a9e51f801298c7510","mMp7Lgc6YWVrJS1zBG1rBVjrd2E2","","","","","","","","","","","","","","","","","","","","",""
"html-keyboard-response","71","134933","0.0-31.0-0.0","","null","","null","","","mood_trial_fixation","","","","","","","","","","","","","","","","","","","","","","",""
"lmdlab-html-vas-response","72","138903","0.0-31.0-1.0","","2960","How happy are you right now?","0.5","delaylearn","learning","mood_trial","5e3da76a9e51f801298c7510","mMp7Lgc6YWVrJS1zBG1rBVjrd2E2","","","","","","","","","","","","","","","","","","","","[""Very unhappy"",""Very happy""]",""
"html-keyboard-response","73","141051","0.0-32.0","","null","<div style=""font-size:100px;"">+</div>","null","delaylearn","learning","ITI","5e3da76a9e51f801298c7510","mMp7Lgc6YWVrJS1zBG1rBVjrd2E2","","","","","","","","","","","","","","","","","","","2144","",""
"html-keyboard-response","74","142159","0.0-33.0-0.0","","1104.8999999761581","<div style=""display: flex; flex-direction: column; align-items: center; margin-top: -40px;""><img src=""images/pattern_1.png"" style=""width: 234px; height: 230px; margin-top: -50px;""><div style=""display: flex; justify-content: space-between; margin-top: 33px;""><img src=""images/choice_trial_9.png"" style=""width: 408px; height: 417px; margin-right: 200px;""><img src=""images/choice_trial_1.png"" style=""width: 408px; height: 417px;""></div></div>","f","delaylearn","learning","trial","5e3da76a9e51f801298c7510","mMp7Lgc6YWVrJS1zBG1rBVjrd2E2","4","images/choice_trial_9.png","images/choice_trial_1.png","images/pattern_1.png","j","j","7000","9","1","1","1","14","0","0","9","80","","","","",""
"html-keyboard-response","75","143167","0.0-33.0-1.0","","null","<div style=""display: flex; flex-direction: column; align-items: center; margin-top: -40px;""><img src=""images/pattern_1.png"" style=""width: 234px; height: 230px; margin-top: -50px;""><div style=""display: flex; justify-content: space-between; margin-top: 33px;""><img src=""images/choice_trial_9.png"" style=""width: 408px; height: 417px; margin-right: 608px;""></div></div>","null","delaylearn","learning","display_response","5e3da76a9e51f801298c7510","mMp7Lgc6YWVrJS1zBG1rBVjrd2E2","","","","","","","","","","","","","","","","","chosen stimuli: images/choice_trial_9.png","","","",""
"html-keyboard-response","76","150173","0.0-33.0-2.0","","null","","null","delaylearn","learning","feedback_duration_window","5e3da76a9e51f801298c7510","mMp7Lgc6YWVrJS1zBG1rBVjrd2E2","","","","","","","","","","","","","","","","","","7000","","",""
"html-keyboard-response","77","151682","0.0-33.0-3.0","","null","<div style='margin:auto;width: auto; font-size: 150%'><span style='font-weight: bold; font-size: 100px; color: red;'>0 points!</span><br><br></div>","null","delaylearn","learning","feedback_image_window","5e3da76a9e51f801298c7510","mMp7Lgc6YWVrJS1zBG1rBVjrd2E2","","","","","","","","","","","","","","","","","","","","",""
"html-keyboard-response","78","153326","0.0-34.0","","null","<div style=""font-size:100px;"">+</div>","null","delaylearn","learning","ITI","5e3da76a9e51f801298c7510","mMp7Lgc6YWVrJS1zBG1rBVjrd2E2","","","","","","","","","","","","","","","","","","","1637","",""
"html-keyboard-response","79","154329","0.0-35.0-0.0","","999.5","<div style=""display: flex; flex-direction: column; align-items: center; margin-top: -40px;""><img src=""images/pattern_3.png"" style=""width: 234px; height: 230px; margin-top: -50px;""><div style=""display: flex; justify-content: space-between; margin-top: 33px;""><img src=""images/choice_trial_6.png"" style=""width: 408px; height: 417px; margin-right: 200px;""><img src=""images/choice_trial_16.png"" style=""width: 408px; height: 417px;""></div></div>","j","delaylearn","learning","trial","5e3da76a9e51f801298c7510","mMp7Lgc6YWVrJS1zBG1rBVjrd2E2","4","images/choice_trial_6.png","images/choice_trial_16.png","images/pattern_3.png","f","j","7000","6","16","2","1","15","1","0","16","80","","","","",""
"html-keyboard-response","80","155333","0.0-35.0-1.0","","null","<div style=""display: flex; flex-direction: column; align-items: center; margin-top: -40px;""><img src=""images/pattern_3.png"" style=""width: 234px; height: 230px; margin-top: -50px;""><div style=""display: flex; justify-content: space-between; margin-top: 33px;""><img src=""images/choice_trial_16.png"" style=""width: 408px; height: 417px; margin-left:608px;""></div></div>","null","delaylearn","learning","display_response","5e3da76a9e51f801298c7510","mMp7Lgc6YWVrJS1zBG1rBVjrd2E2","","","","","","","","","","","","","","","","","chosen stimuli: images/choice_trial_16.png","","","",""
"html-keyboard-response","81","162340","0.0-35.0-2.0","","null","","null","delaylearn","learning","feedback_duration_window","5e3da76a9e51f801298c7510","mMp7Lgc6YWVrJS1zBG1rBVjrd2E2","","","","","","","","","","","","","","","","","","7000","","",""
"html-keyboard-response","82","163847","0.0-35.0-3.0","","null","<div style='margin:auto;width: auto; font-size: 150%'><span style='font-weight: bold; font-size: 100px; color: red;'>0 points!</span><br><br></div>","null","delaylearn","learning","feedback_image_window","5e3da76a9e51f801298c7510","mMp7Lgc6YWVrJS1zBG1rBVjrd2E2","","","","","","","","","","","","","","","","","","","","",""
"html-keyboard-response","83","165585","0.0-36.0","","null","<div style=""font-size:100px;"">+</div>","null","delaylearn","learning","ITI","5e3da76a9e51f801298c7510","mMp7Lgc6YWVrJS1zBG1rBVjrd2E2","","","","","","","","","","","","","","","","","","","1730","",""
"html-keyboard-response","84","166915","0.0-37.0-0.0","","1326.5999999940395","<div style=""display: flex; flex-direction: column; align-items: center; margin-top: -40px;""><img src=""images/pattern_5.png"" style=""width: 234px; height: 230px; margin-top: -50px;""><div style=""display: flex; justify-content: space-between; margin-top: 33px;""><img src=""images/choice_trial_5.png"" style=""width: 408px; height: 417px; margin-right: 200px;""><img src=""images/choice_trial_15.png"" style=""width: 408px; height: 417px;""></div></div>","f","delaylearn","learning","trial","5e3da76a9e51f801298c7510","mMp7Lgc6YWVrJS1zBG1rBVjrd2E2","4","images/choice_trial_5.png","images/choice_trial_15.png","images/pattern_5.png","f","f","750","5","15","4","0","16","1","1","5","90","","","","",""
"html-keyboard-response","85","167923","0.0-37.0-1.0","","null","<div style=""display: flex; flex-direction: column; align-items: center; margin-top: -40px;""><img src=""images/pattern_5.png"" style=""width: 234px; height: 230px; margin-top: -50px;""><div style=""display: flex; justify-content: space-between; margin-top: 33px;""><img src=""images/choice_trial_5.png"" style=""width: 408px; height: 417px; margin-right: 608px;""></div></div>","null","delaylearn","learning","display_response","5e3da76a9e51f801298c7510","mMp7Lgc6YWVrJS1zBG1rBVjrd2E2","","","","","","","","","","","","","","","","","chosen stimuli: images/choice_trial_5.png","","","",""
"html-keyboard-response","86","168677","0.0-37.0-2.0","","null","","null","delaylearn","learning","feedback_duration_window","5e3da76a9e51f801298c7510","mMp7Lgc6YWVrJS1zBG1rBVjrd2E2","","","","","","","","","","","","","","","","","","750","","",""
"html-keyboard-response","87","170185","0.0-37.0-3.0","","null","<div style='margin:auto;width: auto; font-size: 150%'><span style='font-weight: bold; font-size: 100px; color: green;'>+10 points!</span><br><br></div>","null","delaylearn","learning","feedback_image_window","5e3da76a9e51f801298c7510","mMp7Lgc6YWVrJS1zBG1rBVjrd2E2","","","","","","","","","","","","","","","","","","","","",""
"html-keyboard-response","88","170687","0.0-38.0-0.0","","null","","null","","","mood_trial_fixation","","","","","","","","","","","","","","","","","","","","","","",""
"lmdlab-html-vas-response","89","174554","0.0-38.0-1.0","","2858","How happy are you right now?","0.5018518518518519","delaylearn","learning","mood_trial","5e3da76a9e51f801298c7510","mMp7Lgc6YWVrJS1zBG1rBVjrd2E2","","","","","","","","","","","","","","","","","","","","[""Very unhappy"",""Very happy""]",""
"html-keyboard-response","90","176827","0.0-39.0","","null","<div style=""font-size:100px;"">+</div>","null","delaylearn","learning","ITI","5e3da76a9e51f801298c7510","mMp7Lgc6YWVrJS1zBG1rBVjrd2E2","","","","","","","","","","","","","","","","","","","2271","",""
"html-keyboard-response","91","178292","0.0-40.0-0.0","","1461.9000000059605","<div style=""display: flex; flex-direction: column; align-items: center; margin-top: -40px;""><img src=""images/pattern_6.png"" style=""width: 234px; height: 230px; margin-top: -50px;""><div style=""display: flex; justify-content: space-between; margin-top: 33px;""><img src=""images/choice_trial_10.png"" style=""width: 408px; height: 417px; margin-right: 200px;""><img src=""images/choice_trial_3.png"" style=""width: 408px; height: 417px;""></div></div>","j","delaylearn","learning","trial","5e3da76a9e51f801298c7510","mMp7Lgc6YWVrJS1zBG1rBVjrd2E2","4","images/choice_trial_10.png","images/choice_trial_3.png","images/pattern_6.png","f","f","750","10","3","5","0","17","0","0","3","90","","","","",""
"html-keyboard-response","92","179298","0.0-40.0-1.0","","null","<div style=""display: flex; flex-direction: column; align-items: center; margin-top: -40px;""><img src=""images/pattern_6.png"" style=""width: 234px; height: 230px; margin-top: -50px;""><div style=""display: flex; justify-content: space-between; margin-top: 33px;""><img src=""images/choice_trial_3.png"" style=""width: 408px; height: 417px; margin-left:608px;""></div></div>","null","delaylearn","learning","display_response","5e3da76a9e51f801298c7510","mMp7Lgc6YWVrJS1zBG1rBVjrd2E2","","","","","","","","","","","","","","","","","chosen stimuli: images/choice_trial_3.png","","","",""
"html-keyboard-response","93","180055","0.0-40.0-2.0","","null","","null","delaylearn","learning","feedback_duration_window","5e3da76a9e51f801298c7510","mMp7Lgc6YWVrJS1zBG1rBVjrd2E2","","","","","","","","","","","","","","","","","","750","","",""
"html-keyboard-response","94","181561","0.0-40.0-3.0","","null","<div style='margin:auto;width: auto; font-size: 150%'><span style='font-weight: bold; font-size: 100px; color: red;'>0 points!</span><br><br></div>","null","delaylearn","learning","feedback_image_window","5e3da76a9e51f801298c7510","mMp7Lgc6YWVrJS1zBG1rBVjrd2E2","","","","","","","","","","","","","","","","","","","","",""
"html-keyboard-response","95","183664","0.0-41.0","","null","<div style=""font-size:100px;"">+</div>","null","delaylearn","learning","ITI","5e3da76a9e51f801298c7510","mMp7Lgc6YWVrJS1zBG1rBVjrd2E2","","","","","","","","","","","","","","","","","","","2096","",""
"html-keyboard-response","96","185152","0.0-42.0-0.0","","1484.9000000059605","<div style=""display: flex; flex-direction: column; align-items: center; margin-top: -40px;""><img src=""images/pattern_4.png"" style=""width: 234px; height: 230px; margin-top: -50px;""><div style=""display: flex; justify-content: space-between; margin-top: 33px;""><img src=""images/choice_trial_7.png"" style=""width: 408px; height: 417px; margin-right: 200px;""><img src=""images/choice_trial_8.png"" style=""width: 408px; height: 417px;""></div></div>","f","delaylearn","learning","trial","5e3da76a9e51f801298c7510","mMp7Lgc6YWVrJS1zBG1rBVjrd2E2","4","images/choice_trial_7.png","images/choice_trial_8.png","images/pattern_4.png","j","j","7000","7","8","3","1","18","0","0","7","90","","","","",""
"html-keyboard-response","97","186157","0.0-42.0-1.0","","null","<div style=""display: flex; flex-direction: column; align-items: center; margin-top: -40px;""><img src=""images/pattern_4.png"" style=""width: 234px; height: 230px; margin-top: -50px;""><div style=""display: flex; justify-content: space-between; margin-top: 33px;""><img src=""images/choice_trial_7.png"" style=""width: 408px; height: 417px; margin-right: 608px;""></div></div>","null","delaylearn","learning","display_response","5e3da76a9e51f801298c7510","mMp7Lgc6YWVrJS1zBG1rBVjrd2E2","","","","","","","","","","","","","","","","","chosen stimuli: images/choice_trial_7.png","","","",""
"html-keyboard-response","98","193164","0.0-42.0-2.0","","null","","null","delaylearn","learning","feedback_duration_window","5e3da76a9e51f801298c7510","mMp7Lgc6YWVrJS1zBG1rBVjrd2E2","","","","","","","","","","","","","","","","","","7000","","",""
"html-keyboard-response","99","194672","0.0-42.0-3.0","","null","<div style='margin:auto;width: auto; font-size: 150%'><span style='font-weight: bold; font-size: 100px; color: red;'>0 points!</span><br><br></div>","null","delaylearn","learning","feedback_image_window","5e3da76a9e51f801298c7510","mMp7Lgc6YWVrJS1zBG1rBVjrd2E2","","","","","","","","","","","","","","","","","","","","",""
"html-keyboard-response","100","196751","0.0-43.0","","null","<div style=""font-size:100px;"">+</div>","null","delaylearn","learning","ITI","5e3da76a9e51f801298c7510","mMp7Lgc6YWVrJS1zBG1rBVjrd2E2","","","","","","","","","","","","","","","","","","","2074","",""
"html-keyboard-response","101","197867","0.0-44.0-0.0","","1112.5","<div style=""display: flex; flex-direction: column; align-items: center; margin-top: -40px;""><img src=""images/pattern_7.png"" style=""width: 234px; height: 230px; margin-top: -50px;""><div style=""display: flex; justify-content: space-between; margin-top: 33px;""><img src=""images/choice_trial_13.png"" style=""width: 408px; height: 417px; margin-right: 200px;""><img src=""images/choice_trial_4.png"" style=""width: 408px; height: 417px;""></div></div>","f","delaylearn","learning","trial","5e3da76a9e51f801298c7510","mMp7Lgc6YWVrJS1zBG1rBVjrd2E2","4","images/choice_trial_13.png","images/choice_trial_4.png","images/pattern_7.png","j","f","750","13","4","6","0","19","1","0","13","90","","","","",""
"html-keyboard-response","102","198875","0.0-44.0-1.0","","null","<div style=""display: flex; flex-direction: column; align-items: center; margin-top: -40px;""><img src=""images/pattern_7.png"" style=""width: 234px; height: 230px; margin-top: -50px;""><div style=""display: flex; justify-content: space-between; margin-top: 33px;""><img src=""images/choice_trial_13.png"" style=""width: 408px; height: 417px; margin-right: 608px;""></div></div>","null","delaylearn","learning","display_response","5e3da76a9e51f801298c7510","mMp7Lgc6YWVrJS1zBG1rBVjrd2E2","","","","","","","","","","","","","","","","","chosen stimuli: images/choice_trial_13.png","","","",""
"html-keyboard-response","103","199631","0.0-44.0-2.0","","null","","null","delaylearn","learning","feedback_duration_window","5e3da76a9e51f801298c7510","mMp7Lgc6YWVrJS1zBG1rBVjrd2E2","","","","","","","","","","","","","","","","","","750","","",""
"html-keyboard-response","104","201138","0.0-44.0-3.0","","null","<div style='margin:auto;width: auto; font-size: 150%'><span style='font-weight: bold; font-size: 100px; color: red;'>0 points!</span><br><br></div>","null","delaylearn","learning","feedback_image_window","5e3da76a9e51f801298c7510","mMp7Lgc6YWVrJS1zBG1rBVjrd2E2","","","","","","","","","","","","","","","","","","","","",""
"html-keyboard-response","105","202725","0.0-45.0","","null","<div style=""font-size:100px;"">+</div>","null","delaylearn","learning","ITI","5e3da76a9e51f801298c7510","mMp7Lgc6YWVrJS1zBG1rBVjrd2E2","","","","","","","","","","","","","","","","","","","1580","",""
"html-keyboard-response","106","204633","0.0-46.0-0.0","","1903.9000000059605","<div style=""display: flex; flex-direction: column; align-items: center; margin-top: -40px;""><img src=""images/pattern_1.png"" style=""width: 234px; height: 230px; margin-top: -50px;""><div style=""display: flex; justify-content: space-between; margin-top: 33px;""><img src=""images/choice_trial_1.png"" style=""width: 408px; height: 417px; margin-right: 200px;""><img src=""images/choice_trial_9.png"" style=""width: 408px; height: 417px;""></div></div>","f","delaylearn","learning","trial","5e3da76a9e51f801298c7510","mMp7Lgc6YWVrJS1zBG1rBVjrd2E2","4","images/choice_trial_1.png","images/choice_trial_9.png","images/pattern_1.png","f","f","7000","1","9","1","0","20","1","1","1","100","","","","",""
"html-keyboard-response","107","205640","0.0-46.0-1.0","","null","<div style=""display: flex; flex-direction: column; align-items: center; margin-top: -40px;""><img src=""images/pattern_1.png"" style=""width: 234px; height: 230px; margin-top: -50px;""><div style=""display: flex; justify-content: space-between; margin-top: 33px;""><img src=""images/choice_trial_1.png"" style=""width: 408px; height: 417px; margin-right: 608px;""></div></div>","null","delaylearn","learning","display_response","5e3da76a9e51f801298c7510","mMp7Lgc6YWVrJS1zBG1rBVjrd2E2","","","","","","","","","","","","","","","","","chosen stimuli: images/choice_trial_1.png","","","",""
"html-keyboard-response","108","212645","0.0-46.0-2.0","","null","","null","delaylearn","learning","feedback_duration_window","5e3da76a9e51f801298c7510","mMp7Lgc6YWVrJS1zBG1rBVjrd2E2","","","","","","","","","","","","","","","","","","7000","","",""
"html-keyboard-response","109","214154","0.0-46.0-3.0","","null","<div style='margin:auto;width: auto; font-size: 150%'><span style='font-weight: bold; font-size: 100px; color: green;'>+10 points!</span><br><br></div>","null","delaylearn","learning","feedback_image_window","5e3da76a9e51f801298c7510","mMp7Lgc6YWVrJS1zBG1rBVjrd2E2","","","","","","","","","","","","","","","","","","","","",""
"html-keyboard-response","110","215947","0.0-47.0","","null","<div style=""font-size:100px;"">+</div>","null","delaylearn","learning","ITI","5e3da76a9e51f801298c7510","mMp7Lgc6YWVrJS1zBG1rBVjrd2E2","","","","","","","","","","","","","","","","","","","1791","",""
"html-keyboard-response","111","217437","0.0-48.0-0.0","","1486.3999999761581","<div style=""display: flex; flex-direction: column; align-items: center; margin-top: -40px;""><img src=""images/pattern_6.png"" style=""width: 234px; height: 230px; margin-top: -50px;""><div style=""display: flex; justify-content: space-between; margin-top: 33px;""><img src=""images/choice_trial_3.png"" style=""width: 408px; height: 417px; margin-right: 200px;""><img src=""images/choice_trial_10.png"" style=""width: 408px; height: 417px;""></div></div>","j","delaylearn","learning","trial","5e3da76a9e51f801298c7510","mMp7Lgc6YWVrJS1zBG1rBVjrd2E2","4","images/choice_trial_3.png","images/choice_trial_10.png","images/pattern_6.png","j","j","750","3","10","5","1","21","1","1","10","110","","","","",""
"html-keyboard-response","112","218441","0.0-48.0-1.0","","null","<div style=""display: flex; flex-direction: column; align-items: center; margin-top: -40px;""><img src=""images/pattern_6.png"" style=""width: 234px; height: 230px; margin-top: -50px;""><div style=""display: flex; justify-content: space-between; margin-top: 33px;""><img src=""images/choice_trial_10.png"" style=""width: 408px; height: 417px; margin-left:608px;""></div></div>","null","delaylearn","learning","display_response","5e3da76a9e51f801298c7510","mMp7Lgc6YWVrJS1zBG1rBVjrd2E2","","","","","","","","","","","","","","","","","chosen stimuli: images/choice_trial_10.png","","","",""
"html-keyboard-response","113","219198","0.0-48.0-2.0","","null","","null","delaylearn","learning","feedback_duration_window","5e3da76a9e51f801298c7510","mMp7Lgc6YWVrJS1zBG1rBVjrd2E2","","","","","","","","","","","","","","","","","","750","","",""
"html-keyboard-response","114","220701","0.0-48.0-3.0","","null","<div style='margin:auto;width: auto; font-size: 150%'><span style='font-weight: bold; font-size: 100px; color: green;'>+10 points!</span><br><br></div>","null","delaylearn","learning","feedback_image_window","5e3da76a9e51f801298c7510","mMp7Lgc6YWVrJS1zBG1rBVjrd2E2","","","","","","","","","","","","","","","","","","","","",""
"html-keyboard-response","115","223176","0.0-49.0","","null","<div style=""font-size:100px;"">+</div>","null","delaylearn","learning","ITI","5e3da76a9e51f801298c7510","mMp7Lgc6YWVrJS1zBG1rBVjrd2E2","","","","","","","","","","","","","","","","","","","2472","",""
"html-keyboard-response","116","224930","0.0-50.0-0.0","","1750.300000011921","<div style=""display: flex; flex-direction: column; align-items: center; margin-top: -40px;""><img src=""images/pattern_4.png"" style=""width: 234px; height: 230px; margin-top: -50px;""><div style=""display: flex; justify-content: space-between; margin-top: 33px;""><img src=""images/choice_trial_8.png"" style=""width: 408px; height: 417px; margin-right: 200px;""><img src=""images/choice_trial_7.png"" style=""width: 408px; height: 417px;""></div></div>","f","delaylearn","learning","trial","5e3da76a9e51f801298c7510","mMp7Lgc6YWVrJS1zBG1rBVjrd2E2","4","images/choice_trial_8.png","images/choice_trial_7.png","images/pattern_4.png","f","f","7000","8","7","3","0","22","1","1","8","120","","","","",""
"html-keyboard-response","117","225935","0.0-50.0-1.0","","null","<div style=""display: flex; flex-direction: column; align-items: center; margin-top: -40px;""><img src=""images/pattern_4.png"" style=""width: 234px; height: 230px; margin-top: -50px;""><div style=""display: flex; justify-content: space-between; margin-top: 33px;""><img src=""images/choice_trial_8.png"" style=""width: 408px; height: 417px; margin-right: 608px;""></div></div>","null","delaylearn","learning","display_response","5e3da76a9e51f801298c7510","mMp7Lgc6YWVrJS1zBG1rBVjrd2E2","","","","","","","","","","","","","","","","","chosen stimuli: images/choice_trial_8.png","","","",""
"html-keyboard-response","118","232941","0.0-50.0-2.0","","null","","null","delaylearn","learning","feedback_duration_window","5e3da76a9e51f801298c7510","mMp7Lgc6YWVrJS1zBG1rBVjrd2E2","","","","","","","","","","","","","","","","","","7000","","",""
"html-keyboard-response","119","234446","0.0-50.0-3.0","","null","<div style='margin:auto;width: auto; font-size: 150%'><span style='font-weight: bold; font-size: 100px; color: green;'>+10 points!</span><br><br></div>","null","delaylearn","learning","feedback_image_window","5e3da76a9e51f801298c7510","mMp7Lgc6YWVrJS1zBG1rBVjrd2E2","","","","","","","","","","","","","","","","","","","","",""
"html-keyboard-response","120","234949","0.0-51.0-0.0","","null","","null","","","mood_trial_fixation","","","","","","","","","","","","","","","","","","","","","","",""
"lmdlab-html-vas-response","121","238669","0.0-51.0-1.0","","2712","How happy are you right now?","0.5111111111111111","delaylearn","learning","mood_trial","5e3da76a9e51f801298c7510","mMp7Lgc6YWVrJS1zBG1rBVjrd2E2","","","","","","","","","","","","","","","","","","","","[""Very unhappy"",""Very happy""]",""
"html-keyboard-response","122","240746","0.0-52.0","","null","<div style=""font-size:100px;"">+</div>","null","delaylearn","learning","ITI","5e3da76a9e51f801298c7510","mMp7Lgc6YWVrJS1zBG1rBVjrd2E2","","","","","","","","","","","","","","","","","","","2074","",""
"html-keyboard-response","123","242671","0.0-53.0-0.0","","1922.0999999940395","<div style=""display: flex; flex-direction: column; align-items: center; margin-top: -40px;""><img src=""images/pattern_7.png"" style=""width: 234px; height: 230px; margin-top: -50px;""><div style=""display: flex; justify-content: space-between; margin-top: 33px;""><img src=""images/choice_trial_4.png"" style=""width: 408px; height: 417px; margin-right: 200px;""><img src=""images/choice_trial_13.png"" style=""width: 408px; height: 417px;""></div></div>","j","delaylearn","learning","trial","5e3da76a9e51f801298c7510","mMp7Lgc6YWVrJS1zBG1rBVjrd2E2","4","images/choice_trial_4.png","images/choice_trial_13.png","images/pattern_7.png","j","j","750","4","13","6","1","23","1","1","13","130","","","","",""
"html-keyboard-response","124","243676","0.0-53.0-1.0","","null","<div style=""display: flex; flex-direction: column; align-items: center; margin-top: -40px;""><img src=""images/pattern_7.png"" style=""width: 234px; height: 230px; margin-top: -50px;""><div style=""display: flex; justify-content: space-between; margin-top: 33px;""><img src=""images/choice_trial_13.png"" style=""width: 408px; height: 417px; margin-left:608px;""></div></div>","null","delaylearn","learning","display_response","5e3da76a9e51f801298c7510","mMp7Lgc6YWVrJS1zBG1rBVjrd2E2","","","","","","","","","","","","","","","","","chosen stimuli: images/choice_trial_13.png","","","",""
"html-keyboard-response","125","244429","0.0-53.0-2.0","","null","","null","delaylearn","learning","feedback_duration_window","5e3da76a9e51f801298c7510","mMp7Lgc6YWVrJS1zBG1rBVjrd2E2","","","","","","","","","","","","","","","","","","750","","",""
"html-keyboard-response","126","245933","0.0-53.0-3.0","","null","<div style='margin:auto;width: auto; font-size: 150%'><span style='font-weight: bold; font-size: 100px; color: green;'>+10 points!</span><br><br></div>","null","delaylearn","learning","feedback_image_window","5e3da76a9e51f801298c7510","mMp7Lgc6YWVrJS1zBG1rBVjrd2E2","","","","","","","","","","","","","","","","","","","","",""
"html-keyboard-response","127","247456","0.0-54.0","","null","<div style=""font-size:100px;"">+</div>","null","delaylearn","learning","ITI","5e3da76a9e51f801298c7510","mMp7Lgc6YWVrJS1zBG1rBVjrd2E2","","","","","","","","","","","","","","","","","","","1517","",""
"html-keyboard-response","128","248700","0.0-55.0-0.0","","1240.9000000059605","<div style=""display: flex; flex-direction: column; align-items: center; margin-top: -40px;""><img src=""images/pattern_1.png"" style=""width: 234px; height: 230px; margin-top: -50px;""><div style=""display: flex; justify-content: space-between; margin-top: 33px;""><img src=""images/choice_trial_9.png"" style=""width: 408px; height: 417px; margin-right: 200px;""><img src=""images/choice_trial_1.png"" style=""width: 408px; height: 417px;""></div></div>","j","delaylearn","learning","trial","5e3da76a9e51f801298c7510","mMp7Lgc6YWVrJS1zBG1rBVjrd2E2","4","images/choice_trial_9.png","images/choice_trial_1.png","images/pattern_1.png","f","j","7000","9","1","1","1","24","1","0","1","130","","","","",""
"html-keyboard-response","129","249703","0.0-55.0-1.0","","null","<div style=""display: flex; flex-direction: column; align-items: center; margin-top: -40px;""><img src=""images/pattern_1.png"" style=""width: 234px; height: 230px; margin-top: -50px;""><div style=""display: flex; justify-content: space-between; margin-top: 33px;""><img src=""images/choice_trial_1.png"" style=""width: 408px; height: 417px; margin-left:608px;""></div></div>","null","delaylearn","learning","display_response","5e3da76a9e51f801298c7510","mMp7Lgc6YWVrJS1zBG1rBVjrd2E2","","","","","","","","","","","","","","","","","chosen stimuli: images/choice_trial_1.png","","","",""
"html-keyboard-response","130","256709","0.0-55.0-2.0","","null","","null","delaylearn","learning","feedback_duration_window","5e3da76a9e51f801298c7510","mMp7Lgc6YWVrJS1zBG1rBVjrd2E2","","","","","","","","","","","","","","","","","","7000","","",""
"html-keyboard-response","131","258215","0.0-55.0-3.0","","null","<div style='margin:auto;width: auto; font-size: 150%'><span style='font-weight: bold; font-size: 100px; color: red;'>0 points!</span><br><br></div>","null","delaylearn","learning","feedback_image_window","5e3da76a9e51f801298c7510","mMp7Lgc6YWVrJS1zBG1rBVjrd2E2","","","","","","","","","","","","","","","","","","","","",""
"html-keyboard-response","132","260325","0.0-56.0","","null","<div style=""font-size:100px;"">+</div>","null","delaylearn","learning","ITI","5e3da76a9e51f801298c7510","mMp7Lgc6YWVrJS1zBG1rBVjrd2E2","","","","","","","","","","","","","","","","","","","2107","",""
"html-keyboard-response","133","261462","0.0-57.0-0.0","","1133.699999988079","<div style=""display: flex; flex-direction: column; align-items: center; margin-top: -40px;""><img src=""images/pattern_5.png"" style=""width: 234px; height: 230px; margin-top: -50px;""><div style=""display: flex; justify-content: space-between; margin-top: 33px;""><img src=""images/choice_trial_15.png"" style=""width: 408px; height: 417px; margin-right: 200px;""><img src=""images/choice_trial_5.png"" style=""width: 408px; height: 417px;""></div></div>","j","delaylearn","learning","trial","5e3da76a9e51f801298c7510","mMp7Lgc6YWVrJS1zBG1rBVjrd2E2","4","images/choice_trial_15.png","images/choice_trial_5.png","images/pattern_5.png","j","j","750","15","5","4","1","25","1","1","5","140","","","","",""
"html-keyboard-response","134","262467","0.0-57.0-1.0","","null","<div style=""display: flex; flex-direction: column; align-items: center; margin-top: -40px;""><img src=""images/pattern_5.png"" style=""width: 234px; height: 230px; margin-top: -50px;""><div style=""display: flex; justify-content: space-between; margin-top: 33px;""><img src=""images/choice_trial_5.png"" style=""width: 408px; height: 417px; margin-left:608px;""></div></div>","null","delaylearn","learning","display_response","5e3da76a9e51f801298c7510","mMp7Lgc6YWVrJS1zBG1rBVjrd2E2","","","","","","","","","","","","","","","","","chosen stimuli: images/choice_trial_5.png","","","",""
"html-keyboard-response","135","263224","0.0-57.0-2.0","","null","","null","delaylearn","learning","feedback_duration_window","5e3da76a9e51f801298c7510","mMp7Lgc6YWVrJS1zBG1rBVjrd2E2","","","","","","","","","","","","","","","","","","750","","",""
"html-keyboard-response","136","264728","0.0-57.0-3.0","","null","<div style='margin:auto;width: auto; font-size: 150%'><span style='font-weight: bold; font-size: 100px; color: green;'>+10 points!</span><br><br></div>","null","delaylearn","learning","feedback_image_window","5e3da76a9e51f801298c7510","mMp7Lgc6YWVrJS1zBG1rBVjrd2E2","","","","","","","","","","","","","","","","","","","","",""
"html-keyboard-response","137","266873","0.0-58.0","","null","<div style=""font-size:100px;"">+</div>","null","delaylearn","learning","ITI","5e3da76a9e51f801298c7510","mMp7Lgc6YWVrJS1zBG1rBVjrd2E2","","","","","","","","","","","","","","","","","","","2139","",""
"html-keyboard-response","138","267988","0.0-59.0-0.0","","1110.5999999940395","<div style=""display: flex; flex-direction: column; align-items: center; margin-top: -40px;""><img src=""images/pattern_3.png"" style=""width: 234px; height: 230px; margin-top: -50px;""><div style=""display: flex; justify-content: space-between; margin-top: 33px;""><img src=""images/choice_trial_6.png"" style=""width: 408px; height: 417px; margin-right: 200px;""><img src=""images/choice_trial_16.png"" style=""width: 408px; height: 417px;""></div></div>","j","delaylearn","learning","trial","5e3da76a9e51f801298c7510","mMp7Lgc6YWVrJS1zBG1rBVjrd2E2","4","images/choice_trial_6.png","images/choice_trial_16.png","images/pattern_3.png","j","j","7000","6","16","2","1","26","1","1","16","150","","","","",""
"html-keyboard-response","139","268995","0.0-59.0-1.0","","null","<div style=""display: flex; flex-direction: column; align-items: center; margin-top: -40px;""><img src=""images/pattern_3.png"" style=""width: 234px; height: 230px; margin-top: -50px;""><div style=""display: flex; justify-content: space-between; margin-top: 33px;""><img src=""images/choice_trial_16.png"" style=""width: 408px; height: 417px; margin-left:608px;""></div></div>","null","delaylearn","learning","display_response","5e3da76a9e51f801298c7510","mMp7Lgc6YWVrJS1zBG1rBVjrd2E2","","","","","","","","","","","","","","","","","chosen stimuli: images/choice_trial_16.png","","","",""
"html-keyboard-response","140","276001","0.0-59.0-2.0","","null","","null","delaylearn","learning","feedback_duration_window","5e3da76a9e51f801298c7510","mMp7Lgc6YWVrJS1zBG1rBVjrd2E2","","","","","","","","","","","","","","","","","","7000","","",""
"html-keyboard-response","141","277507","0.0-59.0-3.0","","null","<div style='margin:auto;width: auto; font-size: 150%'><span style='font-weight: bold; font-size: 100px; color: green;'>+10 points!</span><br><br></div>","null","delaylearn","learning","feedback_image_window","5e3da76a9e51f801298c7510","mMp7Lgc6YWVrJS1zBG1rBVjrd2E2","","","","","","","","","","","","","","","","","","","","",""
"lmdlab-html-vas-response","142","304022","0.0-60.0-0.0","","25003","*How <b><u>confident</u></b> are you feeling about your answers at this moment?*","0.49074074074074076","rewlearn","rate_confidence","","5e3da76a9e51f801298c7510","mMp7Lgc6YWVrJS1zBG1rBVjrd2E2","","","","","","","","","","","","","","","","","","","","[""No confidence"",""Complete confidence""]",""
"lmdlab-rest-trial-limit","143","329202","0.0-60.0-1.0","","23676.69999998808","<div style=""font-size:40px;""><b>Please take a break!</b><br><br><br><br><p>Great work: you earned 150 points.<br><br><br><p>You have completed part(s) 1 of 5.<br><br><br><br>When you are ready to continue<br><br><br>please click the button.</p><br><br>","0","delaylearn","learning","break","5e3da76a9e51f801298c7510","mMp7Lgc6YWVrJS1zBG1rBVjrd2E2","","","","","","","","","","","","","","","","","","","","","0"
"html-keyboard-response","144","332209","0.0-60.0-2.0","","null","<div style=""font-size:100px;"">+</div>","null","delaylearn","learning","pre_fixation","5e3da76a9e51f801298c7510","","","","","","","","","","","","","","","","","","","","","",""
"lmdlab-html-vas-response","145","336735","0.0-60.0-3.0-0.0","","3517","How happy are you right now?","0.5037037037037037","delaylearn","learning","mood_baseline","5e3da76a9e51f801298c7510","mMp7Lgc6YWVrJS1zBG1rBVjrd2E2","","","","","","","","","","","","","","","","","","","","[""Very unhappy"",""Very happy""]",""
"html-keyboard-response","146","338239","0.0-60.0-3.0-1.0","","null","","null","","","mood_baseline_fixation","","","","","","","","","","","","","","","","","","","","","","",""
"html-keyboard-response","147","340349","0.0-61.0","","null","<div style=""font-size:100px;"">+</div>","null","delaylearn","learning","ITI","5e3da76a9e51f801298c7510","mMp7Lgc6YWVrJS1zBG1rBVjrd2E2","","","","","","","","","","","","","","","","","","","2106","",""
"html-keyboard-response","148","341546","0.0-62.0-0.0","","1194.800000011921","<div style=""display: flex; flex-direction: column; align-items: center; margin-top: -40px;""><img src=""images/pattern_7.png"" style=""width: 234px; height: 230px; margin-top: -50px;""><div style=""display: flex; justify-content: space-between; margin-top: 33px;""><img src=""images/choice_trial_4.png"" style=""width: 408px; height: 417px; margin-right: 200px;""><img src=""images/choice_trial_13.png"" style=""width: 408px; height: 417px;""></div></div>","j","delaylearn","learning","trial","5e3da76a9e51f801298c7510","mMp7Lgc6YWVrJS1zBG1rBVjrd2E2","4","images/choice_trial_4.png","images/choice_trial_13.png","images/pattern_7.png","j","j","750","4","13","6","1","27","1","1","13","160","","","","",""
"html-keyboard-response","149","342549","0.0-62.0-1.0","","null","<div style=""display: flex; flex-direction: column; align-items: center; margin-top: -40px;""><img src=""images/pattern_7.png"" style=""width: 234px; height: 230px; margin-top: -50px;""><div style=""display: flex; justify-content: space-between; margin-top: 33px;""><img src=""images/choice_trial_13.png"" style=""width: 408px; height: 417px; margin-left:608px;""></div></div>","null","delaylearn","learning","display_response","5e3da76a9e51f801298c7510","mMp7Lgc6YWVrJS1zBG1rBVjrd2E2","","","","","","","","","","","","","","","","","chosen stimuli: images/choice_trial_13.png","","","",""
"html-keyboard-response","150","343306","0.0-62.0-2.0","","null","","null","delaylearn","learning","feedback_duration_window","5e3da76a9e51f801298c7510","mMp7Lgc6YWVrJS1zBG1rBVjrd2E2","","","","","","","","","","","","","","","","","","750","","",""
"html-keyboard-response","151","344811","0.0-62.0-3.0","","null","<div style='margin:auto;width: auto; font-size: 150%'><span style='font-weight: bold; font-size: 100px; color: green;'>+10 points!</span><br><br></div>","null","delaylearn","learning","feedback_image_window","5e3da76a9e51f801298c7510","mMp7Lgc6YWVrJS1zBG1rBVjrd2E2","","","","","","","","","","","","","","","","","","","","",""
"html-keyboard-response","152","345314","0.0-63.0-0.0","","null","","null","","","mood_trial_fixation","","","","","","","","","","","","","","","","","","","","","","",""
"lmdlab-html-vas-response","153","349086","0.0-63.0-1.0","","2761","How happy are you right now?","0.5111111111111111","delaylearn","learning","mood_trial","5e3da76a9e51f801298c7510","mMp7Lgc6YWVrJS1zBG1rBVjrd2E2","","","","","","","","","","","","","","","","","","","","[""Very unhappy"",""Very happy""]",""
"html-keyboard-response","154","350854","0.0-64.0","","null","<div style=""font-size:100px;"">+</div>","null","delaylearn","learning","ITI","5e3da76a9e51f801298c7510","mMp7Lgc6YWVrJS1zBG1rBVjrd2E2","","","","","","","","","","","","","","","","","","","1762","",""
"html-keyboard-response","155","352036","0.0-65.0-0.0","","1178.5999999940395","<div style=""display: flex; flex-direction: column; align-items: center; margin-top: -40px;""><img src=""images/pattern_1.png"" style=""width: 234px; height: 230px; margin-top: -50px;""><div style=""display: flex; justify-content: space-between; margin-top: 33px;""><img src=""images/choice_trial_1.png"" style=""width: 408px; height: 417px; margin-right: 200px;""><img src=""images/choice_trial_9.png"" style=""width: 408px; height: 417px;""></div></div>","f","delaylearn","learning","trial","5e3da76a9e51f801298c7510","mMp7Lgc6YWVrJS1zBG1rBVjrd2E2","4","images/choice_trial_1.png","images/choice_trial_9.png","images/pattern_1.png","f","f","7000","1","9","1","0","28","1","1","1","170","","","","",""
"html-keyboard-response","156","353041","0.0-65.0-1.0","","null","<div style=""display: flex; flex-direction: column; align-items: center; margin-top: -40px;""><img src=""images/pattern_1.png"" style=""width: 234px; height: 230px; margin-top: -50px;""><div style=""display: flex; justify-content: space-between; margin-top: 33px;""><img src=""images/choice_trial_1.png"" style=""width: 408px; height: 417px; margin-right: 608px;""></div></div>","null","delaylearn","learning","display_response","5e3da76a9e51f801298c7510","mMp7Lgc6YWVrJS1zBG1rBVjrd2E2","","","","","","","","","","","","","","","","","chosen stimuli: images/choice_trial_1.png","","","",""
"html-keyboard-response","157","360048","0.0-65.0-2.0","","null","","null","delaylearn","learning","feedback_duration_window","5e3da76a9e51f801298c7510","mMp7Lgc6YWVrJS1zBG1rBVjrd2E2","","","","","","","","","","","","","","","","","","7000","","",""
"html-keyboard-response","158","361556","0.0-65.0-3.0","","null","<div style='margin:auto;width: auto; font-size: 150%'><span style='font-weight: bold; font-size: 100px; color: green;'>+10 points!</span><br><br></div>","null","delaylearn","learning","feedback_image_window","5e3da76a9e51f801298c7510","mMp7Lgc6YWVrJS1zBG1rBVjrd2E2","","","","","","","","","","","","","","","","","","","","",""
"html-keyboard-response","159","363400","0.0-66.0","","null","<div style=""font-size:100px;"">+</div>","null","delaylearn","learning","ITI","5e3da76a9e51f801298c7510","mMp7Lgc6YWVrJS1zBG1rBVjrd2E2","","","","","","","","","","","","","","","","","","","1837","",""
"html-keyboard-response","160","364743","0.0-67.0-0.0","","1339.5999999940395","<div style=""display: flex; flex-direction: column; align-items: center; margin-top: -40px;""><img src=""images/pattern_5.png"" style=""width: 234px; height: 230px; margin-top: -50px;""><div style=""display: flex; justify-content: space-between; margin-top: 33px;""><img src=""images/choice_trial_5.png"" style=""width: 408px; height: 417px; margin-right: 200px;""><img src=""images/choice_trial_15.png"" style=""width: 408px; height: 417px;""></div></div>","f","delaylearn","learning","trial","5e3da76a9e51f801298c7510","mMp7Lgc6YWVrJS1zBG1rBVjrd2E2","4","images/choice_trial_5.png","images/choice_trial_15.png","images/pattern_5.png","f","f","750","5","15","4","0","29","1","1","5","180","","","","",""
"html-keyboard-response","161","365749","0.0-67.0-1.0","","null","<div style=""display: flex; flex-direction: column; align-items: center; margin-top: -40px;""><img src=""images/pattern_5.png"" style=""width: 234px; height: 230px; margin-top: -50px;""><div style=""display: flex; justify-content: space-between; margin-top: 33px;""><img src=""images/choice_trial_5.png"" style=""width: 408px; height: 417px; margin-right: 608px;""></div></div>","null","delaylearn","learning","display_response","5e3da76a9e51f801298c7510","mMp7Lgc6YWVrJS1zBG1rBVjrd2E2","","","","","","","","","","","","","","","","","chosen stimuli: images/choice_trial_5.png","","","",""
"html-keyboard-response","162","366506","0.0-67.0-2.0","","null","","null","delaylearn","learning","feedback_duration_window","5e3da76a9e51f801298c7510","mMp7Lgc6YWVrJS1zBG1rBVjrd2E2","","","","","","","","","","","","","","","","","","750","","",""
"html-keyboard-response","163","368010","0.0-67.0-3.0","","null","<div style='margin:auto;width: auto; font-size: 150%'><span style='font-weight: bold; font-size: 100px; color: green;'>+10 points!</span><br><br></div>","null","delaylearn","learning","feedback_image_window","5e3da76a9e51f801298c7510","mMp7Lgc6YWVrJS1zBG1rBVjrd2E2","","","","","","","","","","","","","","","","","","","","",""
"html-keyboard-response","164","370428","0.0-68.0","","null","<div style=""font-size:100px;"">+</div>","null","delaylearn","learning","ITI","5e3da76a9e51f801298c7510","mMp7Lgc6YWVrJS1zBG1rBVjrd2E2","","","","","","","","","","","","","","","","","","","2411","",""
"html-keyboard-response","165","371971","0.0-69.0-0.0","","1538.8999999761581","<div style=""display: flex; flex-direction: column; align-items: center; margin-top: -40px;""><img src=""images/pattern_6.png"" style=""width: 234px; height: 230px; margin-top: -50px;""><div style=""display: flex; justify-content: space-between; margin-top: 33px;""><img src=""images/choice_trial_3.png"" style=""width: 408px; height: 417px; margin-right: 200px;""><img src=""images/choice_trial_10.png"" style=""width: 408px; height: 417px;""></div></div>","j","delaylearn","learning","trial","5e3da76a9e51f801298c7510","mMp7Lgc6YWVrJS1zBG1rBVjrd2E2","4","images/choice_trial_3.png","images/choice_trial_10.png","images/pattern_6.png","j","j","750","3","10","5","1","30","1","1","10","190","","","","",""
"html-keyboard-response","166","372976","0.0-69.0-1.0","","null","<div style=""display: flex; flex-direction: column; align-items: center; margin-top: -40px;""><img src=""images/pattern_6.png"" style=""width: 234px; height: 230px; margin-top: -50px;""><div style=""display: flex; justify-content: space-between; margin-top: 33px;""><img src=""images/choice_trial_10.png"" style=""width: 408px; height: 417px; margin-left:608px;""></div></div>","null","delaylearn","learning","display_response","5e3da76a9e51f801298c7510","mMp7Lgc6YWVrJS1zBG1rBVjrd2E2","","","","","","","","","","","","","","","","","chosen stimuli: images/choice_trial_10.png","","","",""
"html-keyboard-response","167","373729","0.0-69.0-2.0","","null","","null","delaylearn","learning","feedback_duration_window","5e3da76a9e51f801298c7510","mMp7Lgc6YWVrJS1zBG1rBVjrd2E2","","","","","","","","","","","","","","","","","","750","","",""
"html-keyboard-response","168","375237","0.0-69.0-3.0","","null","<div style='margin:auto;width: auto; font-size: 150%'><span style='font-weight: bold; font-size: 100px; color: green;'>+10 points!</span><br><br></div>","null","delaylearn","learning","feedback_image_window","5e3da76a9e51f801298c7510","mMp7Lgc6YWVrJS1zBG1rBVjrd2E2","","","","","","","","","","","","","","","","","","","","",""
"html-keyboard-response","169","375744","0.0-70.0-0.0","","null","","null","","","mood_trial_fixation","","","","","","","","","","","","","","","","","","","","","","",""
"lmdlab-html-vas-response","170","379434","0.0-70.0-1.0","","2681","How happy are you right now?","0.587037037037037","delaylearn","learning","mood_trial","5e3da76a9e51f801298c7510","mMp7Lgc6YWVrJS1zBG1rBVjrd2E2","","","","","","","","","","","","","","","","","","","","[""Very unhappy"",""Very happy""]",""
"html-keyboard-response","171","381034","0.0-71.0","","null","<div style=""font-size:100px;"">+</div>","null","delaylearn","learning","ITI","5e3da76a9e51f801298c7510","mMp7Lgc6YWVrJS1zBG1rBVjrd2E2","","","","","","","","","","","","","","","","","","","1599","",""
"html-keyboard-response","172","382487","0.0-72.0-0.0","","1448.2999999821186","<div style=""display: flex; flex-direction: column; align-items: center; margin-top: -40px;""><img src=""images/pattern_4.png"" style=""width: 234px; height: 230px; margin-top: -50px;""><div style=""display: flex; justify-content: space-between; margin-top: 33px;""><img src=""images/choice_trial_7.png"" style=""width: 408px; height: 417px; margin-right: 200px;""><img src=""images/choice_trial_8.png"" style=""width: 408px; height: 417px;""></div></div>","j","delaylearn","learning","trial","5e3da76a9e51f801298c7510","mMp7Lgc6YWVrJS1zBG1rBVjrd2E2","4","images/choice_trial_7.png","images/choice_trial_8.png","images/pattern_4.png","j","j","7000","7","8","3","1","31","1","1","8","200","","","","",""
"html-keyboard-response","173","383496","0.0-72.0-1.0","","null","<div style=""display: flex; flex-direction: column; align-items: center; margin-top: -40px;""><img src=""images/pattern_4.png"" style=""width: 234px; height: 230px; margin-top: -50px;""><div style=""display: flex; justify-content: space-between; margin-top: 33px;""><img src=""images/choice_trial_8.png"" style=""width: 408px; height: 417px; margin-left:608px;""></div></div>","null","delaylearn","learning","display_response","5e3da76a9e51f801298c7510","mMp7Lgc6YWVrJS1zBG1rBVjrd2E2","","","","","","","","","","","","","","","","","chosen stimuli: images/choice_trial_8.png","","","",""
"html-keyboard-response","174","390497","0.0-72.0-2.0","","null","","null","delaylearn","learning","feedback_duration_window","5e3da76a9e51f801298c7510","mMp7Lgc6YWVrJS1zBG1rBVjrd2E2","","","","","","","","","","","","","","","","","","7000","","",""
"html-keyboard-response","175","392005","0.0-72.0-3.0","","null","<div style='margin:auto;width: auto; font-size: 150%'><span style='font-weight: bold; font-size: 100px; color: green;'>+10 points!</span><br><br></div>","null","delaylearn","learning","feedback_image_window","5e3da76a9e51f801298c7510","mMp7Lgc6YWVrJS1zBG1rBVjrd2E2","","","","","","","","","","","","","","","","","","","","",""
"html-keyboard-response","176","394138","0.0-73.0","","null","<div style=""font-size:100px;"">+</div>","null","delaylearn","learning","ITI","5e3da76a9e51f801298c7510","mMp7Lgc6YWVrJS1zBG1rBVjrd2E2","","","","","","","","","","","","","","","","","","","2126","",""
"html-keyboard-response","177","396447","0.0-74.0-0.0","","2305.300000011921","<div style=""display: flex; flex-direction: column; align-items: center; margin-top: -40px;""><img src=""images/pattern_3.png"" style=""width: 234px; height: 230px; margin-top: -50px;""><div style=""display: flex; justify-content: space-between; margin-top: 33px;""><img src=""images/choice_trial_6.png"" style=""width: 408px; height: 417px; margin-right: 200px;""><img src=""images/choice_trial_16.png"" style=""width: 408px; height: 417px;""></div></div>","j","delaylearn","learning","trial","5e3da76a9e51f801298c7510","mMp7Lgc6YWVrJS1zBG1rBVjrd2E2","4","images/choice_trial_6.png","images/choice_trial_16.png","images/pattern_3.png","j","j","7000","6","16","2","1","32","1","1","16","210","","","","",""
"html-keyboard-response","178","397453","0.0-74.0-1.0","","null","<div style=""display: flex; flex-direction: column; align-items: center; margin-top: -40px;""><img src=""images/pattern_3.png"" style=""width: 234px; height: 230px; margin-top: -50px;""><div style=""display: flex; justify-content: space-between; margin-top: 33px;""><img src=""images/choice_trial_16.png"" style=""width: 408px; height: 417px; margin-left:608px;""></div></div>","null","delaylearn","learning","display_response","5e3da76a9e51f801298c7510","mMp7Lgc6YWVrJS1zBG1rBVjrd2E2","","","","","","","","","","","","","","","","","chosen stimuli: images/choice_trial_16.png","","","",""
"html-keyboard-response","179","404460","0.0-74.0-2.0","","null","","null","delaylearn","learning","feedback_duration_window","5e3da76a9e51f801298c7510","mMp7Lgc6YWVrJS1zBG1rBVjrd2E2","","","","","","","","","","","","","","","","","","7000","","",""
"html-keyboard-response","180","405965","0.0-74.0-3.0","","null","<div style='margin:auto;width: auto; font-size: 150%'><span style='font-weight: bold; font-size: 100px; color: green;'>+10 points!</span><br><br></div>","null","delaylearn","learning","feedback_image_window","5e3da76a9e51f801298c7510","mMp7Lgc6YWVrJS1zBG1rBVjrd2E2","","","","","","","","","","","","","","","","","","","","",""
"html-keyboard-response","181","407566","0.0-75.0","","null","<div style=""font-size:100px;"">+</div>","null","delaylearn","learning","ITI","5e3da76a9e51f801298c7510","mMp7Lgc6YWVrJS1zBG1rBVjrd2E2","","","","","","","","","","","","","","","","","","","1595","",""
"html-keyboard-response","182","408869","0.0-76.0-0.0","","1300","<div style=""display: flex; flex-direction: column; align-items: center; margin-top: -40px;""><img src=""images/pattern_5.png"" style=""width: 234px; height: 230px; margin-top: -50px;""><div style=""display: flex; justify-content: space-between; margin-top: 33px;""><img src=""images/choice_trial_5.png"" style=""width: 408px; height: 417px; margin-right: 200px;""><img src=""images/choice_trial_15.png"" style=""width: 408px; height: 417px;""></div></div>","f","delaylearn","learning","trial","5e3da76a9e51f801298c7510","mMp7Lgc6YWVrJS1zBG1rBVjrd2E2","4","images/choice_trial_5.png","images/choice_trial_15.png","images/pattern_5.png","j","f","750","5","15","4","0","33","1","0","5","210","","","","",""
"html-keyboard-response","183","409875","0.0-76.0-1.0","","null","<div style=""display: flex; flex-direction: column; align-items: center; margin-top: -40px;""><img src=""images/pattern_5.png"" style=""width: 234px; height: 230px; margin-top: -50px;""><div style=""display: flex; justify-content: space-between; margin-top: 33px;""><img src=""images/choice_trial_5.png"" style=""width: 408px; height: 417px; margin-right: 608px;""></div></div>","null","delaylearn","learning","display_response","5e3da76a9e51f801298c7510","mMp7Lgc6YWVrJS1zBG1rBVjrd2E2","","","","","","","","","","","","","","","","","chosen stimuli: images/choice_trial_5.png","","","",""
"html-keyboard-response","184","410627","0.0-76.0-2.0","","null","","null","delaylearn","learning","feedback_duration_window","5e3da76a9e51f801298c7510","mMp7Lgc6YWVrJS1zBG1rBVjrd2E2","","","","","","","","","","","","","","","","","","750","","",""
"html-keyboard-response","185","412135","0.0-76.0-3.0","","null","<div style='margin:auto;width: auto; font-size: 150%'><span style='font-weight: bold; font-size: 100px; color: red;'>0 points!</span><br><br></div>","null","delaylearn","learning","feedback_image_window","5e3da76a9e51f801298c7510","mMp7Lgc6YWVrJS1zBG1rBVjrd2E2","","","","","","","","","","","","","","","","","","","","",""
"html-keyboard-response","186","414441","0.0-77.0","","null","<div style=""font-size:100px;"">+</div>","null","delaylearn","learning","ITI","5e3da76a9e51f801298c7510","mMp7Lgc6YWVrJS1zBG1rBVjrd2E2","","","","","","","","","","","","","","","","","","","2300","",""
"html-keyboard-response","187","415583","0.0-78.0-0.0","","1138.800000011921","<div style=""display: flex; flex-direction: column; align-items: center; margin-top: -40px;""><img src=""images/pattern_1.png"" style=""width: 234px; height: 230px; margin-top: -50px;""><div style=""display: flex; justify-content: space-between; margin-top: 33px;""><img src=""images/choice_trial_1.png"" style=""width: 408px; height: 417px; margin-right: 200px;""><img src=""images/choice_trial_9.png"" style=""width: 408px; height: 417px;""></div></div>","f","delaylearn","learning","trial","5e3da76a9e51f801298c7510","mMp7Lgc6YWVrJS1zBG1rBVjrd2E2","4","images/choice_trial_1.png","images/choice_trial_9.png","images/pattern_1.png","f","f","7000","1","9","1","0","34","1","1","1","220","","","","",""
"html-keyboard-response","188","416587","0.0-78.0-1.0","","null","<div style=""display: flex; flex-direction: column; align-items: center; margin-top: -40px;""><img src=""images/pattern_1.png"" style=""width: 234px; height: 230px; margin-top: -50px;""><div style=""display: flex; justify-content: space-between; margin-top: 33px;""><img src=""images/choice_trial_1.png"" style=""width: 408px; height: 417px; margin-right: 608px;""></div></div>","null","delaylearn","learning","display_response","5e3da76a9e51f801298c7510","mMp7Lgc6YWVrJS1zBG1rBVjrd2E2","","","","","","","","","","","","","","","","","chosen stimuli: images/choice_trial_1.png","","","",""
"html-keyboard-response","189","423594","0.0-78.0-2.0","","null","","null","delaylearn","learning","feedback_duration_window","5e3da76a9e51f801298c7510","mMp7Lgc6YWVrJS1zBG1rBVjrd2E2","","","","","","","","","","","","","","","","","","7000","","",""
"html-keyboard-response","190","425102","0.0-78.0-3.0","","null","<div style='margin:auto;width: auto; font-size: 150%'><span style='font-weight: bold; font-size: 100px; color: green;'>+10 points!</span><br><br></div>","null","delaylearn","learning","feedback_image_window","5e3da76a9e51f801298c7510","mMp7Lgc6YWVrJS1zBG1rBVjrd2E2","","","","","","","","","","","","","","","","","","","","",""
"html-keyboard-response","191","425605","0.0-79.0-0.0","","null","","null","","","mood_trial_fixation","","","","","","","","","","","","","","","","","","","","","","",""
"lmdlab-html-vas-response","192","429384","0.0-79.0-1.0","","2771","How happy are you right now?","0.5370370370370371","delaylearn","learning","mood_trial","5e3da76a9e51f801298c7510","mMp7Lgc6YWVrJS1zBG1rBVjrd2E2","","","","","","","","","","","","","","","","","","","","[""Very unhappy"",""Very happy""]",""
"html-keyboard-response","193","430911","0.0-80.0","","null","<div style=""font-size:100px;"">+</div>","null","delaylearn","learning","ITI","5e3da76a9e51f801298c7510","mMp7Lgc6YWVrJS1zBG1rBVjrd2E2","","","","","","","","","","","","","","","","","","","1519","",""
"html-keyboard-response","194","432423","0.0-81.0-0.0","","1508.0999999940395","<div style=""display: flex; flex-direction: column; align-items: center; margin-top: -40px;""><img src=""images/pattern_6.png"" style=""width: 234px; height: 230px; margin-top: -50px;""><div style=""display: flex; justify-content: space-between; margin-top: 33px;""><img src=""images/choice_trial_10.png"" style=""width: 408px; height: 417px; margin-right: 200px;""><img src=""images/choice_trial_3.png"" style=""width: 408px; height: 417px;""></div></div>","f","delaylearn","learning","trial","5e3da76a9e51f801298c7510","mMp7Lgc6YWVrJS1zBG1rBVjrd2E2","4","images/choice_trial_10.png","images/choice_trial_3.png","images/pattern_6.png","j","f","750","10","3","5","0","35","1","0","10","220","","","","",""
"html-keyboard-response","195","433426","0.0-81.0-1.0","","null","<div style=""display: flex; flex-direction: column; align-items: center; margin-top: -40px;""><img src=""images/pattern_6.png"" style=""width: 234px; height: 230px; margin-top: -50px;""><div style=""display: flex; justify-content: space-between; margin-top: 33px;""><img src=""images/choice_trial_10.png"" style=""width: 408px; height: 417px; margin-right: 608px;""></div></div>","null","delaylearn","learning","display_response","5e3da76a9e51f801298c7510","mMp7Lgc6YWVrJS1zBG1rBVjrd2E2","","","","","","","","","","","","","","","","","chosen stimuli: images/choice_trial_10.png","","","",""
"html-keyboard-response","196","434184","0.0-81.0-2.0","","null","","null","delaylearn","learning","feedback_duration_window","5e3da76a9e51f801298c7510","mMp7Lgc6YWVrJS1zBG1rBVjrd2E2","","","","","","","","","","","","","","","","","","750","","",""
"html-keyboard-response","197","435692","0.0-81.0-3.0","","null","<div style='margin:auto;width: auto; font-size: 150%'><span style='font-weight: bold; font-size: 100px; color: red;'>0 points!</span><br><br></div>","null","delaylearn","learning","feedback_image_window","5e3da76a9e51f801298c7510","mMp7Lgc6YWVrJS1zBG1rBVjrd2E2","","","","","","","","","","","","","","","","","","","","",""
"html-keyboard-response","198","438057","0.0-82.0","","null","<div style=""font-size:100px;"">+</div>","null","delaylearn","learning","ITI","5e3da76a9e51f801298c7510","mMp7Lgc6YWVrJS1zBG1rBVjrd2E2","","","","","","","","","","","","","","","","","","","2362","",""
"html-keyboard-response","199","438992","0.0-83.0-0.0","","930","<div style=""display: flex; flex-direction: column; align-items: center; margin-top: -40px;""><img src=""images/pattern_3.png"" style=""width: 234px; height: 230px; margin-top: -50px;""><div style=""display: flex; justify-content: space-between; margin-top: 33px;""><img src=""images/choice_trial_6.png"" style=""width: 408px; height: 417px; margin-right: 200px;""><img src=""images/choice_trial_16.png"" style=""width: 408px; height: 417px;""></div></div>","j","delaylearn","learning","trial","5e3da76a9e51f801298c7510","mMp7Lgc6YWVrJS1zBG1rBVjrd2E2","4","images/choice_trial_6.png","images/choice_trial_16.png","images/pattern_3.png","j","j","7000","6","16","2","1","36","1","1","16","230","","","","",""
"html-keyboard-response","200","439994","0.0-83.0-1.0","","null","<div style=""display: flex; flex-direction: column; align-items: center; margin-top: -40px;""><img src=""images/pattern_3.png"" style=""width: 234px; height: 230px; margin-top: -50px;""><div style=""display: flex; justify-content: space-between; margin-top: 33px;""><img src=""images/choice_trial_16.png"" style=""width: 408px; height: 417px; margin-left:608px;""></div></div>","null","delaylearn","learning","display_response","5e3da76a9e51f801298c7510","mMp7Lgc6YWVrJS1zBG1rBVjrd2E2","","","","","","","","","","","","","","","","","chosen stimuli: images/choice_trial_16.png","","","",""
"html-keyboard-response","201","447001","0.0-83.0-2.0","","null","","null","delaylearn","learning","feedback_duration_window","5e3da76a9e51f801298c7510","mMp7Lgc6YWVrJS1zBG1rBVjrd2E2","","","","","","","","","","","","","","","","","","7000","","",""
"html-keyboard-response","202","448506","0.0-83.0-3.0","","null","<div style='margin:auto;width: auto; font-size: 150%'><span style='font-weight: bold; font-size: 100px; color: green;'>+10 points!</span><br><br></div>","null","delaylearn","learning","feedback_image_window","5e3da76a9e51f801298c7510","mMp7Lgc6YWVrJS1zBG1rBVjrd2E2","","","","","","","","","","","","","","","","","","","","",""
"html-keyboard-response","203","450743","0.0-84.0","","null","<div style=""font-size:100px;"">+</div>","null","delaylearn","learning","ITI","5e3da76a9e51f801298c7510","mMp7Lgc6YWVrJS1zBG1rBVjrd2E2","","","","","","","","","","","","","","","","","","","2230","",""
"html-keyboard-response","204","451794","0.0-85.0-0.0","","1047.800000011921","<div style=""display: flex; flex-direction: column; align-items: center; margin-top: -40px;""><img src=""images/pattern_4.png"" style=""width: 234px; height: 230px; margin-top: -50px;""><div style=""display: flex; justify-content: space-between; margin-top: 33px;""><img src=""images/choice_trial_7.png"" style=""width: 408px; height: 417px; margin-right: 200px;""><img src=""images/choice_trial_8.png"" style=""width: 408px; height: 417px;""></div></div>","j","delaylearn","learning","trial","5e3da76a9e51f801298c7510","mMp7Lgc6YWVrJS1zBG1rBVjrd2E2","4","images/choice_trial_7.png","images/choice_trial_8.png","images/pattern_4.png","f","j","7000","7","8","3","1","37","1","0","8","230","","","","",""
"html-keyboard-response","205","452802","0.0-85.0-1.0","","null","<div style=""display: flex; flex-direction: column; align-items: center; margin-top: -40px;""><img src=""images/pattern_4.png"" style=""width: 234px; height: 230px; margin-top: -50px;""><div style=""display: flex; justify-content: space-between; margin-top: 33px;""><img src=""images/choice_trial_8.png"" style=""width: 408px; height: 417px; margin-left:608px;""></div></div>","null","delaylearn","learning","display_response","5e3da76a9e51f801298c7510","mMp7Lgc6YWVrJS1zBG1rBVjrd2E2","","","","","","","","","","","","","","","","","chosen stimuli: images/choice_trial_8.png","","","",""
"html-keyboard-response","206","459807","0.0-85.0-2.0","","null","","null","delaylearn","learning","feedback_duration_window","5e3da76a9e51f801298c7510","mMp7Lgc6YWVrJS1zBG1rBVjrd2E2","","","","","","","","","","","","","","","","","","7000","","",""
"html-keyboard-response","207","461310","0.0-85.0-3.0","","null","<div style='margin:auto;width: auto; font-size: 150%'><span style='font-weight: bold; font-size: 100px; color: red;'>0 points!</span><br><br></div>","null","delaylearn","learning","feedback_image_window","5e3da76a9e51f801298c7510","mMp7Lgc6YWVrJS1zBG1rBVjrd2E2","","","","","","","","","","","","","","","","","","","","",""
"html-keyboard-response","208","462905","0.0-86.0","","null","<div style=""font-size:100px;"">+</div>","null","delaylearn","learning","ITI","5e3da76a9e51f801298c7510","mMp7Lgc6YWVrJS1zBG1rBVjrd2E2","","","","","","","","","","","","","","","","","","","1588","",""
"html-keyboard-response","209","463828","0.0-87.0-0.0","","918.5999999940395","<div style=""display: flex; flex-direction: column; align-items: center; margin-top: -40px;""><img src=""images/pattern_7.png"" style=""width: 234px; height: 230px; margin-top: -50px;""><div style=""display: flex; justify-content: space-between; margin-top: 33px;""><img src=""images/choice_trial_13.png"" style=""width: 408px; height: 417px; margin-right: 200px;""><img src=""images/choice_trial_4.png"" style=""width: 408px; height: 417px;""></div></div>","f","delaylearn","learning","trial","5e3da76a9e51f801298c7510","mMp7Lgc6YWVrJS1zBG1rBVjrd2E2","4","images/choice_trial_13.png","images/choice_trial_4.png","images/pattern_7.png","f","f","750","13","4","6","0","38","1","1","13","240","","","","",""
"html-keyboard-response","210","464836","0.0-87.0-1.0","","null","<div style=""display: flex; flex-direction: column; align-items: center; margin-top: -40px;""><img src=""images/pattern_7.png"" style=""width: 234px; height: 230px; margin-top: -50px;""><div style=""display: flex; justify-content: space-between; margin-top: 33px;""><img src=""images/choice_trial_13.png"" style=""width: 408px; height: 417px; margin-right: 608px;""></div></div>","null","delaylearn","learning","display_response","5e3da76a9e51f801298c7510","mMp7Lgc6YWVrJS1zBG1rBVjrd2E2","","","","","","","","","","","","","","","","","chosen stimuli: images/choice_trial_13.png","","","",""
"html-keyboard-response","211","465593","0.0-87.0-2.0","","null","","null","delaylearn","learning","feedback_duration_window","5e3da76a9e51f801298c7510","mMp7Lgc6YWVrJS1zBG1rBVjrd2E2","","","","","","","","","","","","","","","","","","750","","",""
"html-keyboard-response","212","467101","0.0-87.0-3.0","","null","<div style='margin:auto;width: auto; font-size: 150%'><span style='font-weight: bold; font-size: 100px; color: green;'>+10 points!</span><br><br></div>","null","delaylearn","learning","feedback_image_window","5e3da76a9e51f801298c7510","mMp7Lgc6YWVrJS1zBG1rBVjrd2E2","","","","","","","","","","","","","","","","","","","","",""
"html-keyboard-response","213","469347","0.0-88.0","","null","<div style=""font-size:100px;"">+</div>","null","delaylearn","learning","ITI","5e3da76a9e51f801298c7510","mMp7Lgc6YWVrJS1zBG1rBVjrd2E2","","","","","","","","","","","","","","","","","","","2241","",""
"html-keyboard-response","214","471613","0.0-89.0-0.0","","2262","<div style=""display: flex; flex-direction: column; align-items: center; margin-top: -40px;""><img src=""images/pattern_1.png"" style=""width: 234px; height: 230px; margin-top: -50px;""><div style=""display: flex; justify-content: space-between; margin-top: 33px;""><img src=""images/choice_trial_1.png"" style=""width: 408px; height: 417px; margin-right: 200px;""><img src=""images/choice_trial_9.png"" style=""width: 408px; height: 417px;""></div></div>","f","delaylearn","learning","trial","5e3da76a9e51f801298c7510","mMp7Lgc6YWVrJS1zBG1rBVjrd2E2","4","images/choice_trial_1.png","images/choice_trial_9.png","images/pattern_1.png","f","f","7000","1","9","1","0","39","1","1","1","250","","","","",""
"html-keyboard-response","215","472620","0.0-89.0-1.0","","null","<div style=""display: flex; flex-direction: column; align-items: center; margin-top: -40px;""><img src=""images/pattern_1.png"" style=""width: 234px; height: 230px; margin-top: -50px;""><div style=""display: flex; justify-content: space-between; margin-top: 33px;""><img src=""images/choice_trial_1.png"" style=""width: 408px; height: 417px; margin-right: 608px;""></div></div>","null","delaylearn","learning","display_response","5e3da76a9e51f801298c7510","mMp7Lgc6YWVrJS1zBG1rBVjrd2E2","","","","","","","","","","","","","","","","","chosen stimuli: images/choice_trial_1.png","","","",""
"html-keyboard-response","216","479625","0.0-89.0-2.0","","null","","null","delaylearn","learning","feedback_duration_window","5e3da76a9e51f801298c7510","mMp7Lgc6YWVrJS1zBG1rBVjrd2E2","","","","","","","","","","","","","","","","","","7000","","",""
"html-keyboard-response","217","481132","0.0-89.0-3.0","","null","<div style='margin:auto;width: auto; font-size: 150%'><span style='font-weight: bold; font-size: 100px; color: green;'>+10 points!</span><br><br></div>","null","delaylearn","learning","feedback_image_window","5e3da76a9e51f801298c7510","mMp7Lgc6YWVrJS1zBG1rBVjrd2E2","","","","","","","","","","","","","","","","","","","","",""
"html-keyboard-response","218","481636","0.0-90.0-0.0","","null","","null","","","mood_trial_fixation","","","","","","","","","","","","","","","","","","","","","","",""
"lmdlab-html-vas-response","219","485502","0.0-90.0-1.0","","2855","How happy are you right now?","0.5","delaylearn","learning","mood_trial","5e3da76a9e51f801298c7510","mMp7Lgc6YWVrJS1zBG1rBVjrd2E2","","","","","","","","","","","","","","","","","","","","[""Very unhappy"",""Very happy""]",""
"html-keyboard-response","220","487764","0.0-91.0","","null","<div style=""font-size:100px;"">+</div>","null","delaylearn","learning","ITI","5e3da76a9e51f801298c7510","mMp7Lgc6YWVrJS1zBG1rBVjrd2E2","","","","","","","","","","","","","","","","","","","2254","",""
