"trial_type","trial_index","time_elapsed","internal_node_id","participant","rt","stimulus","response","exp_name","exp_stage","test_part","subjectID","databaseID","counterbal","choice_stimuli_1","choice_stimuli_2","pattern_stimuli","rewarded_answer","correct_answer","feedback_duration_times","stim_left","stim_right","pair","leftright_counter","trial","response_correct","response_rewarded","chosen_stim","counter","displayed_choice","feedback_durations","ITI_duration","labels","rest_warning"
"pavlovia","0","660","0.0-0.0","","","","","","","","","","","","","","","","","","","","","","","","","","","","","",""
"html-keyboard-response","1","3672","0.0-1.0","","null","<div style=""font-size:100px;"">+</div>","null","delaylearn","learning","pre_fixation","60e0dc6be0772b7dfdad9b2c","","","","","","","","","","","","","","","","","","","","","",""
"html-keyboard-response","2","4719","0.0-2.0-0.0","","1044.2999999523163","<div style=""display: flex; flex-direction: column; align-items: center; margin-top: -40px;""><img src=""images/demo_images/pattern_1.png"" style=""width: 234px; height: 230px; margin-top: -50px;""><div style=""display: flex; justify-content: space-between; margin-top: 33px;""><img src=""images/demo_images/choice_trial_2.png"" style=""width: 408px; height: 417px; margin-right: 200px;""><img src=""images/demo_images/choice_trial_1.png"" style=""width: 408px; height: 417px;""></div></div>","f","delaylearn","learning","trial","60e0dc6be0772b7dfdad9b2c","h5cyt2f9S1OX67beaN0xZIVItDO2","5","images/demo_images/choice_trial_2.png","images/demo_images/choice_trial_1.png","images/demo_images/pattern_1.png","j","j","3000","2","1","20","1","1","0","0","2","0","","","","",""
"html-keyboard-response","3","5724","0.0-2.0-1.0","","null","<div style=""display: flex; flex-direction: column; align-items: center; margin-top: -40px;""><img src=""images/demo_images/pattern_1.png"" style=""width: 234px; height: 230px; margin-top: -50px;""><div style=""display: flex; justify-content: space-between; margin-top: 33px;""><img src=""images/demo_images/choice_trial_2.png"" style=""width: 408px; height: 417px; margin-right: 608px;""></div></div>","null","delaylearn","learning","display_response","60e0dc6be0772b7dfdad9b2c","h5cyt2f9S1OX67beaN0xZIVItDO2","","","","","","","","","","","","","","","","","chosen stimuli: images/demo_images/choice_trial_2.png","","","",""
"html-keyboard-response","4","8739","0.0-2.0-2.0","","null","","null","delaylearn","learning","feedback_duration_window","60e0dc6be0772b7dfdad9b2c","h5cyt2f9S1OX67beaN0xZIVItDO2","","","","","","","","","","","","","","","","","","3000","","",""
"html-keyboard-response","5","10256","0.0-2.0-3.0","","null","<div style='margin:auto;width: auto; font-size: 150%'><span style='font-weight: bold; font-size: 100px; color: red;'>0 points!</span><br><br></div>","null","delaylearn","learning","feedback_image_window","60e0dc6be0772b7dfdad9b2c","h5cyt2f9S1OX67beaN0xZIVItDO2","","","","","","","","","","","","","","","","","","","","",""
"html-keyboard-response","6","12599","0.0-3.0","","null","<div style=""font-size:100px;"">+</div>","null","delaylearn","learning","ITI","60e0dc6be0772b7dfdad9b2c","h5cyt2f9S1OX67beaN0xZIVItDO2","","","","","","","","","","","","","","","","","","","2338","",""
"html-keyboard-response","7","14300","0.0-4.0-0.0","","1698.0999999046326","<div style=""display: flex; flex-direction: column; align-items: center; margin-top: -40px;""><img src=""images/demo_images/pattern_1.png"" style=""width: 234px; height: 230px; margin-top: -50px;""><div style=""display: flex; justify-content: space-between; margin-top: 33px;""><img src=""images/demo_images/choice_trial_2.png"" style=""width: 408px; height: 417px; margin-right: 200px;""><img src=""images/demo_images/choice_trial_1.png"" style=""width: 408px; height: 417px;""></div></div>","j","delaylearn","learning","trial","60e0dc6be0772b7dfdad9b2c","h5cyt2f9S1OX67beaN0xZIVItDO2","5","images/demo_images/choice_trial_2.png","images/demo_images/choice_trial_1.png","images/demo_images/pattern_1.png","j","j","3000","2","1","20","1","2","1","1","1","10","","","","",""
"html-keyboard-response","8","15313","0.0-4.0-1.0","","null","<div style=""display: flex; flex-direction: column; align-items: center; margin-top: -40px;""><img src=""images/demo_images/pattern_1.png"" style=""width: 234px; height: 230px; margin-top: -50px;""><div style=""display: flex; justify-content: space-between; margin-top: 33px;""><img src=""images/demo_images/choice_trial_1.png"" style=""width: 408px; height: 417px; margin-left:608px;""></div></div>","null","delaylearn","learning","display_response","60e0dc6be0772b7dfdad9b2c","h5cyt2f9S1OX67beaN0xZIVItDO2","","","","","","","","","","","","","","","","","chosen stimuli: images/demo_images/choice_trial_1.png","","","",""
"html-keyboard-response","9","18316","0.0-4.0-2.0","","null","","null","delaylearn","learning","feedback_duration_window","60e0dc6be0772b7dfdad9b2c","h5cyt2f9S1OX67beaN0xZIVItDO2","","","","","","","","","","","","","","","","","","3000","","",""
"html-keyboard-response","10","19830","0.0-4.0-3.0","","null","<div style='margin:auto;width: auto; font-size: 150%'><span style='font-weight: bold; font-size: 100px; color: green;'>+10 points!</span><br><br></div>","null","delaylearn","learning","feedback_image_window","60e0dc6be0772b7dfdad9b2c","h5cyt2f9S1OX67beaN0xZIVItDO2","","","","","","","","","","","","","","","","","","","","",""
"html-keyboard-response","11","21939","0.0-5.0","","null","<div style=""font-size:100px;"">+</div>","null","delaylearn","learning","ITI","60e0dc6be0772b7dfdad9b2c","h5cyt2f9S1OX67beaN0xZIVItDO2","","","","","","","","","","","","","","","","","","","2106","",""
"html-keyboard-response","12","24630","0.0-6.0-0.0","","2689.0999999046326","<div style=""display: flex; flex-direction: column; align-items: center; margin-top: -40px;""><img src=""images/demo_images/pattern_1.png"" style=""width: 234px; height: 230px; margin-top: -50px;""><div style=""display: flex; justify-content: space-between; margin-top: 33px;""><img src=""images/demo_images/choice_trial_1.png"" style=""width: 408px; height: 417px; margin-right: 200px;""><img src=""images/demo_images/choice_trial_2.png"" style=""width: 408px; height: 417px;""></div></div>","j","delaylearn","learning","trial","60e0dc6be0772b7dfdad9b2c","h5cyt2f9S1OX67beaN0xZIVItDO2","5","images/demo_images/choice_trial_1.png","images/demo_images/choice_trial_2.png","images/demo_images/pattern_1.png","j","f","3000","1","2","20","0","3","0","1","2","20","","","","",""
"html-keyboard-response","13","25651","0.0-6.0-1.0","","null","<div style=""display: flex; flex-direction: column; align-items: center; margin-top: -40px;""><img src=""images/demo_images/pattern_1.png"" style=""width: 234px; height: 230px; margin-top: -50px;""><div style=""display: flex; justify-content: space-between; margin-top: 33px;""><img src=""images/demo_images/choice_trial_2.png"" style=""width: 408px; height: 417px; margin-left:608px;""></div></div>","null","delaylearn","learning","display_response","60e0dc6be0772b7dfdad9b2c","h5cyt2f9S1OX67beaN0xZIVItDO2","","","","","","","","","","","","","","","","","chosen stimuli: images/demo_images/choice_trial_2.png","","","",""
"html-keyboard-response","14","28667","0.0-6.0-2.0","","null","","null","delaylearn","learning","feedback_duration_window","60e0dc6be0772b7dfdad9b2c","h5cyt2f9S1OX67beaN0xZIVItDO2","","","","","","","","","","","","","","","","","","3000","","",""
"html-keyboard-response","15","30176","0.0-6.0-3.0","","null","<div style='margin:auto;width: auto; font-size: 150%'><span style='font-weight: bold; font-size: 100px; color: green;'>+10 points!</span><br><br></div>","null","delaylearn","learning","feedback_image_window","60e0dc6be0772b7dfdad9b2c","h5cyt2f9S1OX67beaN0xZIVItDO2","","","","","","","","","","","","","","","","","","","","",""
"html-keyboard-response","16","32095","0.0-7.0","","null","<div style=""font-size:100px;"">+</div>","null","delaylearn","learning","ITI","60e0dc6be0772b7dfdad9b2c","h5cyt2f9S1OX67beaN0xZIVItDO2","","","","","","","","","","","","","","","","","","","1913","",""
"html-keyboard-response","17","34128","0.0-8.0-0.0","","2030.3999999761581","<div style=""display: flex; flex-direction: column; align-items: center; margin-top: -40px;""><img src=""images/demo_images/pattern_1.png"" style=""width: 234px; height: 230px; margin-top: -50px;""><div style=""display: flex; justify-content: space-between; margin-top: 33px;""><img src=""images/demo_images/choice_trial_1.png"" style=""width: 408px; height: 417px; margin-right: 200px;""><img src=""images/demo_images/choice_trial_2.png"" style=""width: 408px; height: 417px;""></div></div>","f","delaylearn","learning","trial","60e0dc6be0772b7dfdad9b2c","h5cyt2f9S1OX67beaN0xZIVItDO2","5","images/demo_images/choice_trial_1.png","images/demo_images/choice_trial_2.png","images/demo_images/pattern_1.png","f","f","3000","1","2","20","0","4","1","1","1","30","","","","",""
"html-keyboard-response","18","35134","0.0-8.0-1.0","","null","<div style=""display: flex; flex-direction: column; align-items: center; margin-top: -40px;""><img src=""images/demo_images/pattern_1.png"" style=""width: 234px; height: 230px; margin-top: -50px;""><div style=""display: flex; justify-content: space-between; margin-top: 33px;""><img src=""images/demo_images/choice_trial_1.png"" style=""width: 408px; height: 417px; margin-right: 608px;""></div></div>","null","delaylearn","learning","display_response","60e0dc6be0772b7dfdad9b2c","h5cyt2f9S1OX67beaN0xZIVItDO2","","","","","","","","","","","","","","","","","chosen stimuli: images/demo_images/choice_trial_1.png","","","",""
"html-keyboard-response","19","38138","0.0-8.0-2.0","","null","","null","delaylearn","learning","feedback_duration_window","60e0dc6be0772b7dfdad9b2c","h5cyt2f9S1OX67beaN0xZIVItDO2","","","","","","","","","","","","","","","","","","3000","","",""
"html-keyboard-response","20","39645","0.0-8.0-3.0","","null","<div style='margin:auto;width: auto; font-size: 150%'><span style='font-weight: bold; font-size: 100px; color: green;'>+10 points!</span><br><br></div>","null","delaylearn","learning","feedback_image_window","60e0dc6be0772b7dfdad9b2c","h5cyt2f9S1OX67beaN0xZIVItDO2","","","","","","","","","","","","","","","","","","","","",""
"html-keyboard-response","21","40147","0.0-9.0-0.0","","null","","null","","","mood_trial_fixation","","","","","","","","","","","","","","","","","","","","","","",""
"lmdlab-html-vas-response","22","45538","0.0-9.0-1.0","","4364","How happy are you right now?","0.9148498736454362","delaylearn","learning","mood_trial","60e0dc6be0772b7dfdad9b2c","h5cyt2f9S1OX67beaN0xZIVItDO2","","","","","","","","","","","","","","","","","","","","[""Very unhappy"",""Very happy""]",""
"html-keyboard-response","23","47518","0.0-10.0","","null","<div style=""font-size:100px;"">+</div>","null","delaylearn","learning","ITI","60e0dc6be0772b7dfdad9b2c","h5cyt2f9S1OX67beaN0xZIVItDO2","","","","","","","","","","","","","","","","","","","1974","",""
"html-keyboard-response","24","49108","0.0-11.0-0.0","","1588.1999999284744","<div style=""display: flex; flex-direction: column; align-items: center; margin-top: -40px;""><img src=""images/demo_images/pattern_1.png"" style=""width: 234px; height: 230px; margin-top: -50px;""><div style=""display: flex; justify-content: space-between; margin-top: 33px;""><img src=""images/demo_images/choice_trial_2.png"" style=""width: 408px; height: 417px; margin-right: 200px;""><img src=""images/demo_images/choice_trial_1.png"" style=""width: 408px; height: 417px;""></div></div>","f","delaylearn","learning","trial","60e0dc6be0772b7dfdad9b2c","h5cyt2f9S1OX67beaN0xZIVItDO2","5","images/demo_images/choice_trial_2.png","images/demo_images/choice_trial_1.png","images/demo_images/pattern_1.png","j","j","3000","2","1","20","1","5","0","0","2","30","","","","",""
"html-keyboard-response","25","50111","0.0-11.0-1.0","","null","<div style=""display: flex; flex-direction: column; align-items: center; margin-top: -40px;""><img src=""images/demo_images/pattern_1.png"" style=""width: 234px; height: 230px; margin-top: -50px;""><div style=""display: flex; justify-content: space-between; margin-top: 33px;""><img src=""images/demo_images/choice_trial_2.png"" style=""width: 408px; height: 417px; margin-right: 608px;""></div></div>","null","delaylearn","learning","display_response","60e0dc6be0772b7dfdad9b2c","h5cyt2f9S1OX67beaN0xZIVItDO2","","","","","","","","","","","","","","","","","chosen stimuli: images/demo_images/choice_trial_2.png","","","",""
"html-keyboard-response","26","53116","0.0-11.0-2.0","","null","","null","delaylearn","learning","feedback_duration_window","60e0dc6be0772b7dfdad9b2c","h5cyt2f9S1OX67beaN0xZIVItDO2","","","","","","","","","","","","","","","","","","3000","","",""
"html-keyboard-response","27","54624","0.0-11.0-3.0","","null","<div style='margin:auto;width: auto; font-size: 150%'><span style='font-weight: bold; font-size: 100px; color: red;'>0 points!</span><br><br></div>","null","delaylearn","learning","feedback_image_window","60e0dc6be0772b7dfdad9b2c","h5cyt2f9S1OX67beaN0xZIVItDO2","","","","","","","","","","","","","","","","","","","","",""
"html-keyboard-response","28","56878","0.0-12.0","","null","<div style=""font-size:100px;"">+</div>","null","delaylearn","learning","ITI","60e0dc6be0772b7dfdad9b2c","h5cyt2f9S1OX67beaN0xZIVItDO2","","","","","","","","","","","","","","","","","","","2241","",""
"html-keyboard-response","29","59320","0.0-13.0-0.0","","2439.1999999284744","<div style=""display: flex; flex-direction: column; align-items: center; margin-top: -40px;""><img src=""images/demo_images/pattern_1.png"" style=""width: 234px; height: 230px; margin-top: -50px;""><div style=""display: flex; justify-content: space-between; margin-top: 33px;""><img src=""images/demo_images/choice_trial_1.png"" style=""width: 408px; height: 417px; margin-right: 200px;""><img src=""images/demo_images/choice_trial_2.png"" style=""width: 408px; height: 417px;""></div></div>","f","delaylearn","learning","trial","60e0dc6be0772b7dfdad9b2c","h5cyt2f9S1OX67beaN0xZIVItDO2","5","images/demo_images/choice_trial_1.png","images/demo_images/choice_trial_2.png","images/demo_images/pattern_1.png","f","f","3000","1","2","20","0","6","1","1","1","40","","","","",""
"html-keyboard-response","30","60335","0.0-13.0-1.0","","null","<div style=""display: flex; flex-direction: column; align-items: center; margin-top: -40px;""><img src=""images/demo_images/pattern_1.png"" style=""width: 234px; height: 230px; margin-top: -50px;""><div style=""display: flex; justify-content: space-between; margin-top: 33px;""><img src=""images/demo_images/choice_trial_1.png"" style=""width: 408px; height: 417px; margin-right: 608px;""></div></div>","null","delaylearn","learning","display_response","60e0dc6be0772b7dfdad9b2c","h5cyt2f9S1OX67beaN0xZIVItDO2","","","","","","","","","","","","","","","","","chosen stimuli: images/demo_images/choice_trial_1.png","","","",""
"html-keyboard-response","31","63342","0.0-13.0-2.0","","null","","null","delaylearn","learning","feedback_duration_window","60e0dc6be0772b7dfdad9b2c","h5cyt2f9S1OX67beaN0xZIVItDO2","","","","","","","","","","","","","","","","","","3000","","",""
"html-keyboard-response","32","64856","0.0-13.0-3.0","","null","<div style='margin:auto;width: auto; font-size: 150%'><span style='font-weight: bold; font-size: 100px; color: green;'>+10 points!</span><br><br></div>","null","delaylearn","learning","feedback_image_window","60e0dc6be0772b7dfdad9b2c","h5cyt2f9S1OX67beaN0xZIVItDO2","","","","","","","","","","","","","","","","","","","","",""
"html-keyboard-response","33","66487","0.0-14.0","","null","<div style=""font-size:100px;"">+</div>","null","delaylearn","learning","ITI","60e0dc6be0772b7dfdad9b2c","h5cyt2f9S1OX67beaN0xZIVItDO2","","","","","","","","","","","","","","","","","","","1624","",""
"html-keyboard-response","34","68729","0.0-15.0-0.0","","2235","<div style=""display: flex; flex-direction: column; align-items: center; margin-top: -40px;""><img src=""images/demo_images/pattern_1.png"" style=""width: 234px; height: 230px; margin-top: -50px;""><div style=""display: flex; justify-content: space-between; margin-top: 33px;""><img src=""images/demo_images/choice_trial_2.png"" style=""width: 408px; height: 417px; margin-right: 200px;""><img src=""images/demo_images/choice_trial_1.png"" style=""width: 408px; height: 417px;""></div></div>","j","delaylearn","learning","trial","60e0dc6be0772b7dfdad9b2c","h5cyt2f9S1OX67beaN0xZIVItDO2","5","images/demo_images/choice_trial_2.png","images/demo_images/choice_trial_1.png","images/demo_images/pattern_1.png","j","j","3000","2","1","20","1","7","1","1","1","50","","","","",""
"html-keyboard-response","35","69738","0.0-15.0-1.0","","null","<div style=""display: flex; flex-direction: column; align-items: center; margin-top: -40px;""><img src=""images/demo_images/pattern_1.png"" style=""width: 234px; height: 230px; margin-top: -50px;""><div style=""display: flex; justify-content: space-between; margin-top: 33px;""><img src=""images/demo_images/choice_trial_1.png"" style=""width: 408px; height: 417px; margin-left:608px;""></div></div>","null","delaylearn","learning","display_response","60e0dc6be0772b7dfdad9b2c","h5cyt2f9S1OX67beaN0xZIVItDO2","","","","","","","","","","","","","","","","","chosen stimuli: images/demo_images/choice_trial_1.png","","","",""
"html-keyboard-response","36","72747","0.0-15.0-2.0","","null","","null","delaylearn","learning","feedback_duration_window","60e0dc6be0772b7dfdad9b2c","h5cyt2f9S1OX67beaN0xZIVItDO2","","","","","","","","","","","","","","","","","","3000","","",""
"html-keyboard-response","37","74252","0.0-15.0-3.0","","null","<div style='margin:auto;width: auto; font-size: 150%'><span style='font-weight: bold; font-size: 100px; color: green;'>+10 points!</span><br><br></div>","null","delaylearn","learning","feedback_image_window","60e0dc6be0772b7dfdad9b2c","h5cyt2f9S1OX67beaN0xZIVItDO2","","","","","","","","","","","","","","","","","","","","",""
"html-keyboard-response","38","76461","0.0-16.0","","null","<div style=""font-size:100px;"">+</div>","null","delaylearn","learning","ITI","60e0dc6be0772b7dfdad9b2c","h5cyt2f9S1OX67beaN0xZIVItDO2","","","","","","","","","","","","","","","","","","","2202","",""
"html-keyboard-response","39","77429","0.0-17.0-0.0","","966","<div style=""display: flex; flex-direction: column; align-items: center; margin-top: -40px;""><img src=""images/demo_images/pattern_1.png"" style=""width: 234px; height: 230px; margin-top: -50px;""><div style=""display: flex; justify-content: space-between; margin-top: 33px;""><img src=""images/demo_images/choice_trial_1.png"" style=""width: 408px; height: 417px; margin-right: 200px;""><img src=""images/demo_images/choice_trial_2.png"" style=""width: 408px; height: 417px;""></div></div>","f","delaylearn","learning","trial","60e0dc6be0772b7dfdad9b2c","h5cyt2f9S1OX67beaN0xZIVItDO2","5","images/demo_images/choice_trial_1.png","images/demo_images/choice_trial_2.png","images/demo_images/pattern_1.png","f","f","3000","1","2","20","0","8","1","1","1","60","","","","",""
"html-keyboard-response","40","78444","0.0-17.0-1.0","","null","<div style=""display: flex; flex-direction: column; align-items: center; margin-top: -40px;""><img src=""images/demo_images/pattern_1.png"" style=""width: 234px; height: 230px; margin-top: -50px;""><div style=""display: flex; justify-content: space-between; margin-top: 33px;""><img src=""images/demo_images/choice_trial_1.png"" style=""width: 408px; height: 417px; margin-right: 608px;""></div></div>","null","delaylearn","learning","display_response","60e0dc6be0772b7dfdad9b2c","h5cyt2f9S1OX67beaN0xZIVItDO2","","","","","","","","","","","","","","","","","chosen stimuli: images/demo_images/choice_trial_1.png","","","",""
"html-keyboard-response","41","81455","0.0-17.0-2.0","","null","","null","delaylearn","learning","feedback_duration_window","60e0dc6be0772b7dfdad9b2c","h5cyt2f9S1OX67beaN0xZIVItDO2","","","","","","","","","","","","","","","","","","3000","","",""
"html-keyboard-response","42","82966","0.0-17.0-3.0","","null","<div style='margin:auto;width: auto; font-size: 150%'><span style='font-weight: bold; font-size: 100px; color: green;'>+10 points!</span><br><br></div>","null","delaylearn","learning","feedback_image_window","60e0dc6be0772b7dfdad9b2c","h5cyt2f9S1OX67beaN0xZIVItDO2","","","","","","","","","","","","","","","","","","","","",""
"html-button-response","43","95682","0.0-18.0","","12714.100000023842","
  <div style=""display: flex; align-items: center; justify-content: center; height: 80vh;"">
  <div>
          <img src=""images/inst_demo_finish.png"" style=""width: 80vw; height:auto;"">
          <br><br>
      </div>
      <br><br>
  </div>","0","","","","","","","","","","","","","","","","","","","","","","","","","",""
"html-keyboard-response","44","100298","0.0-19.0","","4614.800000071526","
  <div style=""display: flex; align-items: center; justify-content: center; height: 80vh;"">
  <div>
          <img src=""images/inst_6.png"" style=""width: 80vw; height:auto;"">
          <br><br>
      </div>
      <br><br>
  </div>","f","","","","","","","","","","","","","","","","","","","","","","","","","",""
"html-keyboard-response","45","103316","0.0-20.0","","null","<div style=""font-size:100px;"">+</div>","null","delaylearn","learning","pre_fixation","60e0dc6be0772b7dfdad9b2c","","","","","","","","","","","","","","","","","","","","","",""
"html-keyboard-response","46","105408","0.0-21.0","","null","<div style=""font-size:100px;"">+</div>","null","delaylearn","learning","ITI","60e0dc6be0772b7dfdad9b2c","h5cyt2f9S1OX67beaN0xZIVItDO2","","","","","","","","","","","","","","","","","","","2086","",""
"html-keyboard-response","47","106659","0.0-22.0-0.0","","1249","<div style=""display: flex; flex-direction: column; align-items: center; margin-top: -40px;""><img src=""images/pattern_3.png"" style=""width: 234px; height: 230px; margin-top: -50px;""><div style=""display: flex; justify-content: space-between; margin-top: 33px;""><img src=""images/choice_trial_16.png"" style=""width: 408px; height: 417px; margin-right: 200px;""><img src=""images/choice_trial_2.png"" style=""width: 408px; height: 417px;""></div></div>","j","delaylearn","learning","trial","60e0dc6be0772b7dfdad9b2c","h5cyt2f9S1OX67beaN0xZIVItDO2","5","images/choice_trial_16.png","images/choice_trial_2.png","images/pattern_3.png","f","f","7000","16","2","2","0","9","0","0","2","60","","","","",""
"html-keyboard-response","48","107672","0.0-22.0-1.0","","null","<div style=""display: flex; flex-direction: column; align-items: center; margin-top: -40px;""><img src=""images/pattern_3.png"" style=""width: 234px; height: 230px; margin-top: -50px;""><div style=""display: flex; justify-content: space-between; margin-top: 33px;""><img src=""images/choice_trial_2.png"" style=""width: 408px; height: 417px; margin-left:608px;""></div></div>","null","delaylearn","learning","display_response","60e0dc6be0772b7dfdad9b2c","h5cyt2f9S1OX67beaN0xZIVItDO2","","","","","","","","","","","","","","","","","chosen stimuli: images/choice_trial_2.png","","","",""
"html-keyboard-response","49","114684","0.0-22.0-2.0","","null","","null","delaylearn","learning","feedback_duration_window","60e0dc6be0772b7dfdad9b2c","h5cyt2f9S1OX67beaN0xZIVItDO2","","","","","","","","","","","","","","","","","","7000","","",""
"html-keyboard-response","50","116187","0.0-22.0-3.0","","null","<div style='margin:auto;width: auto; font-size: 150%'><span style='font-weight: bold; font-size: 100px; color: red;'>0 points!</span><br><br></div>","null","delaylearn","learning","feedback_image_window","60e0dc6be0772b7dfdad9b2c","h5cyt2f9S1OX67beaN0xZIVItDO2","","","","","","","","","","","","","","","","","","","","",""
"html-keyboard-response","51","118085","0.0-23.0","","null","<div style=""font-size:100px;"">+</div>","null","delaylearn","learning","ITI","60e0dc6be0772b7dfdad9b2c","h5cyt2f9S1OX67beaN0xZIVItDO2","","","","","","","","","","","","","","","","","","","1889","",""
"html-keyboard-response","52","119690","0.0-24.0-0.0","","1602.2999999523163","<div style=""display: flex; flex-direction: column; align-items: center; margin-top: -40px;""><img src=""images/pattern_7.png"" style=""width: 234px; height: 230px; margin-top: -50px;""><div style=""display: flex; justify-content: space-between; margin-top: 33px;""><img src=""images/choice_trial_10.png"" style=""width: 408px; height: 417px; margin-right: 200px;""><img src=""images/choice_trial_8.png"" style=""width: 408px; height: 417px;""></div></div>","f","delaylearn","learning","trial","60e0dc6be0772b7dfdad9b2c","h5cyt2f9S1OX67beaN0xZIVItDO2","5","images/choice_trial_10.png","images/choice_trial_8.png","images/pattern_7.png","j","j","750","10","8","6","1","10","0","0","10","60","","","","",""
"html-keyboard-response","53","120698","0.0-24.0-1.0","","null","<div style=""display: flex; flex-direction: column; align-items: center; margin-top: -40px;""><img src=""images/pattern_7.png"" style=""width: 234px; height: 230px; margin-top: -50px;""><div style=""display: flex; justify-content: space-between; margin-top: 33px;""><img src=""images/choice_trial_10.png"" style=""width: 408px; height: 417px; margin-right: 608px;""></div></div>","null","delaylearn","learning","display_response","60e0dc6be0772b7dfdad9b2c","h5cyt2f9S1OX67beaN0xZIVItDO2","","","","","","","","","","","","","","","","","chosen stimuli: images/choice_trial_10.png","","","",""
"html-keyboard-response","54","121465","0.0-24.0-2.0","","null","","null","delaylearn","learning","feedback_duration_window","60e0dc6be0772b7dfdad9b2c","h5cyt2f9S1OX67beaN0xZIVItDO2","","","","","","","","","","","","","","","","","","750","","",""
"html-keyboard-response","55","122972","0.0-24.0-3.0","","null","<div style='margin:auto;width: auto; font-size: 150%'><span style='font-weight: bold; font-size: 100px; color: red;'>0 points!</span><br><br></div>","null","delaylearn","learning","feedback_image_window","60e0dc6be0772b7dfdad9b2c","h5cyt2f9S1OX67beaN0xZIVItDO2","","","","","","","","","","","","","","","","","","","","",""
"html-keyboard-response","56","125459","0.0-25.0","","null","<div style=""font-size:100px;"">+</div>","null","delaylearn","learning","ITI","60e0dc6be0772b7dfdad9b2c","h5cyt2f9S1OX67beaN0xZIVItDO2","","","","","","","","","","","","","","","","","","","2474","",""
"html-keyboard-response","57","127148","0.0-26.0-0.0","","1686.9000000953674","<div style=""display: flex; flex-direction: column; align-items: center; margin-top: -40px;""><img src=""images/pattern_4.png"" style=""width: 234px; height: 230px; margin-top: -50px;""><div style=""display: flex; justify-content: space-between; margin-top: 33px;""><img src=""images/choice_trial_11.png"" style=""width: 408px; height: 417px; margin-right: 200px;""><img src=""images/choice_trial_4.png"" style=""width: 408px; height: 417px;""></div></div>","f","delaylearn","learning","trial","60e0dc6be0772b7dfdad9b2c","h5cyt2f9S1OX67beaN0xZIVItDO2","5","images/choice_trial_11.png","images/choice_trial_4.png","images/pattern_4.png","f","f","7000","11","4","3","0","11","1","1","11","70","","","","",""
"html-keyboard-response","58","128163","0.0-26.0-1.0","","null","<div style=""display: flex; flex-direction: column; align-items: center; margin-top: -40px;""><img src=""images/pattern_4.png"" style=""width: 234px; height: 230px; margin-top: -50px;""><div style=""display: flex; justify-content: space-between; margin-top: 33px;""><img src=""images/choice_trial_11.png"" style=""width: 408px; height: 417px; margin-right: 608px;""></div></div>","null","delaylearn","learning","display_response","60e0dc6be0772b7dfdad9b2c","h5cyt2f9S1OX67beaN0xZIVItDO2","","","","","","","","","","","","","","","","","chosen stimuli: images/choice_trial_11.png","","","",""
"html-keyboard-response","59","135169","0.0-26.0-2.0","","null","","null","delaylearn","learning","feedback_duration_window","60e0dc6be0772b7dfdad9b2c","h5cyt2f9S1OX67beaN0xZIVItDO2","","","","","","","","","","","","","","","","","","7000","","",""
"html-keyboard-response","60","136677","0.0-26.0-3.0","","null","<div style='margin:auto;width: auto; font-size: 150%'><span style='font-weight: bold; font-size: 100px; color: green;'>+10 points!</span><br><br></div>","null","delaylearn","learning","feedback_image_window","60e0dc6be0772b7dfdad9b2c","h5cyt2f9S1OX67beaN0xZIVItDO2","","","","","","","","","","","","","","","","","","","","",""
"html-keyboard-response","61","139057","0.0-27.0","","null","<div style=""font-size:100px;"">+</div>","null","delaylearn","learning","ITI","60e0dc6be0772b7dfdad9b2c","h5cyt2f9S1OX67beaN0xZIVItDO2","","","","","","","","","","","","","","","","","","","2366","",""
"html-keyboard-response","62","140679","0.0-28.0-0.0","","1619.6999999284744","<div style=""display: flex; flex-direction: column; align-items: center; margin-top: -40px;""><img src=""images/pattern_5.png"" style=""width: 234px; height: 230px; margin-top: -50px;""><div style=""display: flex; justify-content: space-between; margin-top: 33px;""><img src=""images/choice_trial_13.png"" style=""width: 408px; height: 417px; margin-right: 200px;""><img src=""images/choice_trial_7.png"" style=""width: 408px; height: 417px;""></div></div>","j","delaylearn","learning","trial","60e0dc6be0772b7dfdad9b2c","h5cyt2f9S1OX67beaN0xZIVItDO2","5","images/choice_trial_13.png","images/choice_trial_7.png","images/pattern_5.png","j","j","750","13","7","4","1","12","1","1","7","80","","","","",""
"html-keyboard-response","63","141697","0.0-28.0-1.0","","null","<div style=""display: flex; flex-direction: column; align-items: center; margin-top: -40px;""><img src=""images/pattern_5.png"" style=""width: 234px; height: 230px; margin-top: -50px;""><div style=""display: flex; justify-content: space-between; margin-top: 33px;""><img src=""images/choice_trial_7.png"" style=""width: 408px; height: 417px; margin-left:608px;""></div></div>","null","delaylearn","learning","display_response","60e0dc6be0772b7dfdad9b2c","h5cyt2f9S1OX67beaN0xZIVItDO2","","","","","","","","","","","","","","","","","chosen stimuli: images/choice_trial_7.png","","","",""
"html-keyboard-response","64","142452","0.0-28.0-2.0","","null","","null","delaylearn","learning","feedback_duration_window","60e0dc6be0772b7dfdad9b2c","h5cyt2f9S1OX67beaN0xZIVItDO2","","","","","","","","","","","","","","","","","","750","","",""
"html-keyboard-response","65","143964","0.0-28.0-3.0","","null","<div style='margin:auto;width: auto; font-size: 150%'><span style='font-weight: bold; font-size: 100px; color: green;'>+10 points!</span><br><br></div>","null","delaylearn","learning","feedback_image_window","60e0dc6be0772b7dfdad9b2c","h5cyt2f9S1OX67beaN0xZIVItDO2","","","","","","","","","","","","","","","","","","","","",""
"html-keyboard-response","66","146075","0.0-29.0","","null","<div style=""font-size:100px;"">+</div>","null","delaylearn","learning","ITI","60e0dc6be0772b7dfdad9b2c","h5cyt2f9S1OX67beaN0xZIVItDO2","","","","","","","","","","","","","","","","","","","2097","",""
"html-keyboard-response","67","149008","0.0-30.0-0.0","","2930.399999976158","<div style=""display: flex; flex-direction: column; align-items: center; margin-top: -40px;""><img src=""images/pattern_6.png"" style=""width: 234px; height: 230px; margin-top: -50px;""><div style=""display: flex; justify-content: space-between; margin-top: 33px;""><img src=""images/choice_trial_14.png"" style=""width: 408px; height: 417px; margin-right: 200px;""><img src=""images/choice_trial_9.png"" style=""width: 408px; height: 417px;""></div></div>","j","delaylearn","learning","trial","60e0dc6be0772b7dfdad9b2c","h5cyt2f9S1OX67beaN0xZIVItDO2","5","images/choice_trial_14.png","images/choice_trial_9.png","images/pattern_6.png","j","f","750","14","9","5","0","13","0","1","9","90","","","","",""
"html-keyboard-response","68","150020","0.0-30.0-1.0","","null","<div style=""display: flex; flex-direction: column; align-items: center; margin-top: -40px;""><img src=""images/pattern_6.png"" style=""width: 234px; height: 230px; margin-top: -50px;""><div style=""display: flex; justify-content: space-between; margin-top: 33px;""><img src=""images/choice_trial_9.png"" style=""width: 408px; height: 417px; margin-left:608px;""></div></div>","null","delaylearn","learning","display_response","60e0dc6be0772b7dfdad9b2c","h5cyt2f9S1OX67beaN0xZIVItDO2","","","","","","","","","","","","","","","","","chosen stimuli: images/choice_trial_9.png","","","",""
"html-keyboard-response","69","150775","0.0-30.0-2.0","","null","","null","delaylearn","learning","feedback_duration_window","60e0dc6be0772b7dfdad9b2c","h5cyt2f9S1OX67beaN0xZIVItDO2","","","","","","","","","","","","","","","","","","750","","",""
"html-keyboard-response","70","152284","0.0-30.0-3.0","","null","<div style='margin:auto;width: auto; font-size: 150%'><span style='font-weight: bold; font-size: 100px; color: green;'>+10 points!</span><br><br></div>","null","delaylearn","learning","feedback_image_window","60e0dc6be0772b7dfdad9b2c","h5cyt2f9S1OX67beaN0xZIVItDO2","","","","","","","","","","","","","","","","","","","","",""
"html-keyboard-response","71","152800","0.0-31.0-0.0","","null","","null","","","mood_trial_fixation","","","","","","","","","","","","","","","","","","","","","","",""
"lmdlab-html-vas-response","72","158120","0.0-31.0-1.0","","4304","How happy are you right now?","0.9276423808911923","delaylearn","learning","mood_trial","60e0dc6be0772b7dfdad9b2c","h5cyt2f9S1OX67beaN0xZIVItDO2","","","","","","","","","","","","","","","","","","","","[""Very unhappy"",""Very happy""]",""
"html-keyboard-response","73","159723","0.0-32.0","","null","<div style=""font-size:100px;"">+</div>","null","delaylearn","learning","ITI","60e0dc6be0772b7dfdad9b2c","h5cyt2f9S1OX67beaN0xZIVItDO2","","","","","","","","","","","","","","","","","","","1599","",""
"html-keyboard-response","74","161869","0.0-33.0-0.0","","2143","<div style=""display: flex; flex-direction: column; align-items: center; margin-top: -40px;""><img src=""images/pattern_1.png"" style=""width: 234px; height: 230px; margin-top: -50px;""><div style=""display: flex; justify-content: space-between; margin-top: 33px;""><img src=""images/choice_trial_15.png"" style=""width: 408px; height: 417px; margin-right: 200px;""><img src=""images/choice_trial_6.png"" style=""width: 408px; height: 417px;""></div></div>","j","delaylearn","learning","trial","60e0dc6be0772b7dfdad9b2c","h5cyt2f9S1OX67beaN0xZIVItDO2","5","images/choice_trial_15.png","images/choice_trial_6.png","images/pattern_1.png","j","j","7000","15","6","1","1","14","1","1","6","100","","","","",""
"html-keyboard-response","75","162883","0.0-33.0-1.0","","null","<div style=""display: flex; flex-direction: column; align-items: center; margin-top: -40px;""><img src=""images/pattern_1.png"" style=""width: 234px; height: 230px; margin-top: -50px;""><div style=""display: flex; justify-content: space-between; margin-top: 33px;""><img src=""images/choice_trial_6.png"" style=""width: 408px; height: 417px; margin-left:608px;""></div></div>","null","delaylearn","learning","display_response","60e0dc6be0772b7dfdad9b2c","h5cyt2f9S1OX67beaN0xZIVItDO2","","","","","","","","","","","","","","","","","chosen stimuli: images/choice_trial_6.png","","","",""
"html-keyboard-response","76","169892","0.0-33.0-2.0","","null","","null","delaylearn","learning","feedback_duration_window","60e0dc6be0772b7dfdad9b2c","h5cyt2f9S1OX67beaN0xZIVItDO2","","","","","","","","","","","","","","","","","","7000","","",""
"html-keyboard-response","77","171398","0.0-33.0-3.0","","null","<div style='margin:auto;width: auto; font-size: 150%'><span style='font-weight: bold; font-size: 100px; color: green;'>+10 points!</span><br><br></div>","null","delaylearn","learning","feedback_image_window","60e0dc6be0772b7dfdad9b2c","h5cyt2f9S1OX67beaN0xZIVItDO2","","","","","","","","","","","","","","","","","","","","",""
"html-keyboard-response","78","173862","0.0-34.0","","null","<div style=""font-size:100px;"">+</div>","null","delaylearn","learning","ITI","60e0dc6be0772b7dfdad9b2c","h5cyt2f9S1OX67beaN0xZIVItDO2","","","","","","","","","","","","","","","","","","","2462","",""
"html-keyboard-response","79","175960","0.0-35.0-0.0","","2095.2000000476837","<div style=""display: flex; flex-direction: column; align-items: center; margin-top: -40px;""><img src=""images/pattern_3.png"" style=""width: 234px; height: 230px; margin-top: -50px;""><div style=""display: flex; justify-content: space-between; margin-top: 33px;""><img src=""images/choice_trial_2.png"" style=""width: 408px; height: 417px; margin-right: 200px;""><img src=""images/choice_trial_16.png"" style=""width: 408px; height: 417px;""></div></div>","j","delaylearn","learning","trial","60e0dc6be0772b7dfdad9b2c","h5cyt2f9S1OX67beaN0xZIVItDO2","5","images/choice_trial_2.png","images/choice_trial_16.png","images/pattern_3.png","f","j","7000","2","16","2","1","15","1","0","16","100","","","","",""
"html-keyboard-response","80","176970","0.0-35.0-1.0","","null","<div style=""display: flex; flex-direction: column; align-items: center; margin-top: -40px;""><img src=""images/pattern_3.png"" style=""width: 234px; height: 230px; margin-top: -50px;""><div style=""display: flex; justify-content: space-between; margin-top: 33px;""><img src=""images/choice_trial_16.png"" style=""width: 408px; height: 417px; margin-left:608px;""></div></div>","null","delaylearn","learning","display_response","60e0dc6be0772b7dfdad9b2c","h5cyt2f9S1OX67beaN0xZIVItDO2","","","","","","","","","","","","","","","","","chosen stimuli: images/choice_trial_16.png","","","",""
"html-keyboard-response","81","183983","0.0-35.0-2.0","","null","","null","delaylearn","learning","feedback_duration_window","60e0dc6be0772b7dfdad9b2c","h5cyt2f9S1OX67beaN0xZIVItDO2","","","","","","","","","","","","","","","","","","7000","","",""
"html-keyboard-response","82","185487","0.0-35.0-3.0","","null","<div style='margin:auto;width: auto; font-size: 150%'><span style='font-weight: bold; font-size: 100px; color: red;'>0 points!</span><br><br></div>","null","delaylearn","learning","feedback_image_window","60e0dc6be0772b7dfdad9b2c","h5cyt2f9S1OX67beaN0xZIVItDO2","","","","","","","","","","","","","","","","","","","","",""
"html-keyboard-response","83","187032","0.0-36.0","","null","<div style=""font-size:100px;"">+</div>","null","delaylearn","learning","ITI","60e0dc6be0772b7dfdad9b2c","h5cyt2f9S1OX67beaN0xZIVItDO2","","","","","","","","","","","","","","","","","","","1536","",""
"html-keyboard-response","84","188969","0.0-37.0-0.0","","1934.8999999761581","<div style=""display: flex; flex-direction: column; align-items: center; margin-top: -40px;""><img src=""images/pattern_5.png"" style=""width: 234px; height: 230px; margin-top: -50px;""><div style=""display: flex; justify-content: space-between; margin-top: 33px;""><img src=""images/choice_trial_7.png"" style=""width: 408px; height: 417px; margin-right: 200px;""><img src=""images/choice_trial_13.png"" style=""width: 408px; height: 417px;""></div></div>","j","delaylearn","learning","trial","60e0dc6be0772b7dfdad9b2c","h5cyt2f9S1OX67beaN0xZIVItDO2","5","images/choice_trial_7.png","images/choice_trial_13.png","images/pattern_5.png","f","f","750","7","13","4","0","16","0","0","13","100","","","","",""
"html-keyboard-response","85","189986","0.0-37.0-1.0","","null","<div style=""display: flex; flex-direction: column; align-items: center; margin-top: -40px;""><img src=""images/pattern_5.png"" style=""width: 234px; height: 230px; margin-top: -50px;""><div style=""display: flex; justify-content: space-between; margin-top: 33px;""><img src=""images/choice_trial_13.png"" style=""width: 408px; height: 417px; margin-left:608px;""></div></div>","null","delaylearn","learning","display_response","60e0dc6be0772b7dfdad9b2c","h5cyt2f9S1OX67beaN0xZIVItDO2","","","","","","","","","","","","","","","","","chosen stimuli: images/choice_trial_13.png","","","",""
"html-keyboard-response","86","190750","0.0-37.0-2.0","","null","","null","delaylearn","learning","feedback_duration_window","60e0dc6be0772b7dfdad9b2c","h5cyt2f9S1OX67beaN0xZIVItDO2","","","","","","","","","","","","","","","","","","750","","",""
"html-keyboard-response","87","192264","0.0-37.0-3.0","","null","<div style='margin:auto;width: auto; font-size: 150%'><span style='font-weight: bold; font-size: 100px; color: red;'>0 points!</span><br><br></div>","null","delaylearn","learning","feedback_image_window","60e0dc6be0772b7dfdad9b2c","h5cyt2f9S1OX67beaN0xZIVItDO2","","","","","","","","","","","","","","","","","","","","",""
"html-keyboard-response","88","192772","0.0-38.0-0.0","","null","","null","","","mood_trial_fixation","","","","","","","","","","","","","","","","","","","","","","",""
"lmdlab-html-vas-response","89","196692","0.0-38.0-1.0","","2909","How happy are you right now?","0.6078296997472908","delaylearn","learning","mood_trial","60e0dc6be0772b7dfdad9b2c","h5cyt2f9S1OX67beaN0xZIVItDO2","","","","","","","","","","","","","","","","","","","","[""Very unhappy"",""Very happy""]",""
"html-keyboard-response","90","199034","0.0-39.0","","null","<div style=""font-size:100px;"">+</div>","null","delaylearn","learning","ITI","60e0dc6be0772b7dfdad9b2c","h5cyt2f9S1OX67beaN0xZIVItDO2","","","","","","","","","","","","","","","","","","","2331","",""
"html-keyboard-response","91","200758","0.0-40.0-0.0","","1720.4000000953674","<div style=""display: flex; flex-direction: column; align-items: center; margin-top: -40px;""><img src=""images/pattern_6.png"" style=""width: 234px; height: 230px; margin-top: -50px;""><div style=""display: flex; justify-content: space-between; margin-top: 33px;""><img src=""images/choice_trial_14.png"" style=""width: 408px; height: 417px; margin-right: 200px;""><img src=""images/choice_trial_9.png"" style=""width: 408px; height: 417px;""></div></div>","j","delaylearn","learning","trial","60e0dc6be0772b7dfdad9b2c","h5cyt2f9S1OX67beaN0xZIVItDO2","5","images/choice_trial_14.png","images/choice_trial_9.png","images/pattern_6.png","f","f","750","14","9","5","0","17","0","0","9","100","","","","",""
"html-keyboard-response","92","201764","0.0-40.0-1.0","","null","<div style=""display: flex; flex-direction: column; align-items: center; margin-top: -40px;""><img src=""images/pattern_6.png"" style=""width: 234px; height: 230px; margin-top: -50px;""><div style=""display: flex; justify-content: space-between; margin-top: 33px;""><img src=""images/choice_trial_9.png"" style=""width: 408px; height: 417px; margin-left:608px;""></div></div>","null","delaylearn","learning","display_response","60e0dc6be0772b7dfdad9b2c","h5cyt2f9S1OX67beaN0xZIVItDO2","","","","","","","","","","","","","","","","","chosen stimuli: images/choice_trial_9.png","","","",""
"html-keyboard-response","93","202527","0.0-40.0-2.0","","null","","null","delaylearn","learning","feedback_duration_window","60e0dc6be0772b7dfdad9b2c","h5cyt2f9S1OX67beaN0xZIVItDO2","","","","","","","","","","","","","","","","","","750","","",""
"html-keyboard-response","94","204036","0.0-40.0-3.0","","null","<div style='margin:auto;width: auto; font-size: 150%'><span style='font-weight: bold; font-size: 100px; color: red;'>0 points!</span><br><br></div>","null","delaylearn","learning","feedback_image_window","60e0dc6be0772b7dfdad9b2c","h5cyt2f9S1OX67beaN0xZIVItDO2","","","","","","","","","","","","","","","","","","","","",""
"html-keyboard-response","95","205973","0.0-41.0","","null","<div style=""font-size:100px;"">+</div>","null","delaylearn","learning","ITI","60e0dc6be0772b7dfdad9b2c","h5cyt2f9S1OX67beaN0xZIVItDO2","","","","","","","","","","","","","","","","","","","1929","",""
"html-keyboard-response","96","207388","0.0-42.0-0.0","","1412.5","<div style=""display: flex; flex-direction: column; align-items: center; margin-top: -40px;""><img src=""images/pattern_4.png"" style=""width: 234px; height: 230px; margin-top: -50px;""><div style=""display: flex; justify-content: space-between; margin-top: 33px;""><img src=""images/choice_trial_4.png"" style=""width: 408px; height: 417px; margin-right: 200px;""><img src=""images/choice_trial_11.png"" style=""width: 408px; height: 417px;""></div></div>","j","delaylearn","learning","trial","60e0dc6be0772b7dfdad9b2c","h5cyt2f9S1OX67beaN0xZIVItDO2","5","images/choice_trial_4.png","images/choice_trial_11.png","images/pattern_4.png","j","j","7000","4","11","3","1","18","1","1","11","110","","","","",""
"html-keyboard-response","97","208402","0.0-42.0-1.0","","null","<div style=""display: flex; flex-direction: column; align-items: center; margin-top: -40px;""><img src=""images/pattern_4.png"" style=""width: 234px; height: 230px; margin-top: -50px;""><div style=""display: flex; justify-content: space-between; margin-top: 33px;""><img src=""images/choice_trial_11.png"" style=""width: 408px; height: 417px; margin-left:608px;""></div></div>","null","delaylearn","learning","display_response","60e0dc6be0772b7dfdad9b2c","h5cyt2f9S1OX67beaN0xZIVItDO2","","","","","","","","","","","","","","","","","chosen stimuli: images/choice_trial_11.png","","","",""
"html-keyboard-response","98","215405","0.0-42.0-2.0","","null","","null","delaylearn","learning","feedback_duration_window","60e0dc6be0772b7dfdad9b2c","h5cyt2f9S1OX67beaN0xZIVItDO2","","","","","","","","","","","","","","","","","","7000","","",""
"html-keyboard-response","99","216908","0.0-42.0-3.0","","null","<div style='margin:auto;width: auto; font-size: 150%'><span style='font-weight: bold; font-size: 100px; color: green;'>+10 points!</span><br><br></div>","null","delaylearn","learning","feedback_image_window","60e0dc6be0772b7dfdad9b2c","h5cyt2f9S1OX67beaN0xZIVItDO2","","","","","","","","","","","","","","","","","","","","",""
"html-keyboard-response","100","218633","0.0-43.0","","null","<div style=""font-size:100px;"">+</div>","null","delaylearn","learning","ITI","60e0dc6be0772b7dfdad9b2c","h5cyt2f9S1OX67beaN0xZIVItDO2","","","","","","","","","","","","","","","","","","","1719","",""
"html-keyboard-response","101","221060","0.0-44.0-0.0","","2423.600000023842","<div style=""display: flex; flex-direction: column; align-items: center; margin-top: -40px;""><img src=""images/pattern_7.png"" style=""width: 234px; height: 230px; margin-top: -50px;""><div style=""display: flex; justify-content: space-between; margin-top: 33px;""><img src=""images/choice_trial_8.png"" style=""width: 408px; height: 417px; margin-right: 200px;""><img src=""images/choice_trial_10.png"" style=""width: 408px; height: 417px;""></div></div>","j","delaylearn","learning","trial","60e0dc6be0772b7dfdad9b2c","h5cyt2f9S1OX67beaN0xZIVItDO2","5","images/choice_trial_8.png","images/choice_trial_10.png","images/pattern_7.png","j","f","750","8","10","6","0","19","0","1","10","120","","","","",""
"html-keyboard-response","102","222077","0.0-44.0-1.0","","null","<div style=""display: flex; flex-direction: column; align-items: center; margin-top: -40px;""><img src=""images/pattern_7.png"" style=""width: 234px; height: 230px; margin-top: -50px;""><div style=""display: flex; justify-content: space-between; margin-top: 33px;""><img src=""images/choice_trial_10.png"" style=""width: 408px; height: 417px; margin-left:608px;""></div></div>","null","delaylearn","learning","display_response","60e0dc6be0772b7dfdad9b2c","h5cyt2f9S1OX67beaN0xZIVItDO2","","","","","","","","","","","","","","","","","chosen stimuli: images/choice_trial_10.png","","","",""
"html-keyboard-response","103","222841","0.0-44.0-2.0","","null","","null","delaylearn","learning","feedback_duration_window","60e0dc6be0772b7dfdad9b2c","h5cyt2f9S1OX67beaN0xZIVItDO2","","","","","","","","","","","","","","","","","","750","","",""
"html-keyboard-response","104","224344","0.0-44.0-3.0","","null","<div style='margin:auto;width: auto; font-size: 150%'><span style='font-weight: bold; font-size: 100px; color: green;'>+10 points!</span><br><br></div>","null","delaylearn","learning","feedback_image_window","60e0dc6be0772b7dfdad9b2c","h5cyt2f9S1OX67beaN0xZIVItDO2","","","","","","","","","","","","","","","","","","","","",""
"html-keyboard-response","105","226527","0.0-45.0","","null","<div style=""font-size:100px;"">+</div>","null","delaylearn","learning","ITI","60e0dc6be0772b7dfdad9b2c","h5cyt2f9S1OX67beaN0xZIVItDO2","","","","","","","","","","","","","","","","","","","2174","",""
"html-keyboard-response","106","228747","0.0-46.0-0.0","","2216.5999999046326","<div style=""display: flex; flex-direction: column; align-items: center; margin-top: -40px;""><img src=""images/pattern_1.png"" style=""width: 234px; height: 230px; margin-top: -50px;""><div style=""display: flex; justify-content: space-between; margin-top: 33px;""><img src=""images/choice_trial_6.png"" style=""width: 408px; height: 417px; margin-right: 200px;""><img src=""images/choice_trial_15.png"" style=""width: 408px; height: 417px;""></div></div>","j","delaylearn","learning","trial","60e0dc6be0772b7dfdad9b2c","h5cyt2f9S1OX67beaN0xZIVItDO2","5","images/choice_trial_6.png","images/choice_trial_15.png","images/pattern_1.png","f","f","7000","6","15","1","0","20","0","0","15","120","","","","",""
"html-keyboard-response","107","229762","0.0-46.0-1.0","","null","<div style=""display: flex; flex-direction: column; align-items: center; margin-top: -40px;""><img src=""images/pattern_1.png"" style=""width: 234px; height: 230px; margin-top: -50px;""><div style=""display: flex; justify-content: space-between; margin-top: 33px;""><img src=""images/choice_trial_15.png"" style=""width: 408px; height: 417px; margin-left:608px;""></div></div>","null","delaylearn","learning","display_response","60e0dc6be0772b7dfdad9b2c","h5cyt2f9S1OX67beaN0xZIVItDO2","","","","","","","","","","","","","","","","","chosen stimuli: images/choice_trial_15.png","","","",""
"html-keyboard-response","108","236775","0.0-46.0-2.0","","null","","null","delaylearn","learning","feedback_duration_window","60e0dc6be0772b7dfdad9b2c","h5cyt2f9S1OX67beaN0xZIVItDO2","","","","","","","","","","","","","","","","","","7000","","",""
"html-keyboard-response","109","238281","0.0-46.0-3.0","","null","<div style='margin:auto;width: auto; font-size: 150%'><span style='font-weight: bold; font-size: 100px; color: red;'>0 points!</span><br><br></div>","null","delaylearn","learning","feedback_image_window","60e0dc6be0772b7dfdad9b2c","h5cyt2f9S1OX67beaN0xZIVItDO2","","","","","","","","","","","","","","","","","","","","",""
"html-keyboard-response","110","240015","0.0-47.0","","null","<div style=""font-size:100px;"">+</div>","null","delaylearn","learning","ITI","60e0dc6be0772b7dfdad9b2c","h5cyt2f9S1OX67beaN0xZIVItDO2","","","","","","","","","","","","","","","","","","","1722","",""
"html-keyboard-response","111","241549","0.0-48.0-0.0","","1531.5","<div style=""display: flex; flex-direction: column; align-items: center; margin-top: -40px;""><img src=""images/pattern_6.png"" style=""width: 234px; height: 230px; margin-top: -50px;""><div style=""display: flex; justify-content: space-between; margin-top: 33px;""><img src=""images/choice_trial_9.png"" style=""width: 408px; height: 417px; margin-right: 200px;""><img src=""images/choice_trial_14.png"" style=""width: 408px; height: 417px;""></div></div>","f","delaylearn","learning","trial","60e0dc6be0772b7dfdad9b2c","h5cyt2f9S1OX67beaN0xZIVItDO2","5","images/choice_trial_9.png","images/choice_trial_14.png","images/pattern_6.png","j","j","750","9","14","5","1","21","0","0","9","120","","","","",""
"html-keyboard-response","112","242566","0.0-48.0-1.0","","null","<div style=""display: flex; flex-direction: column; align-items: center; margin-top: -40px;""><img src=""images/pattern_6.png"" style=""width: 234px; height: 230px; margin-top: -50px;""><div style=""display: flex; justify-content: space-between; margin-top: 33px;""><img src=""images/choice_trial_9.png"" style=""width: 408px; height: 417px; margin-right: 608px;""></div></div>","null","delaylearn","learning","display_response","60e0dc6be0772b7dfdad9b2c","h5cyt2f9S1OX67beaN0xZIVItDO2","","","","","","","","","","","","","","","","","chosen stimuli: images/choice_trial_9.png","","","",""
"html-keyboard-response","113","243325","0.0-48.0-2.0","","null","","null","delaylearn","learning","feedback_duration_window","60e0dc6be0772b7dfdad9b2c","h5cyt2f9S1OX67beaN0xZIVItDO2","","","","","","","","","","","","","","","","","","750","","",""
"html-keyboard-response","114","244829","0.0-48.0-3.0","","null","<div style='margin:auto;width: auto; font-size: 150%'><span style='font-weight: bold; font-size: 100px; color: red;'>0 points!</span><br><br></div>","null","delaylearn","learning","feedback_image_window","60e0dc6be0772b7dfdad9b2c","h5cyt2f9S1OX67beaN0xZIVItDO2","","","","","","","","","","","","","","","","","","","","",""
"html-keyboard-response","115","246597","0.0-49.0","","null","<div style=""font-size:100px;"">+</div>","null","delaylearn","learning","ITI","60e0dc6be0772b7dfdad9b2c","h5cyt2f9S1OX67beaN0xZIVItDO2","","","","","","","","","","","","","","","","","","","1755","",""
"html-keyboard-response","116","248557","0.0-50.0-0.0","","1958.1999999284744","<div style=""display: flex; flex-direction: column; align-items: center; margin-top: -40px;""><img src=""images/pattern_4.png"" style=""width: 234px; height: 230px; margin-top: -50px;""><div style=""display: flex; justify-content: space-between; margin-top: 33px;""><img src=""images/choice_trial_11.png"" style=""width: 408px; height: 417px; margin-right: 200px;""><img src=""images/choice_trial_4.png"" style=""width: 408px; height: 417px;""></div></div>","f","delaylearn","learning","trial","60e0dc6be0772b7dfdad9b2c","h5cyt2f9S1OX67beaN0xZIVItDO2","5","images/choice_trial_11.png","images/choice_trial_4.png","images/pattern_4.png","f","f","7000","11","4","3","0","22","1","1","11","130","","","","",""
"html-keyboard-response","117","249572","0.0-50.0-1.0","","null","<div style=""display: flex; flex-direction: column; align-items: center; margin-top: -40px;""><img src=""images/pattern_4.png"" style=""width: 234px; height: 230px; margin-top: -50px;""><div style=""display: flex; justify-content: space-between; margin-top: 33px;""><img src=""images/choice_trial_11.png"" style=""width: 408px; height: 417px; margin-right: 608px;""></div></div>","null","delaylearn","learning","display_response","60e0dc6be0772b7dfdad9b2c","h5cyt2f9S1OX67beaN0xZIVItDO2","","","","","","","","","","","","","","","","","chosen stimuli: images/choice_trial_11.png","","","",""
"html-keyboard-response","118","256589","0.0-50.0-2.0","","null","","null","delaylearn","learning","feedback_duration_window","60e0dc6be0772b7dfdad9b2c","h5cyt2f9S1OX67beaN0xZIVItDO2","","","","","","","","","","","","","","","","","","7000","","",""
"html-keyboard-response","119","258101","0.0-50.0-3.0","","null","<div style='margin:auto;width: auto; font-size: 150%'><span style='font-weight: bold; font-size: 100px; color: green;'>+10 points!</span><br><br></div>","null","delaylearn","learning","feedback_image_window","60e0dc6be0772b7dfdad9b2c","h5cyt2f9S1OX67beaN0xZIVItDO2","","","","","","","","","","","","","","","","","","","","",""
"html-keyboard-response","120","258611","0.0-51.0-0.0","","null","","null","","","mood_trial_fixation","","","","","","","","","","","","","","","","","","","","","","",""
"lmdlab-html-vas-response","121","262729","0.0-51.0-1.0","","3106","How happy are you right now?","0.7211347639239873","delaylearn","learning","mood_trial","60e0dc6be0772b7dfdad9b2c","h5cyt2f9S1OX67beaN0xZIVItDO2","","","","","","","","","","","","","","","","","","","","[""Very unhappy"",""Very happy""]",""
"html-keyboard-response","122","264821","0.0-52.0","","null","<div style=""font-size:100px;"">+</div>","null","delaylearn","learning","ITI","60e0dc6be0772b7dfdad9b2c","h5cyt2f9S1OX67beaN0xZIVItDO2","","","","","","","","","","","","","","","","","","","2078","",""
"html-keyboard-response","123","266427","0.0-53.0-0.0","","1604.3999999761581","<div style=""display: flex; flex-direction: column; align-items: center; margin-top: -40px;""><img src=""images/pattern_7.png"" style=""width: 234px; height: 230px; margin-top: -50px;""><div style=""display: flex; justify-content: space-between; margin-top: 33px;""><img src=""images/choice_trial_10.png"" style=""width: 408px; height: 417px; margin-right: 200px;""><img src=""images/choice_trial_8.png"" style=""width: 408px; height: 417px;""></div></div>","f","delaylearn","learning","trial","60e0dc6be0772b7dfdad9b2c","h5cyt2f9S1OX67beaN0xZIVItDO2","5","images/choice_trial_10.png","images/choice_trial_8.png","images/pattern_7.png","j","j","750","10","8","6","1","23","0","0","10","130","","","","",""
"html-keyboard-response","124","267437","0.0-53.0-1.0","","null","<div style=""display: flex; flex-direction: column; align-items: center; margin-top: -40px;""><img src=""images/pattern_7.png"" style=""width: 234px; height: 230px; margin-top: -50px;""><div style=""display: flex; justify-content: space-between; margin-top: 33px;""><img src=""images/choice_trial_10.png"" style=""width: 408px; height: 417px; margin-right: 608px;""></div></div>","null","delaylearn","learning","display_response","60e0dc6be0772b7dfdad9b2c","h5cyt2f9S1OX67beaN0xZIVItDO2","","","","","","","","","","","","","","","","","chosen stimuli: images/choice_trial_10.png","","","",""
"html-keyboard-response","125","268189","0.0-53.0-2.0","","null","","null","delaylearn","learning","feedback_duration_window","60e0dc6be0772b7dfdad9b2c","h5cyt2f9S1OX67beaN0xZIVItDO2","","","","","","","","","","","","","","","","","","750","","",""
"html-keyboard-response","126","269695","0.0-53.0-3.0","","null","<div style='margin:auto;width: auto; font-size: 150%'><span style='font-weight: bold; font-size: 100px; color: red;'>0 points!</span><br><br></div>","null","delaylearn","learning","feedback_image_window","60e0dc6be0772b7dfdad9b2c","h5cyt2f9S1OX67beaN0xZIVItDO2","","","","","","","","","","","","","","","","","","","","",""
"html-keyboard-response","127","271655","0.0-54.0","","null","<div style=""font-size:100px;"">+</div>","null","delaylearn","learning","ITI","60e0dc6be0772b7dfdad9b2c","h5cyt2f9S1OX67beaN0xZIVItDO2","","","","","","","","","","","","","","","","","","","1949","",""
"html-keyboard-response","128","273629","0.0-55.0-0.0","","1971.6000000238419","<div style=""display: flex; flex-direction: column; align-items: center; margin-top: -40px;""><img src=""images/pattern_1.png"" style=""width: 234px; height: 230px; margin-top: -50px;""><div style=""display: flex; justify-content: space-between; margin-top: 33px;""><img src=""images/choice_trial_15.png"" style=""width: 408px; height: 417px; margin-right: 200px;""><img src=""images/choice_trial_6.png"" style=""width: 408px; height: 417px;""></div></div>","j","delaylearn","learning","trial","60e0dc6be0772b7dfdad9b2c","h5cyt2f9S1OX67beaN0xZIVItDO2","5","images/choice_trial_15.png","images/choice_trial_6.png","images/pattern_1.png","f","j","7000","15","6","1","1","24","1","0","6","130","","","","",""
"html-keyboard-response","129","274632","0.0-55.0-1.0","","null","<div style=""display: flex; flex-direction: column; align-items: center; margin-top: -40px;""><img src=""images/pattern_1.png"" style=""width: 234px; height: 230px; margin-top: -50px;""><div style=""display: flex; justify-content: space-between; margin-top: 33px;""><img src=""images/choice_trial_6.png"" style=""width: 408px; height: 417px; margin-left:608px;""></div></div>","null","delaylearn","learning","display_response","60e0dc6be0772b7dfdad9b2c","h5cyt2f9S1OX67beaN0xZIVItDO2","","","","","","","","","","","","","","","","","chosen stimuli: images/choice_trial_6.png","","","",""
"html-keyboard-response","130","281646","0.0-55.0-2.0","","null","","null","delaylearn","learning","feedback_duration_window","60e0dc6be0772b7dfdad9b2c","h5cyt2f9S1OX67beaN0xZIVItDO2","","","","","","","","","","","","","","","","","","7000","","",""
"html-keyboard-response","131","283154","0.0-55.0-3.0","","null","<div style='margin:auto;width: auto; font-size: 150%'><span style='font-weight: bold; font-size: 100px; color: red;'>0 points!</span><br><br></div>","null","delaylearn","learning","feedback_image_window","60e0dc6be0772b7dfdad9b2c","h5cyt2f9S1OX67beaN0xZIVItDO2","","","","","","","","","","","","","","","","","","","","",""
"html-keyboard-response","132","285237","0.0-56.0","","null","<div style=""font-size:100px;"">+</div>","null","delaylearn","learning","ITI","60e0dc6be0772b7dfdad9b2c","h5cyt2f9S1OX67beaN0xZIVItDO2","","","","","","","","","","","","","","","","","","","2077","",""
"html-keyboard-response","133","286389","0.0-57.0-0.0","","1148.6000000238419","<div style=""display: flex; flex-direction: column; align-items: center; margin-top: -40px;""><img src=""images/pattern_5.png"" style=""width: 234px; height: 230px; margin-top: -50px;""><div style=""display: flex; justify-content: space-between; margin-top: 33px;""><img src=""images/choice_trial_13.png"" style=""width: 408px; height: 417px; margin-right: 200px;""><img src=""images/choice_trial_7.png"" style=""width: 408px; height: 417px;""></div></div>","f","delaylearn","learning","trial","60e0dc6be0772b7dfdad9b2c","h5cyt2f9S1OX67beaN0xZIVItDO2","5","images/choice_trial_13.png","images/choice_trial_7.png","images/pattern_5.png","j","j","750","13","7","4","1","25","0","0","13","130","","","","",""
"html-keyboard-response","134","287396","0.0-57.0-1.0","","null","<div style=""display: flex; flex-direction: column; align-items: center; margin-top: -40px;""><img src=""images/pattern_5.png"" style=""width: 234px; height: 230px; margin-top: -50px;""><div style=""display: flex; justify-content: space-between; margin-top: 33px;""><img src=""images/choice_trial_13.png"" style=""width: 408px; height: 417px; margin-right: 608px;""></div></div>","null","delaylearn","learning","display_response","60e0dc6be0772b7dfdad9b2c","h5cyt2f9S1OX67beaN0xZIVItDO2","","","","","","","","","","","","","","","","","chosen stimuli: images/choice_trial_13.png","","","",""
"html-keyboard-response","135","288163","0.0-57.0-2.0","","null","","null","delaylearn","learning","feedback_duration_window","60e0dc6be0772b7dfdad9b2c","h5cyt2f9S1OX67beaN0xZIVItDO2","","","","","","","","","","","","","","","","","","750","","",""
"html-keyboard-response","136","289667","0.0-57.0-3.0","","null","<div style='margin:auto;width: auto; font-size: 150%'><span style='font-weight: bold; font-size: 100px; color: red;'>0 points!</span><br><br></div>","null","delaylearn","learning","feedback_image_window","60e0dc6be0772b7dfdad9b2c","h5cyt2f9S1OX67beaN0xZIVItDO2","","","","","","","","","","","","","","","","","","","","",""
"html-keyboard-response","137","291813","0.0-58.0","","null","<div style=""font-size:100px;"">+</div>","null","delaylearn","learning","ITI","60e0dc6be0772b7dfdad9b2c","h5cyt2f9S1OX67beaN0xZIVItDO2","","","","","","","","","","","","","","","","","","","2135","",""
"html-keyboard-response","138","293428","0.0-59.0-0.0","","1611.6999999284744","<div style=""display: flex; flex-direction: column; align-items: center; margin-top: -40px;""><img src=""images/pattern_3.png"" style=""width: 234px; height: 230px; margin-top: -50px;""><div style=""display: flex; justify-content: space-between; margin-top: 33px;""><img src=""images/choice_trial_2.png"" style=""width: 408px; height: 417px; margin-right: 200px;""><img src=""images/choice_trial_16.png"" style=""width: 408px; height: 417px;""></div></div>","j","delaylearn","learning","trial","60e0dc6be0772b7dfdad9b2c","h5cyt2f9S1OX67beaN0xZIVItDO2","5","images/choice_trial_2.png","images/choice_trial_16.png","images/pattern_3.png","j","j","7000","2","16","2","1","26","1","1","16","140","","","","",""
"html-keyboard-response","139","294437","0.0-59.0-1.0","","null","<div style=""display: flex; flex-direction: column; align-items: center; margin-top: -40px;""><img src=""images/pattern_3.png"" style=""width: 234px; height: 230px; margin-top: -50px;""><div style=""display: flex; justify-content: space-between; margin-top: 33px;""><img src=""images/choice_trial_16.png"" style=""width: 408px; height: 417px; margin-left:608px;""></div></div>","null","delaylearn","learning","display_response","60e0dc6be0772b7dfdad9b2c","h5cyt2f9S1OX67beaN0xZIVItDO2","","","","","","","","","","","","","","","","","chosen stimuli: images/choice_trial_16.png","","","",""
"html-keyboard-response","140","301454","0.0-59.0-2.0","","null","","null","delaylearn","learning","feedback_duration_window","60e0dc6be0772b7dfdad9b2c","h5cyt2f9S1OX67beaN0xZIVItDO2","","","","","","","","","","","","","","","","","","7000","","",""
"html-keyboard-response","141","302972","0.0-59.0-3.0","","null","<div style='margin:auto;width: auto; font-size: 150%'><span style='font-weight: bold; font-size: 100px; color: green;'>+10 points!</span><br><br></div>","null","delaylearn","learning","feedback_image_window","60e0dc6be0772b7dfdad9b2c","h5cyt2f9S1OX67beaN0xZIVItDO2","","","","","","","","","","","","","","","","","","","","",""
"lmdlab-html-vas-response","142","314016","0.0-60.0-0.0","","9515","*How <b><u>confident</u></b> are you feeling about your answers at this moment?*","0.5657971759398067","rewlearn","rate_confidence","","60e0dc6be0772b7dfdad9b2c","h5cyt2f9S1OX67beaN0xZIVItDO2","","","","","","","","","","","","","","","","","","","","[""No confidence"",""Complete confidence""]",""
"lmdlab-rest-trial-limit","143","378558","0.0-60.0-1.0","","63029.40000009537","<div style=""font-size:40px;""><b>Please take a break!</b><br><br><br><br><p>Great work: you earned 140 points.<br><br><br><p>You have completed part(s) 1 of 5.<br><br><br><br>When you are ready to continue<br><br><br>please click the button.</p><br><br>","0","delaylearn","learning","break","60e0dc6be0772b7dfdad9b2c","h5cyt2f9S1OX67beaN0xZIVItDO2","","","","","","","","","","","","","","","","","","","","","0"
"html-keyboard-response","144","381566","0.0-60.0-2.0","","null","<div style=""font-size:100px;"">+</div>","null","delaylearn","learning","pre_fixation","60e0dc6be0772b7dfdad9b2c","","","","","","","","","","","","","","","","","","","","","",""
"lmdlab-html-vas-response","145","386374","0.0-60.0-3.0-0.0","","3800","How happy are you right now?","0.880127353978384","delaylearn","learning","mood_baseline","60e0dc6be0772b7dfdad9b2c","h5cyt2f9S1OX67beaN0xZIVItDO2","","","","","","","","","","","","","","","","","","","","[""Very unhappy"",""Very happy""]",""
"html-keyboard-response","146","387883","0.0-60.0-3.0-1.0","","null","","null","","","mood_baseline_fixation","","","","","","","","","","","","","","","","","","","","","","",""
"html-keyboard-response","147","389648","0.0-61.0","","null","<div style=""font-size:100px;"">+</div>","null","delaylearn","learning","ITI","60e0dc6be0772b7dfdad9b2c","h5cyt2f9S1OX67beaN0xZIVItDO2","","","","","","","","","","","","","","","","","","","1756","",""
"html-keyboard-response","148","391638","0.0-62.0-0.0","","1987.3999999761581","<div style=""display: flex; flex-direction: column; align-items: center; margin-top: -40px;""><img src=""images/pattern_7.png"" style=""width: 234px; height: 230px; margin-top: -50px;""><div style=""display: flex; justify-content: space-between; margin-top: 33px;""><img src=""images/choice_trial_10.png"" style=""width: 408px; height: 417px; margin-right: 200px;""><img src=""images/choice_trial_8.png"" style=""width: 408px; height: 417px;""></div></div>","j","delaylearn","learning","trial","60e0dc6be0772b7dfdad9b2c","h5cyt2f9S1OX67beaN0xZIVItDO2","5","images/choice_trial_10.png","images/choice_trial_8.png","images/pattern_7.png","j","j","750","10","8","6","1","27","1","1","8","150","","","","",""
"html-keyboard-response","149","392641","0.0-62.0-1.0","","null","<div style=""display: flex; flex-direction: column; align-items: center; margin-top: -40px;""><img src=""images/pattern_7.png"" style=""width: 234px; height: 230px; margin-top: -50px;""><div style=""display: flex; justify-content: space-between; margin-top: 33px;""><img src=""images/choice_trial_8.png"" style=""width: 408px; height: 417px; margin-left:608px;""></div></div>","null","delaylearn","learning","display_response","60e0dc6be0772b7dfdad9b2c","h5cyt2f9S1OX67beaN0xZIVItDO2","","","","","","","","","","","","","","","","","chosen stimuli: images/choice_trial_8.png","","","",""
"html-keyboard-response","150","393406","0.0-62.0-2.0","","null","","null","delaylearn","learning","feedback_duration_window","60e0dc6be0772b7dfdad9b2c","h5cyt2f9S1OX67beaN0xZIVItDO2","","","","","","","","","","","","","","","","","","750","","",""
"html-keyboard-response","151","394915","0.0-62.0-3.0","","null","<div style='margin:auto;width: auto; font-size: 150%'><span style='font-weight: bold; font-size: 100px; color: green;'>+10 points!</span><br><br></div>","null","delaylearn","learning","feedback_image_window","60e0dc6be0772b7dfdad9b2c","h5cyt2f9S1OX67beaN0xZIVItDO2","","","","","","","","","","","","","","","","","","","","",""
"html-keyboard-response","152","395422","0.0-63.0-0.0","","null","","null","","","mood_trial_fixation","","","","","","","","","","","","","","","","","","","","","","",""
"lmdlab-html-vas-response","153","399484","0.0-63.0-1.0","","3048","How happy are you right now?","0.843577333276224","delaylearn","learning","mood_trial","60e0dc6be0772b7dfdad9b2c","h5cyt2f9S1OX67beaN0xZIVItDO2","","","","","","","","","","","","","","","","","","","","[""Very unhappy"",""Very happy""]",""
"html-keyboard-response","154","401256","0.0-64.0","","null","<div style=""font-size:100px;"">+</div>","null","delaylearn","learning","ITI","60e0dc6be0772b7dfdad9b2c","h5cyt2f9S1OX67beaN0xZIVItDO2","","","","","","","","","","","","","","","","","","","1764","",""
"html-keyboard-response","155","402805","0.0-65.0-0.0","","1546.0999999046326","<div style=""display: flex; flex-direction: column; align-items: center; margin-top: -40px;""><img src=""images/pattern_1.png"" style=""width: 234px; height: 230px; margin-top: -50px;""><div style=""display: flex; justify-content: space-between; margin-top: 33px;""><img src=""images/choice_trial_6.png"" style=""width: 408px; height: 417px; margin-right: 200px;""><img src=""images/choice_trial_15.png"" style=""width: 408px; height: 417px;""></div></div>","j","delaylearn","learning","trial","60e0dc6be0772b7dfdad9b2c","h5cyt2f9S1OX67beaN0xZIVItDO2","5","images/choice_trial_6.png","images/choice_trial_15.png","images/pattern_1.png","f","f","7000","6","15","1","0","28","0","0","15","150","","","","",""
"html-keyboard-response","156","403807","0.0-65.0-1.0","","null","<div style=""display: flex; flex-direction: column; align-items: center; margin-top: -40px;""><img src=""images/pattern_1.png"" style=""width: 234px; height: 230px; margin-top: -50px;""><div style=""display: flex; justify-content: space-between; margin-top: 33px;""><img src=""images/choice_trial_15.png"" style=""width: 408px; height: 417px; margin-left:608px;""></div></div>","null","delaylearn","learning","display_response","60e0dc6be0772b7dfdad9b2c","h5cyt2f9S1OX67beaN0xZIVItDO2","","","","","","","","","","","","","","","","","chosen stimuli: images/choice_trial_15.png","","","",""
"html-keyboard-response","157","410817","0.0-65.0-2.0","","null","","null","delaylearn","learning","feedback_duration_window","60e0dc6be0772b7dfdad9b2c","h5cyt2f9S1OX67beaN0xZIVItDO2","","","","","","","","","","","","","","","","","","7000","","",""
"html-keyboard-response","158","412322","0.0-65.0-3.0","","null","<div style='margin:auto;width: auto; font-size: 150%'><span style='font-weight: bold; font-size: 100px; color: red;'>0 points!</span><br><br></div>","null","delaylearn","learning","feedback_image_window","60e0dc6be0772b7dfdad9b2c","h5cyt2f9S1OX67beaN0xZIVItDO2","","","","","","","","","","","","","","","","","","","","",""
"html-keyboard-response","159","413989","0.0-66.0","","null","<div style=""font-size:100px;"">+</div>","null","delaylearn","learning","ITI","60e0dc6be0772b7dfdad9b2c","h5cyt2f9S1OX67beaN0xZIVItDO2","","","","","","","","","","","","","","","","","","","1657","",""
"html-keyboard-response","160","415908","0.0-67.0-0.0","","1916","<div style=""display: flex; flex-direction: column; align-items: center; margin-top: -40px;""><img src=""images/pattern_5.png"" style=""width: 234px; height: 230px; margin-top: -50px;""><div style=""display: flex; justify-content: space-between; margin-top: 33px;""><img src=""images/choice_trial_7.png"" style=""width: 408px; height: 417px; margin-right: 200px;""><img src=""images/choice_trial_13.png"" style=""width: 408px; height: 417px;""></div></div>","j","delaylearn","learning","trial","60e0dc6be0772b7dfdad9b2c","h5cyt2f9S1OX67beaN0xZIVItDO2","5","images/choice_trial_7.png","images/choice_trial_13.png","images/pattern_5.png","f","f","750","7","13","4","0","29","0","0","13","150","","","","",""
"html-keyboard-response","161","416914","0.0-67.0-1.0","","null","<div style=""display: flex; flex-direction: column; align-items: center; margin-top: -40px;""><img src=""images/pattern_5.png"" style=""width: 234px; height: 230px; margin-top: -50px;""><div style=""display: flex; justify-content: space-between; margin-top: 33px;""><img src=""images/choice_trial_13.png"" style=""width: 408px; height: 417px; margin-left:608px;""></div></div>","null","delaylearn","learning","display_response","60e0dc6be0772b7dfdad9b2c","h5cyt2f9S1OX67beaN0xZIVItDO2","","","","","","","","","","","","","","","","","chosen stimuli: images/choice_trial_13.png","","","",""
"html-keyboard-response","162","417667","0.0-67.0-2.0","","null","","null","delaylearn","learning","feedback_duration_window","60e0dc6be0772b7dfdad9b2c","h5cyt2f9S1OX67beaN0xZIVItDO2","","","","","","","","","","","","","","","","","","750","","",""
"html-keyboard-response","163","419178","0.0-67.0-3.0","","null","<div style='margin:auto;width: auto; font-size: 150%'><span style='font-weight: bold; font-size: 100px; color: red;'>0 points!</span><br><br></div>","null","delaylearn","learning","feedback_image_window","60e0dc6be0772b7dfdad9b2c","h5cyt2f9S1OX67beaN0xZIVItDO2","","","","","","","","","","","","","","","","","","","","",""
"html-keyboard-response","164","421254","0.0-68.0","","null","<div style=""font-size:100px;"">+</div>","null","delaylearn","learning","ITI","60e0dc6be0772b7dfdad9b2c","h5cyt2f9S1OX67beaN0xZIVItDO2","","","","","","","","","","","","","","","","","","","2059","",""
"html-keyboard-response","165","423736","0.0-69.0-0.0","","2478.100000023842","<div style=""display: flex; flex-direction: column; align-items: center; margin-top: -40px;""><img src=""images/pattern_6.png"" style=""width: 234px; height: 230px; margin-top: -50px;""><div style=""display: flex; justify-content: space-between; margin-top: 33px;""><img src=""images/choice_trial_9.png"" style=""width: 408px; height: 417px; margin-right: 200px;""><img src=""images/choice_trial_14.png"" style=""width: 408px; height: 417px;""></div></div>","f","delaylearn","learning","trial","60e0dc6be0772b7dfdad9b2c","h5cyt2f9S1OX67beaN0xZIVItDO2","5","images/choice_trial_9.png","images/choice_trial_14.png","images/pattern_6.png","j","j","750","9","14","5","1","30","0","0","9","150","","","","",""
"html-keyboard-response","166","424740","0.0-69.0-1.0","","null","<div style=""display: flex; flex-direction: column; align-items: center; margin-top: -40px;""><img src=""images/pattern_6.png"" style=""width: 234px; height: 230px; margin-top: -50px;""><div style=""display: flex; justify-content: space-between; margin-top: 33px;""><img src=""images/choice_trial_9.png"" style=""width: 408px; height: 417px; margin-right: 608px;""></div></div>","null","delaylearn","learning","display_response","60e0dc6be0772b7dfdad9b2c","h5cyt2f9S1OX67beaN0xZIVItDO2","","","","","","","","","","","","","","","","","chosen stimuli: images/choice_trial_9.png","","","",""
"html-keyboard-response","167","425504","0.0-69.0-2.0","","null","","null","delaylearn","learning","feedback_duration_window","60e0dc6be0772b7dfdad9b2c","h5cyt2f9S1OX67beaN0xZIVItDO2","","","","","","","","","","","","","","","","","","750","","",""
"html-keyboard-response","168","427014","0.0-69.0-3.0","","null","<div style='margin:auto;width: auto; font-size: 150%'><span style='font-weight: bold; font-size: 100px; color: red;'>0 points!</span><br><br></div>","null","delaylearn","learning","feedback_image_window","60e0dc6be0772b7dfdad9b2c","h5cyt2f9S1OX67beaN0xZIVItDO2","","","","","","","","","","","","","","","","","","","","",""
"html-keyboard-response","169","427527","0.0-70.0-0.0","","null","","null","","","mood_trial_fixation","","","","","","","","","","","","","","","","","","","","","","",""
"lmdlab-html-vas-response","170","431086","0.0-70.0-1.0","","2554","How happy are you right now?","0.4506646107280022","delaylearn","learning","mood_trial","60e0dc6be0772b7dfdad9b2c","h5cyt2f9S1OX67beaN0xZIVItDO2","","","","","","","","","","","","","","","","","","","","[""Very unhappy"",""Very happy""]",""
"html-keyboard-response","171","433481","0.0-71.0","","null","<div style=""font-size:100px;"">+</div>","null","delaylearn","learning","ITI","60e0dc6be0772b7dfdad9b2c","h5cyt2f9S1OX67beaN0xZIVItDO2","","","","","","","","","","","","","","","","","","","2379","",""
"html-keyboard-response","172","434876","0.0-72.0-0.0","","1391.7000000476837","<div style=""display: flex; flex-direction: column; align-items: center; margin-top: -40px;""><img src=""images/pattern_4.png"" style=""width: 234px; height: 230px; margin-top: -50px;""><div style=""display: flex; justify-content: space-between; margin-top: 33px;""><img src=""images/choice_trial_4.png"" style=""width: 408px; height: 417px; margin-right: 200px;""><img src=""images/choice_trial_11.png"" style=""width: 408px; height: 417px;""></div></div>","j","delaylearn","learning","trial","60e0dc6be0772b7dfdad9b2c","h5cyt2f9S1OX67beaN0xZIVItDO2","5","images/choice_trial_4.png","images/choice_trial_11.png","images/pattern_4.png","j","j","7000","4","11","3","1","31","1","1","11","160","","","","",""
"html-keyboard-response","173","435890","0.0-72.0-1.0","","null","<div style=""display: flex; flex-direction: column; align-items: center; margin-top: -40px;""><img src=""images/pattern_4.png"" style=""width: 234px; height: 230px; margin-top: -50px;""><div style=""display: flex; justify-content: space-between; margin-top: 33px;""><img src=""images/choice_trial_11.png"" style=""width: 408px; height: 417px; margin-left:608px;""></div></div>","null","delaylearn","learning","display_response","60e0dc6be0772b7dfdad9b2c","h5cyt2f9S1OX67beaN0xZIVItDO2","","","","","","","","","","","","","","","","","chosen stimuli: images/choice_trial_11.png","","","",""
"html-keyboard-response","174","442898","0.0-72.0-2.0","","null","","null","delaylearn","learning","feedback_duration_window","60e0dc6be0772b7dfdad9b2c","h5cyt2f9S1OX67beaN0xZIVItDO2","","","","","","","","","","","","","","","","","","7000","","",""
"html-keyboard-response","175","444401","0.0-72.0-3.0","","null","<div style='margin:auto;width: auto; font-size: 150%'><span style='font-weight: bold; font-size: 100px; color: green;'>+10 points!</span><br><br></div>","null","delaylearn","learning","feedback_image_window","60e0dc6be0772b7dfdad9b2c","h5cyt2f9S1OX67beaN0xZIVItDO2","","","","","","","","","","","","","","","","","","","","",""
"html-keyboard-response","176","446691","0.0-73.0","","null","<div style=""font-size:100px;"">+</div>","null","delaylearn","learning","ITI","60e0dc6be0772b7dfdad9b2c","h5cyt2f9S1OX67beaN0xZIVItDO2","","","","","","","","","","","","","","","","","","","2273","",""
"html-keyboard-response","177","449696","0.0-74.0-0.0","","null","<div style=""display: flex; flex-direction: column; align-items: center; margin-top: -40px;""><img src=""images/pattern_3.png"" style=""width: 234px; height: 230px; margin-top: -50px;""><div style=""display: flex; justify-content: space-between; margin-top: 33px;""><img src=""images/choice_trial_2.png"" style=""width: 408px; height: 417px; margin-right: 200px;""><img src=""images/choice_trial_16.png"" style=""width: 408px; height: 417px;""></div></div>","null","delaylearn","learning","trial","60e0dc6be0772b7dfdad9b2c","h5cyt2f9S1OX67beaN0xZIVItDO2","5","images/choice_trial_2.png","images/choice_trial_16.png","images/pattern_3.png","j","j","7000","2","16","2","1","32","0","0","0","160","","","","",""
"html-keyboard-response","178","450713","0.0-74.0-1.0","","null","<div style='font-weight: bold; font-size: 75px; color: red;'>Missed Trial <br><br><br><br> Please respond faster</div>","null","delaylearn","learning","display_response","60e0dc6be0772b7dfdad9b2c","h5cyt2f9S1OX67beaN0xZIVItDO2","","","","","","","","","","","","","","","","","Missed trial","","","",""
"html-keyboard-response","179","450721","0.0-74.0-2.0","","null","","null","delaylearn","learning","feedback_duration_window","60e0dc6be0772b7dfdad9b2c","h5cyt2f9S1OX67beaN0xZIVItDO2","","","","","","","","","","","","","","","","","","0","","",""
"html-keyboard-response","180","450728","0.0-74.0-3.0","","null","","null","delaylearn","learning","feedback_image_window","60e0dc6be0772b7dfdad9b2c","h5cyt2f9S1OX67beaN0xZIVItDO2","","","","","","","","","","","","","","","","","","","","",""
"html-keyboard-response","181","452727","0.0-75.0","","null","<div style=""font-size:100px;"">+</div>","null","delaylearn","learning","ITI","60e0dc6be0772b7dfdad9b2c","h5cyt2f9S1OX67beaN0xZIVItDO2","","","","","","","","","","","","","","","","","","","1986","",""
"html-keyboard-response","182","454225","0.0-76.0-0.0","","1495.9000000953674","<div style=""display: flex; flex-direction: column; align-items: center; margin-top: -40px;""><img src=""images/pattern_5.png"" style=""width: 234px; height: 230px; margin-top: -50px;""><div style=""display: flex; justify-content: space-between; margin-top: 33px;""><img src=""images/choice_trial_7.png"" style=""width: 408px; height: 417px; margin-right: 200px;""><img src=""images/choice_trial_13.png"" style=""width: 408px; height: 417px;""></div></div>","j","delaylearn","learning","trial","60e0dc6be0772b7dfdad9b2c","h5cyt2f9S1OX67beaN0xZIVItDO2","5","images/choice_trial_7.png","images/choice_trial_13.png","images/pattern_5.png","j","f","750","7","13","4","0","33","0","1","13","170","","","","",""
"html-keyboard-response","183","455237","0.0-76.0-1.0","","null","<div style=""display: flex; flex-direction: column; align-items: center; margin-top: -40px;""><img src=""images/pattern_5.png"" style=""width: 234px; height: 230px; margin-top: -50px;""><div style=""display: flex; justify-content: space-between; margin-top: 33px;""><img src=""images/choice_trial_13.png"" style=""width: 408px; height: 417px; margin-left:608px;""></div></div>","null","delaylearn","learning","display_response","60e0dc6be0772b7dfdad9b2c","h5cyt2f9S1OX67beaN0xZIVItDO2","","","","","","","","","","","","","","","","","chosen stimuli: images/choice_trial_13.png","","","",""
"html-keyboard-response","184","455992","0.0-76.0-2.0","","null","","null","delaylearn","learning","feedback_duration_window","60e0dc6be0772b7dfdad9b2c","h5cyt2f9S1OX67beaN0xZIVItDO2","","","","","","","","","","","","","","","","","","750","","",""
"html-keyboard-response","185","457495","0.0-76.0-3.0","","null","<div style='margin:auto;width: auto; font-size: 150%'><span style='font-weight: bold; font-size: 100px; color: green;'>+10 points!</span><br><br></div>","null","delaylearn","learning","feedback_image_window","60e0dc6be0772b7dfdad9b2c","h5cyt2f9S1OX67beaN0xZIVItDO2","","","","","","","","","","","","","","","","","","","","",""
"html-keyboard-response","186","459386","0.0-77.0","","null","<div style=""font-size:100px;"">+</div>","null","delaylearn","learning","ITI","60e0dc6be0772b7dfdad9b2c","h5cyt2f9S1OX67beaN0xZIVItDO2","","","","","","","","","","","","","","","","","","","1881","",""
"html-keyboard-response","187","460657","0.0-78.0-0.0","","1268.1000000238419","<div style=""display: flex; flex-direction: column; align-items: center; margin-top: -40px;""><img src=""images/pattern_1.png"" style=""width: 234px; height: 230px; margin-top: -50px;""><div style=""display: flex; justify-content: space-between; margin-top: 33px;""><img src=""images/choice_trial_6.png"" style=""width: 408px; height: 417px; margin-right: 200px;""><img src=""images/choice_trial_15.png"" style=""width: 408px; height: 417px;""></div></div>","j","delaylearn","learning","trial","60e0dc6be0772b7dfdad9b2c","h5cyt2f9S1OX67beaN0xZIVItDO2","5","images/choice_trial_6.png","images/choice_trial_15.png","images/pattern_1.png","f","f","7000","6","15","1","0","34","0","0","15","170","","","","",""
"html-keyboard-response","188","461672","0.0-78.0-1.0","","null","<div style=""display: flex; flex-direction: column; align-items: center; margin-top: -40px;""><img src=""images/pattern_1.png"" style=""width: 234px; height: 230px; margin-top: -50px;""><div style=""display: flex; justify-content: space-between; margin-top: 33px;""><img src=""images/choice_trial_15.png"" style=""width: 408px; height: 417px; margin-left:608px;""></div></div>","null","delaylearn","learning","display_response","60e0dc6be0772b7dfdad9b2c","h5cyt2f9S1OX67beaN0xZIVItDO2","","","","","","","","","","","","","","","","","chosen stimuli: images/choice_trial_15.png","","","",""
"html-keyboard-response","189","468689","0.0-78.0-2.0","","null","","null","delaylearn","learning","feedback_duration_window","60e0dc6be0772b7dfdad9b2c","h5cyt2f9S1OX67beaN0xZIVItDO2","","","","","","","","","","","","","","","","","","7000","","",""
"html-keyboard-response","190","470197","0.0-78.0-3.0","","null","<div style='margin:auto;width: auto; font-size: 150%'><span style='font-weight: bold; font-size: 100px; color: red;'>0 points!</span><br><br></div>","null","delaylearn","learning","feedback_image_window","60e0dc6be0772b7dfdad9b2c","h5cyt2f9S1OX67beaN0xZIVItDO2","","","","","","","","","","","","","","","","","","","","",""
"html-keyboard-response","191","470699","0.0-79.0-0.0","","null","","null","","","mood_trial_fixation","","","","","","","","","","","","","","","","","","","","","","",""
"lmdlab-html-vas-response","192","475069","0.0-79.0-1.0","","3364","How happy are you right now?","0.5127996459216745","delaylearn","learning","mood_trial","60e0dc6be0772b7dfdad9b2c","h5cyt2f9S1OX67beaN0xZIVItDO2","","","","","","","","","","","","","","","","","","","","[""Very unhappy"",""Very happy""]",""
"html-keyboard-response","193","476588","0.0-80.0","","null","<div style=""font-size:100px;"">+</div>","null","delaylearn","learning","ITI","60e0dc6be0772b7dfdad9b2c","h5cyt2f9S1OX67beaN0xZIVItDO2","","","","","","","","","","","","","","","","","","","1514","",""
"html-keyboard-response","194","477505","0.0-81.0-0.0","","914.3000000715256","<div style=""display: flex; flex-direction: column; align-items: center; margin-top: -40px;""><img src=""images/pattern_6.png"" style=""width: 234px; height: 230px; margin-top: -50px;""><div style=""display: flex; justify-content: space-between; margin-top: 33px;""><img src=""images/choice_trial_14.png"" style=""width: 408px; height: 417px; margin-right: 200px;""><img src=""images/choice_trial_9.png"" style=""width: 408px; height: 417px;""></div></div>","j","delaylearn","learning","trial","60e0dc6be0772b7dfdad9b2c","h5cyt2f9S1OX67beaN0xZIVItDO2","5","images/choice_trial_14.png","images/choice_trial_9.png","images/pattern_6.png","j","f","750","14","9","5","0","35","0","1","9","180","","","","",""
"html-keyboard-response","195","478508","0.0-81.0-1.0","","null","<div style=""display: flex; flex-direction: column; align-items: center; margin-top: -40px;""><img src=""images/pattern_6.png"" style=""width: 234px; height: 230px; margin-top: -50px;""><div style=""display: flex; justify-content: space-between; margin-top: 33px;""><img src=""images/choice_trial_9.png"" style=""width: 408px; height: 417px; margin-left:608px;""></div></div>","null","delaylearn","learning","display_response","60e0dc6be0772b7dfdad9b2c","h5cyt2f9S1OX67beaN0xZIVItDO2","","","","","","","","","","","","","","","","","chosen stimuli: images/choice_trial_9.png","","","",""
"html-keyboard-response","196","479261","0.0-81.0-2.0","","null","","null","delaylearn","learning","feedback_duration_window","60e0dc6be0772b7dfdad9b2c","h5cyt2f9S1OX67beaN0xZIVItDO2","","","","","","","","","","","","","","","","","","750","","",""
"html-keyboard-response","197","480776","0.0-81.0-3.0","","null","<div style='margin:auto;width: auto; font-size: 150%'><span style='font-weight: bold; font-size: 100px; color: green;'>+10 points!</span><br><br></div>","null","delaylearn","learning","feedback_image_window","60e0dc6be0772b7dfdad9b2c","h5cyt2f9S1OX67beaN0xZIVItDO2","","","","","","","","","","","","","","","","","","","","",""
"html-keyboard-response","198","482896","0.0-82.0","","null","<div style=""font-size:100px;"">+</div>","null","delaylearn","learning","ITI","60e0dc6be0772b7dfdad9b2c","h5cyt2f9S1OX67beaN0xZIVItDO2","","","","","","","","","","","","","","","","","","","2116","",""
"html-keyboard-response","199","484097","0.0-83.0-0.0","","1197.6000000238419","<div style=""display: flex; flex-direction: column; align-items: center; margin-top: -40px;""><img src=""images/pattern_3.png"" style=""width: 234px; height: 230px; margin-top: -50px;""><div style=""display: flex; justify-content: space-between; margin-top: 33px;""><img src=""images/choice_trial_2.png"" style=""width: 408px; height: 417px; margin-right: 200px;""><img src=""images/choice_trial_16.png"" style=""width: 408px; height: 417px;""></div></div>","j","delaylearn","learning","trial","60e0dc6be0772b7dfdad9b2c","h5cyt2f9S1OX67beaN0xZIVItDO2","5","images/choice_trial_2.png","images/choice_trial_16.png","images/pattern_3.png","j","j","7000","2","16","2","1","36","1","1","16","190","","","","",""
"html-keyboard-response","200","485102","0.0-83.0-1.0","","null","<div style=""display: flex; flex-direction: column; align-items: center; margin-top: -40px;""><img src=""images/pattern_3.png"" style=""width: 234px; height: 230px; margin-top: -50px;""><div style=""display: flex; justify-content: space-between; margin-top: 33px;""><img src=""images/choice_trial_16.png"" style=""width: 408px; height: 417px; margin-left:608px;""></div></div>","null","delaylearn","learning","display_response","60e0dc6be0772b7dfdad9b2c","h5cyt2f9S1OX67beaN0xZIVItDO2","","","","","","","","","","","","","","","","","chosen stimuli: images/choice_trial_16.png","","","",""
"html-keyboard-response","201","492106","0.0-83.0-2.0","","null","","null","delaylearn","learning","feedback_duration_window","60e0dc6be0772b7dfdad9b2c","h5cyt2f9S1OX67beaN0xZIVItDO2","","","","","","","","","","","","","","","","","","7000","","",""
"html-keyboard-response","202","493616","0.0-83.0-3.0","","null","<div style='margin:auto;width: auto; font-size: 150%'><span style='font-weight: bold; font-size: 100px; color: green;'>+10 points!</span><br><br></div>","null","delaylearn","learning","feedback_image_window","60e0dc6be0772b7dfdad9b2c","h5cyt2f9S1OX67beaN0xZIVItDO2","","","","","","","","","","","","","","","","","","","","",""
"html-keyboard-response","203","495158","0.0-84.0","","null","<div style=""font-size:100px;"">+</div>","null","delaylearn","learning","ITI","60e0dc6be0772b7dfdad9b2c","h5cyt2f9S1OX67beaN0xZIVItDO2","","","","","","","","","","","","","","","","","","","1529","",""
"html-keyboard-response","204","496997","0.0-85.0-0.0","","1836","<div style=""display: flex; flex-direction: column; align-items: center; margin-top: -40px;""><img src=""images/pattern_4.png"" style=""width: 234px; height: 230px; margin-top: -50px;""><div style=""display: flex; justify-content: space-between; margin-top: 33px;""><img src=""images/choice_trial_4.png"" style=""width: 408px; height: 417px; margin-right: 200px;""><img src=""images/choice_trial_11.png"" style=""width: 408px; height: 417px;""></div></div>","j","delaylearn","learning","trial","60e0dc6be0772b7dfdad9b2c","h5cyt2f9S1OX67beaN0xZIVItDO2","5","images/choice_trial_4.png","images/choice_trial_11.png","images/pattern_4.png","f","j","7000","4","11","3","1","37","1","0","11","190","","","","",""
"html-keyboard-response","205","498014","0.0-85.0-1.0","","null","<div style=""display: flex; flex-direction: column; align-items: center; margin-top: -40px;""><img src=""images/pattern_4.png"" style=""width: 234px; height: 230px; margin-top: -50px;""><div style=""display: flex; justify-content: space-between; margin-top: 33px;""><img src=""images/choice_trial_11.png"" style=""width: 408px; height: 417px; margin-left:608px;""></div></div>","null","delaylearn","learning","display_response","60e0dc6be0772b7dfdad9b2c","h5cyt2f9S1OX67beaN0xZIVItDO2","","","","","","","","","","","","","","","","","chosen stimuli: images/choice_trial_11.png","","","",""
"html-keyboard-response","206","505028","0.0-85.0-2.0","","null","","null","delaylearn","learning","feedback_duration_window","60e0dc6be0772b7dfdad9b2c","h5cyt2f9S1OX67beaN0xZIVItDO2","","","","","","","","","","","","","","","","","","7000","","",""
"html-keyboard-response","207","506537","0.0-85.0-3.0","","null","<div style='margin:auto;width: auto; font-size: 150%'><span style='font-weight: bold; font-size: 100px; color: red;'>0 points!</span><br><br></div>","null","delaylearn","learning","feedback_image_window","60e0dc6be0772b7dfdad9b2c","h5cyt2f9S1OX67beaN0xZIVItDO2","","","","","","","","","","","","","","","","","","","","",""
"html-keyboard-response","208","508830","0.0-86.0","","null","<div style=""font-size:100px;"">+</div>","null","delaylearn","learning","ITI","60e0dc6be0772b7dfdad9b2c","h5cyt2f9S1OX67beaN0xZIVItDO2","","","","","","","","","","","","","","","","","","","2279","",""
"html-keyboard-response","209","510467","0.0-87.0-0.0","","1633.2000000476837","<div style=""display: flex; flex-direction: column; align-items: center; margin-top: -40px;""><img src=""images/pattern_7.png"" style=""width: 234px; height: 230px; margin-top: -50px;""><div style=""display: flex; justify-content: space-between; margin-top: 33px;""><img src=""images/choice_trial_8.png"" style=""width: 408px; height: 417px; margin-right: 200px;""><img src=""images/choice_trial_10.png"" style=""width: 408px; height: 417px;""></div></div>","j","delaylearn","learning","trial","60e0dc6be0772b7dfdad9b2c","h5cyt2f9S1OX67beaN0xZIVItDO2","5","images/choice_trial_8.png","images/choice_trial_10.png","images/pattern_7.png","f","f","750","8","10","6","0","38","0","0","10","190","","","","",""
"html-keyboard-response","210","511478","0.0-87.0-1.0","","null","<div style=""display: flex; flex-direction: column; align-items: center; margin-top: -40px;""><img src=""images/pattern_7.png"" style=""width: 234px; height: 230px; margin-top: -50px;""><div style=""display: flex; justify-content: space-between; margin-top: 33px;""><img src=""images/choice_trial_10.png"" style=""width: 408px; height: 417px; margin-left:608px;""></div></div>","null","delaylearn","learning","display_response","60e0dc6be0772b7dfdad9b2c","h5cyt2f9S1OX67beaN0xZIVItDO2","","","","","","","","","","","","","","","","","chosen stimuli: images/choice_trial_10.png","","","",""
"html-keyboard-response","211","512239","0.0-87.0-2.0","","null","","null","delaylearn","learning","feedback_duration_window","60e0dc6be0772b7dfdad9b2c","h5cyt2f9S1OX67beaN0xZIVItDO2","","","","","","","","","","","","","","","","","","750","","",""
"html-keyboard-response","212","513742","0.0-87.0-3.0","","null","<div style='margin:auto;width: auto; font-size: 150%'><span style='font-weight: bold; font-size: 100px; color: red;'>0 points!</span><br><br></div>","null","delaylearn","learning","feedback_image_window","60e0dc6be0772b7dfdad9b2c","h5cyt2f9S1OX67beaN0xZIVItDO2","","","","","","","","","","","","","","","","","","","","",""
"html-keyboard-response","213","515515","0.0-88.0","","null","<div style=""font-size:100px;"">+</div>","null","delaylearn","learning","ITI","60e0dc6be0772b7dfdad9b2c","h5cyt2f9S1OX67beaN0xZIVItDO2","","","","","","","","","","","","","","","","","","","1756","",""
"html-keyboard-response","214","516865","0.0-89.0-0.0","","1347.7000000476837","<div style=""display: flex; flex-direction: column; align-items: center; margin-top: -40px;""><img src=""images/pattern_1.png"" style=""width: 234px; height: 230px; margin-top: -50px;""><div style=""display: flex; justify-content: space-between; margin-top: 33px;""><img src=""images/choice_trial_6.png"" style=""width: 408px; height: 417px; margin-right: 200px;""><img src=""images/choice_trial_15.png"" style=""width: 408px; height: 417px;""></div></div>","f","delaylearn","learning","trial","60e0dc6be0772b7dfdad9b2c","h5cyt2f9S1OX67beaN0xZIVItDO2","5","images/choice_trial_6.png","images/choice_trial_15.png","images/pattern_1.png","f","f","7000","6","15","1","0","39","1","1","6","200","","","","",""
"html-keyboard-response","215","517880","0.0-89.0-1.0","","null","<div style=""display: flex; flex-direction: column; align-items: center; margin-top: -40px;""><img src=""images/pattern_1.png"" style=""width: 234px; height: 230px; margin-top: -50px;""><div style=""display: flex; justify-content: space-between; margin-top: 33px;""><img src=""images/choice_trial_6.png"" style=""width: 408px; height: 417px; margin-right: 608px;""></div></div>","null","delaylearn","learning","display_response","60e0dc6be0772b7dfdad9b2c","h5cyt2f9S1OX67beaN0xZIVItDO2","","","","","","","","","","","","","","","","","chosen stimuli: images/choice_trial_6.png","","","",""
"html-keyboard-response","216","524891","0.0-89.0-2.0","","null","","null","delaylearn","learning","feedback_duration_window","60e0dc6be0772b7dfdad9b2c","h5cyt2f9S1OX67beaN0xZIVItDO2","","","","","","","","","","","","","","","","","","7000","","",""
"html-keyboard-response","217","526402","0.0-89.0-3.0","","null","<div style='margin:auto;width: auto; font-size: 150%'><span style='font-weight: bold; font-size: 100px; color: green;'>+10 points!</span><br><br></div>","null","delaylearn","learning","feedback_image_window","60e0dc6be0772b7dfdad9b2c","h5cyt2f9S1OX67beaN0xZIVItDO2","","","","","","","","","","","","","","","","","","","","",""
"html-keyboard-response","218","526913","0.0-90.0-0.0","","null","","null","","","mood_trial_fixation","","","","","","","","","","","","","","","","","","","","","","",""
"lmdlab-html-vas-response","219","531653","0.0-90.0-1.0","","3736","How happy are you right now?","0.7247897659942034","delaylearn","learning","mood_trial","60e0dc6be0772b7dfdad9b2c","h5cyt2f9S1OX67beaN0xZIVItDO2","","","","","","","","","","","","","","","","","","","","[""Very unhappy"",""Very happy""]",""
"html-keyboard-response","220","533494","0.0-91.0","","null","<div style=""font-size:100px;"">+</div>","null","delaylearn","learning","ITI","60e0dc6be0772b7dfdad9b2c","h5cyt2f9S1OX67beaN0xZIVItDO2","","","","","","","","","","","","","","","","","","","1831","",""
