"trial_type","trial_index","time_elapsed","internal_node_id","participant","rt","stimulus","response","exp_name","exp_stage","test_part","subjectID","databaseID","counterbal","choice_stimuli_1","choice_stimuli_2","pattern_stimuli","rewarded_answer","correct_answer","feedback_duration_times","stim_left","stim_right","pair","leftright_counter","trial","response_correct","response_rewarded","chosen_stim","counter","displayed_choice","feedback_durations","ITI_duration","labels","rest_warning"
"pavlovia","0","848","0.0-0.0","","","","","","","","","","","","","","","","","","","","","","","","","","","","","",""
"html-keyboard-response","1","3855","0.0-1.0","","null","<div style=""font-size:100px;"">+</div>","null","delaylearn","learning","pre_fixation","5f5b4aa99a3ef626581a1473","","","","","","","","","","","","","","","","","","","","","",""
"html-keyboard-response","2","5201","0.0-2.0-0.0","","1343.3000001907349","<div style=""display: flex; flex-direction: column; align-items: center; margin-top: -40px;""><img src=""images/demo_images/pattern_1.png"" style=""width: 234px; height: 230px; margin-top: -50px;""><div style=""display: flex; justify-content: space-between; margin-top: 33px;""><img src=""images/demo_images/choice_trial_2.png"" style=""width: 408px; height: 417px; margin-right: 200px;""><img src=""images/demo_images/choice_trial_1.png"" style=""width: 408px; height: 417px;""></div></div>","f","delaylearn","learning","trial","5f5b4aa99a3ef626581a1473","fhy5AyrHageME9EHkVj52WzGL7f1","2","images/demo_images/choice_trial_2.png","images/demo_images/choice_trial_1.png","images/demo_images/pattern_1.png","j","j","3000","2","1","20","1","1","0","0","2","0","","","","",""
"html-keyboard-response","3","6217","0.0-2.0-1.0","","null","<div style=""display: flex; flex-direction: column; align-items: center; margin-top: -40px;""><img src=""images/demo_images/pattern_1.png"" style=""width: 234px; height: 230px; margin-top: -50px;""><div style=""display: flex; justify-content: space-between; margin-top: 33px;""><img src=""images/demo_images/choice_trial_2.png"" style=""width: 408px; height: 417px; margin-right: 608px;""></div></div>","null","delaylearn","learning","display_response","5f5b4aa99a3ef626581a1473","fhy5AyrHageME9EHkVj52WzGL7f1","","","","","","","","","","","","","","","","","chosen stimuli: images/demo_images/choice_trial_2.png","","","",""
"html-keyboard-response","4","9234","0.0-2.0-2.0","","null","","null","delaylearn","learning","feedback_duration_window","5f5b4aa99a3ef626581a1473","fhy5AyrHageME9EHkVj52WzGL7f1","","","","","","","","","","","","","","","","","","3000","","",""
"html-keyboard-response","5","10745","0.0-2.0-3.0","","null","<div style='margin:auto;width: auto; font-size: 150%'><span style='font-weight: bold; font-size: 100px; color: red;'>0 points!</span><br><br></div>","null","delaylearn","learning","feedback_image_window","5f5b4aa99a3ef626581a1473","fhy5AyrHageME9EHkVj52WzGL7f1","","","","","","","","","","","","","","","","","","","","",""
"html-keyboard-response","6","12683","0.0-3.0","","null","<div style=""font-size:100px;"">+</div>","null","delaylearn","learning","ITI","5f5b4aa99a3ef626581a1473","fhy5AyrHageME9EHkVj52WzGL7f1","","","","","","","","","","","","","","","","","","","1937","",""
"html-keyboard-response","7","14013","0.0-4.0-0.0","","1336.4000000953674","<div style=""display: flex; flex-direction: column; align-items: center; margin-top: -40px;""><img src=""images/demo_images/pattern_1.png"" style=""width: 234px; height: 230px; margin-top: -50px;""><div style=""display: flex; justify-content: space-between; margin-top: 33px;""><img src=""images/demo_images/choice_trial_2.png"" style=""width: 408px; height: 417px; margin-right: 200px;""><img src=""images/demo_images/choice_trial_1.png"" style=""width: 408px; height: 417px;""></div></div>","j","delaylearn","learning","trial","5f5b4aa99a3ef626581a1473","fhy5AyrHageME9EHkVj52WzGL7f1","2","images/demo_images/choice_trial_2.png","images/demo_images/choice_trial_1.png","images/demo_images/pattern_1.png","j","j","3000","2","1","20","1","2","1","1","1","10","","","","",""
"html-keyboard-response","8","15031","0.0-4.0-1.0","","null","<div style=""display: flex; flex-direction: column; align-items: center; margin-top: -40px;""><img src=""images/demo_images/pattern_1.png"" style=""width: 234px; height: 230px; margin-top: -50px;""><div style=""display: flex; justify-content: space-between; margin-top: 33px;""><img src=""images/demo_images/choice_trial_1.png"" style=""width: 408px; height: 417px; margin-left:608px;""></div></div>","null","delaylearn","learning","display_response","5f5b4aa99a3ef626581a1473","fhy5AyrHageME9EHkVj52WzGL7f1","","","","","","","","","","","","","","","","","chosen stimuli: images/demo_images/choice_trial_1.png","","","",""
"html-keyboard-response","9","18048","0.0-4.0-2.0","","null","","null","delaylearn","learning","feedback_duration_window","5f5b4aa99a3ef626581a1473","fhy5AyrHageME9EHkVj52WzGL7f1","","","","","","","","","","","","","","","","","","3000","","",""
"html-keyboard-response","10","19558","0.0-4.0-3.0","","null","<div style='margin:auto;width: auto; font-size: 150%'><span style='font-weight: bold; font-size: 100px; color: green;'>+10 points!</span><br><br></div>","null","delaylearn","learning","feedback_image_window","5f5b4aa99a3ef626581a1473","fhy5AyrHageME9EHkVj52WzGL7f1","","","","","","","","","","","","","","","","","","","","",""
"html-keyboard-response","11","21983","0.0-5.0","","null","<div style=""font-size:100px;"">+</div>","null","delaylearn","learning","ITI","5f5b4aa99a3ef626581a1473","fhy5AyrHageME9EHkVj52WzGL7f1","","","","","","","","","","","","","","","","","","","2416","",""
"html-keyboard-response","12","22783","0.0-6.0-0.0","","797.4000000953674","<div style=""display: flex; flex-direction: column; align-items: center; margin-top: -40px;""><img src=""images/demo_images/pattern_1.png"" style=""width: 234px; height: 230px; margin-top: -50px;""><div style=""display: flex; justify-content: space-between; margin-top: 33px;""><img src=""images/demo_images/choice_trial_1.png"" style=""width: 408px; height: 417px; margin-right: 200px;""><img src=""images/demo_images/choice_trial_2.png"" style=""width: 408px; height: 417px;""></div></div>","f","delaylearn","learning","trial","5f5b4aa99a3ef626581a1473","fhy5AyrHageME9EHkVj52WzGL7f1","2","images/demo_images/choice_trial_1.png","images/demo_images/choice_trial_2.png","images/demo_images/pattern_1.png","j","f","3000","1","2","20","0","3","1","0","1","10","","","","",""
"html-keyboard-response","13","23785","0.0-6.0-1.0","","null","<div style=""display: flex; flex-direction: column; align-items: center; margin-top: -40px;""><img src=""images/demo_images/pattern_1.png"" style=""width: 234px; height: 230px; margin-top: -50px;""><div style=""display: flex; justify-content: space-between; margin-top: 33px;""><img src=""images/demo_images/choice_trial_1.png"" style=""width: 408px; height: 417px; margin-right: 608px;""></div></div>","null","delaylearn","learning","display_response","5f5b4aa99a3ef626581a1473","fhy5AyrHageME9EHkVj52WzGL7f1","","","","","","","","","","","","","","","","","chosen stimuli: images/demo_images/choice_trial_1.png","","","",""
"html-keyboard-response","14","26798","0.0-6.0-2.0","","null","","null","delaylearn","learning","feedback_duration_window","5f5b4aa99a3ef626581a1473","fhy5AyrHageME9EHkVj52WzGL7f1","","","","","","","","","","","","","","","","","","3000","","",""
"html-keyboard-response","15","28311","0.0-6.0-3.0","","null","<div style='margin:auto;width: auto; font-size: 150%'><span style='font-weight: bold; font-size: 100px; color: red;'>0 points!</span><br><br></div>","null","delaylearn","learning","feedback_image_window","5f5b4aa99a3ef626581a1473","fhy5AyrHageME9EHkVj52WzGL7f1","","","","","","","","","","","","","","","","","","","","",""
"html-keyboard-response","16","30314","0.0-7.0","","null","<div style=""font-size:100px;"">+</div>","null","delaylearn","learning","ITI","5f5b4aa99a3ef626581a1473","fhy5AyrHageME9EHkVj52WzGL7f1","","","","","","","","","","","","","","","","","","","1994","",""
"html-keyboard-response","17","31714","0.0-8.0-0.0","","1397.7999997138977","<div style=""display: flex; flex-direction: column; align-items: center; margin-top: -40px;""><img src=""images/demo_images/pattern_1.png"" style=""width: 234px; height: 230px; margin-top: -50px;""><div style=""display: flex; justify-content: space-between; margin-top: 33px;""><img src=""images/demo_images/choice_trial_1.png"" style=""width: 408px; height: 417px; margin-right: 200px;""><img src=""images/demo_images/choice_trial_2.png"" style=""width: 408px; height: 417px;""></div></div>","f","delaylearn","learning","trial","5f5b4aa99a3ef626581a1473","fhy5AyrHageME9EHkVj52WzGL7f1","2","images/demo_images/choice_trial_1.png","images/demo_images/choice_trial_2.png","images/demo_images/pattern_1.png","f","f","3000","1","2","20","0","4","1","1","1","20","","","","",""
"html-keyboard-response","18","32729","0.0-8.0-1.0","","null","<div style=""display: flex; flex-direction: column; align-items: center; margin-top: -40px;""><img src=""images/demo_images/pattern_1.png"" style=""width: 234px; height: 230px; margin-top: -50px;""><div style=""display: flex; justify-content: space-between; margin-top: 33px;""><img src=""images/demo_images/choice_trial_1.png"" style=""width: 408px; height: 417px; margin-right: 608px;""></div></div>","null","delaylearn","learning","display_response","5f5b4aa99a3ef626581a1473","fhy5AyrHageME9EHkVj52WzGL7f1","","","","","","","","","","","","","","","","","chosen stimuli: images/demo_images/choice_trial_1.png","","","",""
"html-keyboard-response","19","35744","0.0-8.0-2.0","","null","","null","delaylearn","learning","feedback_duration_window","5f5b4aa99a3ef626581a1473","fhy5AyrHageME9EHkVj52WzGL7f1","","","","","","","","","","","","","","","","","","3000","","",""
"html-keyboard-response","20","37260","0.0-8.0-3.0","","null","<div style='margin:auto;width: auto; font-size: 150%'><span style='font-weight: bold; font-size: 100px; color: green;'>+10 points!</span><br><br></div>","null","delaylearn","learning","feedback_image_window","5f5b4aa99a3ef626581a1473","fhy5AyrHageME9EHkVj52WzGL7f1","","","","","","","","","","","","","","","","","","","","",""
"html-keyboard-response","21","37773","0.0-9.0-0.0","","null","","null","","","mood_trial_fixation","","","","","","","","","","","","","","","","","","","","","","",""
"lmdlab-html-vas-response","22","43212","0.0-9.0-1.0","","4416","How happy are you right now?","0.47687593027393055","delaylearn","learning","mood_trial","5f5b4aa99a3ef626581a1473","fhy5AyrHageME9EHkVj52WzGL7f1","","","","","","","","","","","","","","","","","","","","[""Very unhappy"",""Very happy""]",""
"html-keyboard-response","23","45190","0.0-10.0","","null","<div style=""font-size:100px;"">+</div>","null","delaylearn","learning","ITI","5f5b4aa99a3ef626581a1473","fhy5AyrHageME9EHkVj52WzGL7f1","","","","","","","","","","","","","","","","","","","1964","",""
"html-keyboard-response","24","46365","0.0-11.0-0.0","","1173.0999999046326","<div style=""display: flex; flex-direction: column; align-items: center; margin-top: -40px;""><img src=""images/demo_images/pattern_1.png"" style=""width: 234px; height: 230px; margin-top: -50px;""><div style=""display: flex; justify-content: space-between; margin-top: 33px;""><img src=""images/demo_images/choice_trial_2.png"" style=""width: 408px; height: 417px; margin-right: 200px;""><img src=""images/demo_images/choice_trial_1.png"" style=""width: 408px; height: 417px;""></div></div>","j","delaylearn","learning","trial","5f5b4aa99a3ef626581a1473","fhy5AyrHageME9EHkVj52WzGL7f1","2","images/demo_images/choice_trial_2.png","images/demo_images/choice_trial_1.png","images/demo_images/pattern_1.png","j","j","3000","2","1","20","1","5","1","1","1","30","","","","",""
"html-keyboard-response","25","47381","0.0-11.0-1.0","","null","<div style=""display: flex; flex-direction: column; align-items: center; margin-top: -40px;""><img src=""images/demo_images/pattern_1.png"" style=""width: 234px; height: 230px; margin-top: -50px;""><div style=""display: flex; justify-content: space-between; margin-top: 33px;""><img src=""images/demo_images/choice_trial_1.png"" style=""width: 408px; height: 417px; margin-left:608px;""></div></div>","null","delaylearn","learning","display_response","5f5b4aa99a3ef626581a1473","fhy5AyrHageME9EHkVj52WzGL7f1","","","","","","","","","","","","","","","","","chosen stimuli: images/demo_images/choice_trial_1.png","","","",""
"html-keyboard-response","26","50395","0.0-11.0-2.0","","null","","null","delaylearn","learning","feedback_duration_window","5f5b4aa99a3ef626581a1473","fhy5AyrHageME9EHkVj52WzGL7f1","","","","","","","","","","","","","","","","","","3000","","",""
"html-keyboard-response","27","51899","0.0-11.0-3.0","","null","<div style='margin:auto;width: auto; font-size: 150%'><span style='font-weight: bold; font-size: 100px; color: green;'>+10 points!</span><br><br></div>","null","delaylearn","learning","feedback_image_window","5f5b4aa99a3ef626581a1473","fhy5AyrHageME9EHkVj52WzGL7f1","","","","","","","","","","","","","","","","","","","","",""
"html-keyboard-response","28","53782","0.0-12.0","","null","<div style=""font-size:100px;"">+</div>","null","delaylearn","learning","ITI","5f5b4aa99a3ef626581a1473","fhy5AyrHageME9EHkVj52WzGL7f1","","","","","","","","","","","","","","","","","","","1870","",""
"html-keyboard-response","29","54744","0.0-13.0-0.0","","958.5999999046326","<div style=""display: flex; flex-direction: column; align-items: center; margin-top: -40px;""><img src=""images/demo_images/pattern_1.png"" style=""width: 234px; height: 230px; margin-top: -50px;""><div style=""display: flex; justify-content: space-between; margin-top: 33px;""><img src=""images/demo_images/choice_trial_1.png"" style=""width: 408px; height: 417px; margin-right: 200px;""><img src=""images/demo_images/choice_trial_2.png"" style=""width: 408px; height: 417px;""></div></div>","f","delaylearn","learning","trial","5f5b4aa99a3ef626581a1473","fhy5AyrHageME9EHkVj52WzGL7f1","2","images/demo_images/choice_trial_1.png","images/demo_images/choice_trial_2.png","images/demo_images/pattern_1.png","f","f","3000","1","2","20","0","6","1","1","1","40","","","","",""
"html-keyboard-response","30","55749","0.0-13.0-1.0","","null","<div style=""display: flex; flex-direction: column; align-items: center; margin-top: -40px;""><img src=""images/demo_images/pattern_1.png"" style=""width: 234px; height: 230px; margin-top: -50px;""><div style=""display: flex; justify-content: space-between; margin-top: 33px;""><img src=""images/demo_images/choice_trial_1.png"" style=""width: 408px; height: 417px; margin-right: 608px;""></div></div>","null","delaylearn","learning","display_response","5f5b4aa99a3ef626581a1473","fhy5AyrHageME9EHkVj52WzGL7f1","","","","","","","","","","","","","","","","","chosen stimuli: images/demo_images/choice_trial_1.png","","","",""
"html-keyboard-response","31","58754","0.0-13.0-2.0","","null","","null","delaylearn","learning","feedback_duration_window","5f5b4aa99a3ef626581a1473","fhy5AyrHageME9EHkVj52WzGL7f1","","","","","","","","","","","","","","","","","","3000","","",""
"html-keyboard-response","32","60267","0.0-13.0-3.0","","null","<div style='margin:auto;width: auto; font-size: 150%'><span style='font-weight: bold; font-size: 100px; color: green;'>+10 points!</span><br><br></div>","null","delaylearn","learning","feedback_image_window","5f5b4aa99a3ef626581a1473","fhy5AyrHageME9EHkVj52WzGL7f1","","","","","","","","","","","","","","","","","","","","",""
"html-keyboard-response","33","62165","0.0-14.0","","null","<div style=""font-size:100px;"">+</div>","null","delaylearn","learning","ITI","5f5b4aa99a3ef626581a1473","fhy5AyrHageME9EHkVj52WzGL7f1","","","","","","","","","","","","","","","","","","","1884","",""
"html-keyboard-response","34","63213","0.0-15.0-0.0","","1045.7000002861023","<div style=""display: flex; flex-direction: column; align-items: center; margin-top: -40px;""><img src=""images/demo_images/pattern_1.png"" style=""width: 234px; height: 230px; margin-top: -50px;""><div style=""display: flex; justify-content: space-between; margin-top: 33px;""><img src=""images/demo_images/choice_trial_2.png"" style=""width: 408px; height: 417px; margin-right: 200px;""><img src=""images/demo_images/choice_trial_1.png"" style=""width: 408px; height: 417px;""></div></div>","j","delaylearn","learning","trial","5f5b4aa99a3ef626581a1473","fhy5AyrHageME9EHkVj52WzGL7f1","2","images/demo_images/choice_trial_2.png","images/demo_images/choice_trial_1.png","images/demo_images/pattern_1.png","j","j","3000","2","1","20","1","7","1","1","1","50","","","","",""
"html-keyboard-response","35","64227","0.0-15.0-1.0","","null","<div style=""display: flex; flex-direction: column; align-items: center; margin-top: -40px;""><img src=""images/demo_images/pattern_1.png"" style=""width: 234px; height: 230px; margin-top: -50px;""><div style=""display: flex; justify-content: space-between; margin-top: 33px;""><img src=""images/demo_images/choice_trial_1.png"" style=""width: 408px; height: 417px; margin-left:608px;""></div></div>","null","delaylearn","learning","display_response","5f5b4aa99a3ef626581a1473","fhy5AyrHageME9EHkVj52WzGL7f1","","","","","","","","","","","","","","","","","chosen stimuli: images/demo_images/choice_trial_1.png","","","",""
"html-keyboard-response","36","67232","0.0-15.0-2.0","","null","","null","delaylearn","learning","feedback_duration_window","5f5b4aa99a3ef626581a1473","fhy5AyrHageME9EHkVj52WzGL7f1","","","","","","","","","","","","","","","","","","3000","","",""
"html-keyboard-response","37","68749","0.0-15.0-3.0","","null","<div style='margin:auto;width: auto; font-size: 150%'><span style='font-weight: bold; font-size: 100px; color: green;'>+10 points!</span><br><br></div>","null","delaylearn","learning","feedback_image_window","5f5b4aa99a3ef626581a1473","fhy5AyrHageME9EHkVj52WzGL7f1","","","","","","","","","","","","","","","","","","","","",""
"html-keyboard-response","38","70329","0.0-16.0","","null","<div style=""font-size:100px;"">+</div>","null","delaylearn","learning","ITI","5f5b4aa99a3ef626581a1473","fhy5AyrHageME9EHkVj52WzGL7f1","","","","","","","","","","","","","","","","","","","1576","",""
"html-keyboard-response","39","70812","0.0-17.0-0.0","","480.09999990463257","<div style=""display: flex; flex-direction: column; align-items: center; margin-top: -40px;""><img src=""images/demo_images/pattern_1.png"" style=""width: 234px; height: 230px; margin-top: -50px;""><div style=""display: flex; justify-content: space-between; margin-top: 33px;""><img src=""images/demo_images/choice_trial_1.png"" style=""width: 408px; height: 417px; margin-right: 200px;""><img src=""images/demo_images/choice_trial_2.png"" style=""width: 408px; height: 417px;""></div></div>","f","delaylearn","learning","trial","5f5b4aa99a3ef626581a1473","fhy5AyrHageME9EHkVj52WzGL7f1","2","images/demo_images/choice_trial_1.png","images/demo_images/choice_trial_2.png","images/demo_images/pattern_1.png","f","f","3000","1","2","20","0","8","1","1","1","60","","","","",""
"html-keyboard-response","40","71826","0.0-17.0-1.0","","null","<div style=""display: flex; flex-direction: column; align-items: center; margin-top: -40px;""><img src=""images/demo_images/pattern_1.png"" style=""width: 234px; height: 230px; margin-top: -50px;""><div style=""display: flex; justify-content: space-between; margin-top: 33px;""><img src=""images/demo_images/choice_trial_1.png"" style=""width: 408px; height: 417px; margin-right: 608px;""></div></div>","null","delaylearn","learning","display_response","5f5b4aa99a3ef626581a1473","fhy5AyrHageME9EHkVj52WzGL7f1","","","","","","","","","","","","","","","","","chosen stimuli: images/demo_images/choice_trial_1.png","","","",""
"html-keyboard-response","41","74847","0.0-17.0-2.0","","null","","null","delaylearn","learning","feedback_duration_window","5f5b4aa99a3ef626581a1473","fhy5AyrHageME9EHkVj52WzGL7f1","","","","","","","","","","","","","","","","","","3000","","",""
"html-keyboard-response","42","76359","0.0-17.0-3.0","","null","<div style='margin:auto;width: auto; font-size: 150%'><span style='font-weight: bold; font-size: 100px; color: green;'>+10 points!</span><br><br></div>","null","delaylearn","learning","feedback_image_window","5f5b4aa99a3ef626581a1473","fhy5AyrHageME9EHkVj52WzGL7f1","","","","","","","","","","","","","","","","","","","","",""
"html-button-response","43","78695","0.0-18.0","","2333.800000190735","
  <div style=""display: flex; align-items: center; justify-content: center; height: 80vh;"">
  <div>
          <img src=""images/inst_demo_finish.png"" style=""width: 80vw; height:auto;"">
          <br><br>
      </div>
      <br><br>
  </div>","0","","","","","","","","","","","","","","","","","","","","","","","","","",""
"html-keyboard-response","44","82472","0.0-19.0","","3775.699999809265","
  <div style=""display: flex; align-items: center; justify-content: center; height: 80vh;"">
  <div>
          <img src=""images/inst_6.png"" style=""width: 80vw; height:auto;"">
          <br><br>
      </div>
      <br><br>
  </div>","f","","","","","","","","","","","","","","","","","","","","","","","","","",""
"html-keyboard-response","45","85480","0.0-20.0","","null","<div style=""font-size:100px;"">+</div>","null","delaylearn","learning","pre_fixation","5f5b4aa99a3ef626581a1473","","","","","","","","","","","","","","","","","","","","","",""
"html-keyboard-response","46","87832","0.0-21.0","","null","<div style=""font-size:100px;"">+</div>","null","delaylearn","learning","ITI","5f5b4aa99a3ef626581a1473","fhy5AyrHageME9EHkVj52WzGL7f1","","","","","","","","","","","","","","","","","","","2336","",""
"html-keyboard-response","47","89432","0.0-22.0-0.0","","1597.8000001907349","<div style=""display: flex; flex-direction: column; align-items: center; margin-top: -40px;""><img src=""images/pattern_3.png"" style=""width: 234px; height: 230px; margin-top: -50px;""><div style=""display: flex; justify-content: space-between; margin-top: 33px;""><img src=""images/choice_trial_12.png"" style=""width: 408px; height: 417px; margin-right: 200px;""><img src=""images/choice_trial_14.png"" style=""width: 408px; height: 417px;""></div></div>","f","delaylearn","learning","trial","5f5b4aa99a3ef626581a1473","fhy5AyrHageME9EHkVj52WzGL7f1","2","images/choice_trial_12.png","images/choice_trial_14.png","images/pattern_3.png","f","f","7000","12","14","2","0","9","1","1","12","70","","","","",""
"html-keyboard-response","48","90450","0.0-22.0-1.0","","null","<div style=""display: flex; flex-direction: column; align-items: center; margin-top: -40px;""><img src=""images/pattern_3.png"" style=""width: 234px; height: 230px; margin-top: -50px;""><div style=""display: flex; justify-content: space-between; margin-top: 33px;""><img src=""images/choice_trial_12.png"" style=""width: 408px; height: 417px; margin-right: 608px;""></div></div>","null","delaylearn","learning","display_response","5f5b4aa99a3ef626581a1473","fhy5AyrHageME9EHkVj52WzGL7f1","","","","","","","","","","","","","","","","","chosen stimuli: images/choice_trial_12.png","","","",""
"html-keyboard-response","49","97456","0.0-22.0-2.0","","null","","null","delaylearn","learning","feedback_duration_window","5f5b4aa99a3ef626581a1473","fhy5AyrHageME9EHkVj52WzGL7f1","","","","","","","","","","","","","","","","","","7000","","",""
"html-keyboard-response","50","98959","0.0-22.0-3.0","","null","<div style='margin:auto;width: auto; font-size: 150%'><span style='font-weight: bold; font-size: 100px; color: green;'>+10 points!</span><br><br></div>","null","delaylearn","learning","feedback_image_window","5f5b4aa99a3ef626581a1473","fhy5AyrHageME9EHkVj52WzGL7f1","","","","","","","","","","","","","","","","","","","","",""
"html-keyboard-response","51","101378","0.0-23.0","","null","<div style=""font-size:100px;"">+</div>","null","delaylearn","learning","ITI","5f5b4aa99a3ef626581a1473","fhy5AyrHageME9EHkVj52WzGL7f1","","","","","","","","","","","","","","","","","","","2410","",""
"html-keyboard-response","52","102752","0.0-24.0-0.0","","1372.5","<div style=""display: flex; flex-direction: column; align-items: center; margin-top: -40px;""><img src=""images/pattern_7.png"" style=""width: 234px; height: 230px; margin-top: -50px;""><div style=""display: flex; justify-content: space-between; margin-top: 33px;""><img src=""images/choice_trial_15.png"" style=""width: 408px; height: 417px; margin-right: 200px;""><img src=""images/choice_trial_8.png"" style=""width: 408px; height: 417px;""></div></div>","j","delaylearn","learning","trial","5f5b4aa99a3ef626581a1473","fhy5AyrHageME9EHkVj52WzGL7f1","2","images/choice_trial_15.png","images/choice_trial_8.png","images/pattern_7.png","j","j","750","15","8","6","1","10","1","1","8","80","","","","",""
"html-keyboard-response","53","103755","0.0-24.0-1.0","","null","<div style=""display: flex; flex-direction: column; align-items: center; margin-top: -40px;""><img src=""images/pattern_7.png"" style=""width: 234px; height: 230px; margin-top: -50px;""><div style=""display: flex; justify-content: space-between; margin-top: 33px;""><img src=""images/choice_trial_8.png"" style=""width: 408px; height: 417px; margin-left:608px;""></div></div>","null","delaylearn","learning","display_response","5f5b4aa99a3ef626581a1473","fhy5AyrHageME9EHkVj52WzGL7f1","","","","","","","","","","","","","","","","","chosen stimuli: images/choice_trial_8.png","","","",""
"html-keyboard-response","54","104519","0.0-24.0-2.0","","null","","null","delaylearn","learning","feedback_duration_window","5f5b4aa99a3ef626581a1473","fhy5AyrHageME9EHkVj52WzGL7f1","","","","","","","","","","","","","","","","","","750","","",""
"html-keyboard-response","55","106023","0.0-24.0-3.0","","null","<div style='margin:auto;width: auto; font-size: 150%'><span style='font-weight: bold; font-size: 100px; color: green;'>+10 points!</span><br><br></div>","null","delaylearn","learning","feedback_image_window","5f5b4aa99a3ef626581a1473","fhy5AyrHageME9EHkVj52WzGL7f1","","","","","","","","","","","","","","","","","","","","",""
"html-keyboard-response","56","107530","0.0-25.0","","null","<div style=""font-size:100px;"">+</div>","null","delaylearn","learning","ITI","5f5b4aa99a3ef626581a1473","fhy5AyrHageME9EHkVj52WzGL7f1","","","","","","","","","","","","","","","","","","","1503","",""
"html-keyboard-response","57","109253","0.0-26.0-0.0","","1720.7999997138977","<div style=""display: flex; flex-direction: column; align-items: center; margin-top: -40px;""><img src=""images/pattern_4.png"" style=""width: 234px; height: 230px; margin-top: -50px;""><div style=""display: flex; justify-content: space-between; margin-top: 33px;""><img src=""images/choice_trial_4.png"" style=""width: 408px; height: 417px; margin-right: 200px;""><img src=""images/choice_trial_16.png"" style=""width: 408px; height: 417px;""></div></div>","f","delaylearn","learning","trial","5f5b4aa99a3ef626581a1473","fhy5AyrHageME9EHkVj52WzGL7f1","2","images/choice_trial_4.png","images/choice_trial_16.png","images/pattern_4.png","f","f","7000","4","16","3","0","11","1","1","4","90","","","","",""
"html-keyboard-response","58","110269","0.0-26.0-1.0","","null","<div style=""display: flex; flex-direction: column; align-items: center; margin-top: -40px;""><img src=""images/pattern_4.png"" style=""width: 234px; height: 230px; margin-top: -50px;""><div style=""display: flex; justify-content: space-between; margin-top: 33px;""><img src=""images/choice_trial_4.png"" style=""width: 408px; height: 417px; margin-right: 608px;""></div></div>","null","delaylearn","learning","display_response","5f5b4aa99a3ef626581a1473","fhy5AyrHageME9EHkVj52WzGL7f1","","","","","","","","","","","","","","","","","chosen stimuli: images/choice_trial_4.png","","","",""
"html-keyboard-response","59","117279","0.0-26.0-2.0","","null","","null","delaylearn","learning","feedback_duration_window","5f5b4aa99a3ef626581a1473","fhy5AyrHageME9EHkVj52WzGL7f1","","","","","","","","","","","","","","","","","","7000","","",""
"html-keyboard-response","60","118782","0.0-26.0-3.0","","null","<div style='margin:auto;width: auto; font-size: 150%'><span style='font-weight: bold; font-size: 100px; color: green;'>+10 points!</span><br><br></div>","null","delaylearn","learning","feedback_image_window","5f5b4aa99a3ef626581a1473","fhy5AyrHageME9EHkVj52WzGL7f1","","","","","","","","","","","","","","","","","","","","",""
"html-keyboard-response","61","121190","0.0-27.0","","null","<div style=""font-size:100px;"">+</div>","null","delaylearn","learning","ITI","5f5b4aa99a3ef626581a1473","fhy5AyrHageME9EHkVj52WzGL7f1","","","","","","","","","","","","","","","","","","","2405","",""
"html-keyboard-response","62","122945","0.0-28.0-0.0","","1752.2999997138977","<div style=""display: flex; flex-direction: column; align-items: center; margin-top: -40px;""><img src=""images/pattern_5.png"" style=""width: 234px; height: 230px; margin-top: -50px;""><div style=""display: flex; justify-content: space-between; margin-top: 33px;""><img src=""images/choice_trial_9.png"" style=""width: 408px; height: 417px; margin-right: 200px;""><img src=""images/choice_trial_2.png"" style=""width: 408px; height: 417px;""></div></div>","f","delaylearn","learning","trial","5f5b4aa99a3ef626581a1473","fhy5AyrHageME9EHkVj52WzGL7f1","2","images/choice_trial_9.png","images/choice_trial_2.png","images/pattern_5.png","j","j","750","9","2","4","1","12","0","0","9","90","","","","",""
"html-keyboard-response","63","123955","0.0-28.0-1.0","","null","<div style=""display: flex; flex-direction: column; align-items: center; margin-top: -40px;""><img src=""images/pattern_5.png"" style=""width: 234px; height: 230px; margin-top: -50px;""><div style=""display: flex; justify-content: space-between; margin-top: 33px;""><img src=""images/choice_trial_9.png"" style=""width: 408px; height: 417px; margin-right: 608px;""></div></div>","null","delaylearn","learning","display_response","5f5b4aa99a3ef626581a1473","fhy5AyrHageME9EHkVj52WzGL7f1","","","","","","","","","","","","","","","","","chosen stimuli: images/choice_trial_9.png","","","",""
"html-keyboard-response","64","124718","0.0-28.0-2.0","","null","","null","delaylearn","learning","feedback_duration_window","5f5b4aa99a3ef626581a1473","fhy5AyrHageME9EHkVj52WzGL7f1","","","","","","","","","","","","","","","","","","750","","",""
"html-keyboard-response","65","126226","0.0-28.0-3.0","","null","<div style='margin:auto;width: auto; font-size: 150%'><span style='font-weight: bold; font-size: 100px; color: red;'>0 points!</span><br><br></div>","null","delaylearn","learning","feedback_image_window","5f5b4aa99a3ef626581a1473","fhy5AyrHageME9EHkVj52WzGL7f1","","","","","","","","","","","","","","","","","","","","",""
"html-keyboard-response","66","128690","0.0-29.0","","null","<div style=""font-size:100px;"">+</div>","null","delaylearn","learning","ITI","5f5b4aa99a3ef626581a1473","fhy5AyrHageME9EHkVj52WzGL7f1","","","","","","","","","","","","","","","","","","","2450","",""
"html-keyboard-response","67","130662","0.0-30.0-0.0","","1968.9000000953674","<div style=""display: flex; flex-direction: column; align-items: center; margin-top: -40px;""><img src=""images/pattern_6.png"" style=""width: 234px; height: 230px; margin-top: -50px;""><div style=""display: flex; justify-content: space-between; margin-top: 33px;""><img src=""images/choice_trial_11.png"" style=""width: 408px; height: 417px; margin-right: 200px;""><img src=""images/choice_trial_5.png"" style=""width: 408px; height: 417px;""></div></div>","j","delaylearn","learning","trial","5f5b4aa99a3ef626581a1473","fhy5AyrHageME9EHkVj52WzGL7f1","2","images/choice_trial_11.png","images/choice_trial_5.png","images/pattern_6.png","j","f","750","11","5","5","0","13","0","1","5","100","","","","",""
"html-keyboard-response","68","131674","0.0-30.0-1.0","","null","<div style=""display: flex; flex-direction: column; align-items: center; margin-top: -40px;""><img src=""images/pattern_6.png"" style=""width: 234px; height: 230px; margin-top: -50px;""><div style=""display: flex; justify-content: space-between; margin-top: 33px;""><img src=""images/choice_trial_5.png"" style=""width: 408px; height: 417px; margin-left:608px;""></div></div>","null","delaylearn","learning","display_response","5f5b4aa99a3ef626581a1473","fhy5AyrHageME9EHkVj52WzGL7f1","","","","","","","","","","","","","","","","","chosen stimuli: images/choice_trial_5.png","","","",""
"html-keyboard-response","69","132437","0.0-30.0-2.0","","null","","null","delaylearn","learning","feedback_duration_window","5f5b4aa99a3ef626581a1473","fhy5AyrHageME9EHkVj52WzGL7f1","","","","","","","","","","","","","","","","","","750","","",""
"html-keyboard-response","70","133942","0.0-30.0-3.0","","null","<div style='margin:auto;width: auto; font-size: 150%'><span style='font-weight: bold; font-size: 100px; color: green;'>+10 points!</span><br><br></div>","null","delaylearn","learning","feedback_image_window","5f5b4aa99a3ef626581a1473","fhy5AyrHageME9EHkVj52WzGL7f1","","","","","","","","","","","","","","","","","","","","",""
"html-keyboard-response","71","134451","0.0-31.0-0.0","","null","","null","","","mood_trial_fixation","","","","","","","","","","","","","","","","","","","","","","",""
"lmdlab-html-vas-response","72","139272","0.0-31.0-1.0","","3806","How happy are you right now?","0.4942370405674197","delaylearn","learning","mood_trial","5f5b4aa99a3ef626581a1473","fhy5AyrHageME9EHkVj52WzGL7f1","","","","","","","","","","","","","","","","","","","","[""Very unhappy"",""Very happy""]",""
"html-keyboard-response","73","141439","0.0-32.0","","null","<div style=""font-size:100px;"">+</div>","null","delaylearn","learning","ITI","5f5b4aa99a3ef626581a1473","fhy5AyrHageME9EHkVj52WzGL7f1","","","","","","","","","","","","","","","","","","","2152","",""
"html-keyboard-response","74","142880","0.0-33.0-0.0","","1438.2000002861023","<div style=""display: flex; flex-direction: column; align-items: center; margin-top: -40px;""><img src=""images/pattern_1.png"" style=""width: 234px; height: 230px; margin-top: -50px;""><div style=""display: flex; justify-content: space-between; margin-top: 33px;""><img src=""images/choice_trial_10.png"" style=""width: 408px; height: 417px; margin-right: 200px;""><img src=""images/choice_trial_3.png"" style=""width: 408px; height: 417px;""></div></div>","j","delaylearn","learning","trial","5f5b4aa99a3ef626581a1473","fhy5AyrHageME9EHkVj52WzGL7f1","2","images/choice_trial_10.png","images/choice_trial_3.png","images/pattern_1.png","j","j","7000","10","3","1","1","14","1","1","3","110","","","","",""
"html-keyboard-response","75","143889","0.0-33.0-1.0","","null","<div style=""display: flex; flex-direction: column; align-items: center; margin-top: -40px;""><img src=""images/pattern_1.png"" style=""width: 234px; height: 230px; margin-top: -50px;""><div style=""display: flex; justify-content: space-between; margin-top: 33px;""><img src=""images/choice_trial_3.png"" style=""width: 408px; height: 417px; margin-left:608px;""></div></div>","null","delaylearn","learning","display_response","5f5b4aa99a3ef626581a1473","fhy5AyrHageME9EHkVj52WzGL7f1","","","","","","","","","","","","","","","","","chosen stimuli: images/choice_trial_3.png","","","",""
"html-keyboard-response","76","150896","0.0-33.0-2.0","","null","","null","delaylearn","learning","feedback_duration_window","5f5b4aa99a3ef626581a1473","fhy5AyrHageME9EHkVj52WzGL7f1","","","","","","","","","","","","","","","","","","7000","","",""
"html-keyboard-response","77","152410","0.0-33.0-3.0","","null","<div style='margin:auto;width: auto; font-size: 150%'><span style='font-weight: bold; font-size: 100px; color: green;'>+10 points!</span><br><br></div>","null","delaylearn","learning","feedback_image_window","5f5b4aa99a3ef626581a1473","fhy5AyrHageME9EHkVj52WzGL7f1","","","","","","","","","","","","","","","","","","","","",""
"html-keyboard-response","78","154315","0.0-34.0","","null","<div style=""font-size:100px;"">+</div>","null","delaylearn","learning","ITI","5f5b4aa99a3ef626581a1473","fhy5AyrHageME9EHkVj52WzGL7f1","","","","","","","","","","","","","","","","","","","1899","",""
"html-keyboard-response","79","155636","0.0-35.0-0.0","","1317.8000001907349","<div style=""display: flex; flex-direction: column; align-items: center; margin-top: -40px;""><img src=""images/pattern_3.png"" style=""width: 234px; height: 230px; margin-top: -50px;""><div style=""display: flex; justify-content: space-between; margin-top: 33px;""><img src=""images/choice_trial_14.png"" style=""width: 408px; height: 417px; margin-right: 200px;""><img src=""images/choice_trial_12.png"" style=""width: 408px; height: 417px;""></div></div>","j","delaylearn","learning","trial","5f5b4aa99a3ef626581a1473","fhy5AyrHageME9EHkVj52WzGL7f1","2","images/choice_trial_14.png","images/choice_trial_12.png","images/pattern_3.png","f","j","7000","14","12","2","1","15","1","0","12","110","","","","",""
"html-keyboard-response","80","156639","0.0-35.0-1.0","","null","<div style=""display: flex; flex-direction: column; align-items: center; margin-top: -40px;""><img src=""images/pattern_3.png"" style=""width: 234px; height: 230px; margin-top: -50px;""><div style=""display: flex; justify-content: space-between; margin-top: 33px;""><img src=""images/choice_trial_12.png"" style=""width: 408px; height: 417px; margin-left:608px;""></div></div>","null","delaylearn","learning","display_response","5f5b4aa99a3ef626581a1473","fhy5AyrHageME9EHkVj52WzGL7f1","","","","","","","","","","","","","","","","","chosen stimuli: images/choice_trial_12.png","","","",""
"html-keyboard-response","81","163655","0.0-35.0-2.0","","null","","null","delaylearn","learning","feedback_duration_window","5f5b4aa99a3ef626581a1473","fhy5AyrHageME9EHkVj52WzGL7f1","","","","","","","","","","","","","","","","","","7000","","",""
"html-keyboard-response","82","165160","0.0-35.0-3.0","","null","<div style='margin:auto;width: auto; font-size: 150%'><span style='font-weight: bold; font-size: 100px; color: red;'>0 points!</span><br><br></div>","null","delaylearn","learning","feedback_image_window","5f5b4aa99a3ef626581a1473","fhy5AyrHageME9EHkVj52WzGL7f1","","","","","","","","","","","","","","","","","","","","",""
"html-keyboard-response","83","166755","0.0-36.0","","null","<div style=""font-size:100px;"">+</div>","null","delaylearn","learning","ITI","5f5b4aa99a3ef626581a1473","fhy5AyrHageME9EHkVj52WzGL7f1","","","","","","","","","","","","","","","","","","","1587","",""
"html-keyboard-response","84","168381","0.0-37.0-0.0","","1623.5999999046326","<div style=""display: flex; flex-direction: column; align-items: center; margin-top: -40px;""><img src=""images/pattern_5.png"" style=""width: 234px; height: 230px; margin-top: -50px;""><div style=""display: flex; justify-content: space-between; margin-top: 33px;""><img src=""images/choice_trial_2.png"" style=""width: 408px; height: 417px; margin-right: 200px;""><img src=""images/choice_trial_9.png"" style=""width: 408px; height: 417px;""></div></div>","j","delaylearn","learning","trial","5f5b4aa99a3ef626581a1473","fhy5AyrHageME9EHkVj52WzGL7f1","2","images/choice_trial_2.png","images/choice_trial_9.png","images/pattern_5.png","f","f","750","2","9","4","0","16","0","0","9","110","","","","",""
"html-keyboard-response","85","169397","0.0-37.0-1.0","","null","<div style=""display: flex; flex-direction: column; align-items: center; margin-top: -40px;""><img src=""images/pattern_5.png"" style=""width: 234px; height: 230px; margin-top: -50px;""><div style=""display: flex; justify-content: space-between; margin-top: 33px;""><img src=""images/choice_trial_9.png"" style=""width: 408px; height: 417px; margin-left:608px;""></div></div>","null","delaylearn","learning","display_response","5f5b4aa99a3ef626581a1473","fhy5AyrHageME9EHkVj52WzGL7f1","","","","","","","","","","","","","","","","","chosen stimuli: images/choice_trial_9.png","","","",""
"html-keyboard-response","86","170155","0.0-37.0-2.0","","null","","null","delaylearn","learning","feedback_duration_window","5f5b4aa99a3ef626581a1473","fhy5AyrHageME9EHkVj52WzGL7f1","","","","","","","","","","","","","","","","","","750","","",""
"html-keyboard-response","87","171663","0.0-37.0-3.0","","null","<div style='margin:auto;width: auto; font-size: 150%'><span style='font-weight: bold; font-size: 100px; color: red;'>0 points!</span><br><br></div>","null","delaylearn","learning","feedback_image_window","5f5b4aa99a3ef626581a1473","fhy5AyrHageME9EHkVj52WzGL7f1","","","","","","","","","","","","","","","","","","","","",""
"html-keyboard-response","88","172169","0.0-38.0-0.0","","null","","null","","","mood_trial_fixation","","","","","","","","","","","","","","","","","","","","","","",""
"lmdlab-html-vas-response","89","176740","0.0-38.0-1.0","","3554","How happy are you right now?","0.4035734645903098","delaylearn","learning","mood_trial","5f5b4aa99a3ef626581a1473","fhy5AyrHageME9EHkVj52WzGL7f1","","","","","","","","","","","","","","","","","","","","[""Very unhappy"",""Very happy""]",""
"html-keyboard-response","90","178985","0.0-39.0","","null","<div style=""font-size:100px;"">+</div>","null","delaylearn","learning","ITI","5f5b4aa99a3ef626581a1473","fhy5AyrHageME9EHkVj52WzGL7f1","","","","","","","","","","","","","","","","","","","2237","",""
"html-keyboard-response","91","181041","0.0-40.0-0.0","","2054.0999999046326","<div style=""display: flex; flex-direction: column; align-items: center; margin-top: -40px;""><img src=""images/pattern_6.png"" style=""width: 234px; height: 230px; margin-top: -50px;""><div style=""display: flex; justify-content: space-between; margin-top: 33px;""><img src=""images/choice_trial_11.png"" style=""width: 408px; height: 417px; margin-right: 200px;""><img src=""images/choice_trial_5.png"" style=""width: 408px; height: 417px;""></div></div>","j","delaylearn","learning","trial","5f5b4aa99a3ef626581a1473","fhy5AyrHageME9EHkVj52WzGL7f1","2","images/choice_trial_11.png","images/choice_trial_5.png","images/pattern_6.png","f","f","750","11","5","5","0","17","0","0","5","110","","","","",""
"html-keyboard-response","92","182043","0.0-40.0-1.0","","null","<div style=""display: flex; flex-direction: column; align-items: center; margin-top: -40px;""><img src=""images/pattern_6.png"" style=""width: 234px; height: 230px; margin-top: -50px;""><div style=""display: flex; justify-content: space-between; margin-top: 33px;""><img src=""images/choice_trial_5.png"" style=""width: 408px; height: 417px; margin-left:608px;""></div></div>","null","delaylearn","learning","display_response","5f5b4aa99a3ef626581a1473","fhy5AyrHageME9EHkVj52WzGL7f1","","","","","","","","","","","","","","","","","chosen stimuli: images/choice_trial_5.png","","","",""
"html-keyboard-response","93","182805","0.0-40.0-2.0","","null","","null","delaylearn","learning","feedback_duration_window","5f5b4aa99a3ef626581a1473","fhy5AyrHageME9EHkVj52WzGL7f1","","","","","","","","","","","","","","","","","","750","","",""
"html-keyboard-response","94","184309","0.0-40.0-3.0","","null","<div style='margin:auto;width: auto; font-size: 150%'><span style='font-weight: bold; font-size: 100px; color: red;'>0 points!</span><br><br></div>","null","delaylearn","learning","feedback_image_window","5f5b4aa99a3ef626581a1473","fhy5AyrHageME9EHkVj52WzGL7f1","","","","","","","","","","","","","","","","","","","","",""
"html-keyboard-response","95","186727","0.0-41.0","","null","<div style=""font-size:100px;"">+</div>","null","delaylearn","learning","ITI","5f5b4aa99a3ef626581a1473","fhy5AyrHageME9EHkVj52WzGL7f1","","","","","","","","","","","","","","","","","","","2414","",""
"html-keyboard-response","96","188667","0.0-42.0-0.0","","1936.6999998092651","<div style=""display: flex; flex-direction: column; align-items: center; margin-top: -40px;""><img src=""images/pattern_4.png"" style=""width: 234px; height: 230px; margin-top: -50px;""><div style=""display: flex; justify-content: space-between; margin-top: 33px;""><img src=""images/choice_trial_16.png"" style=""width: 408px; height: 417px; margin-right: 200px;""><img src=""images/choice_trial_4.png"" style=""width: 408px; height: 417px;""></div></div>","j","delaylearn","learning","trial","5f5b4aa99a3ef626581a1473","fhy5AyrHageME9EHkVj52WzGL7f1","2","images/choice_trial_16.png","images/choice_trial_4.png","images/pattern_4.png","j","j","7000","16","4","3","1","18","1","1","4","120","","","","",""
"html-keyboard-response","97","189672","0.0-42.0-1.0","","null","<div style=""display: flex; flex-direction: column; align-items: center; margin-top: -40px;""><img src=""images/pattern_4.png"" style=""width: 234px; height: 230px; margin-top: -50px;""><div style=""display: flex; justify-content: space-between; margin-top: 33px;""><img src=""images/choice_trial_4.png"" style=""width: 408px; height: 417px; margin-left:608px;""></div></div>","null","delaylearn","learning","display_response","5f5b4aa99a3ef626581a1473","fhy5AyrHageME9EHkVj52WzGL7f1","","","","","","","","","","","","","","","","","chosen stimuli: images/choice_trial_4.png","","","",""
"html-keyboard-response","98","196686","0.0-42.0-2.0","","null","","null","delaylearn","learning","feedback_duration_window","5f5b4aa99a3ef626581a1473","fhy5AyrHageME9EHkVj52WzGL7f1","","","","","","","","","","","","","","","","","","7000","","",""
"html-keyboard-response","99","198194","0.0-42.0-3.0","","null","<div style='margin:auto;width: auto; font-size: 150%'><span style='font-weight: bold; font-size: 100px; color: green;'>+10 points!</span><br><br></div>","null","delaylearn","learning","feedback_image_window","5f5b4aa99a3ef626581a1473","fhy5AyrHageME9EHkVj52WzGL7f1","","","","","","","","","","","","","","","","","","","","",""
"html-keyboard-response","100","199883","0.0-43.0","","null","<div style=""font-size:100px;"">+</div>","null","delaylearn","learning","ITI","5f5b4aa99a3ef626581a1473","fhy5AyrHageME9EHkVj52WzGL7f1","","","","","","","","","","","","","","","","","","","1685","",""
"html-keyboard-response","101","201273","0.0-44.0-0.0","","1388.3000001907349","<div style=""display: flex; flex-direction: column; align-items: center; margin-top: -40px;""><img src=""images/pattern_7.png"" style=""width: 234px; height: 230px; margin-top: -50px;""><div style=""display: flex; justify-content: space-between; margin-top: 33px;""><img src=""images/choice_trial_8.png"" style=""width: 408px; height: 417px; margin-right: 200px;""><img src=""images/choice_trial_15.png"" style=""width: 408px; height: 417px;""></div></div>","f","delaylearn","learning","trial","5f5b4aa99a3ef626581a1473","fhy5AyrHageME9EHkVj52WzGL7f1","2","images/choice_trial_8.png","images/choice_trial_15.png","images/pattern_7.png","j","f","750","8","15","6","0","19","1","0","8","120","","","","",""
"html-keyboard-response","102","202292","0.0-44.0-1.0","","null","<div style=""display: flex; flex-direction: column; align-items: center; margin-top: -40px;""><img src=""images/pattern_7.png"" style=""width: 234px; height: 230px; margin-top: -50px;""><div style=""display: flex; justify-content: space-between; margin-top: 33px;""><img src=""images/choice_trial_8.png"" style=""width: 408px; height: 417px; margin-right: 608px;""></div></div>","null","delaylearn","learning","display_response","5f5b4aa99a3ef626581a1473","fhy5AyrHageME9EHkVj52WzGL7f1","","","","","","","","","","","","","","","","","chosen stimuli: images/choice_trial_8.png","","","",""
"html-keyboard-response","103","203055","0.0-44.0-2.0","","null","","null","delaylearn","learning","feedback_duration_window","5f5b4aa99a3ef626581a1473","fhy5AyrHageME9EHkVj52WzGL7f1","","","","","","","","","","","","","","","","","","750","","",""
"html-keyboard-response","104","204567","0.0-44.0-3.0","","null","<div style='margin:auto;width: auto; font-size: 150%'><span style='font-weight: bold; font-size: 100px; color: red;'>0 points!</span><br><br></div>","null","delaylearn","learning","feedback_image_window","5f5b4aa99a3ef626581a1473","fhy5AyrHageME9EHkVj52WzGL7f1","","","","","","","","","","","","","","","","","","","","",""
"html-keyboard-response","105","206423","0.0-45.0","","null","<div style=""font-size:100px;"">+</div>","null","delaylearn","learning","ITI","5f5b4aa99a3ef626581a1473","fhy5AyrHageME9EHkVj52WzGL7f1","","","","","","","","","","","","","","","","","","","1849","",""
"html-keyboard-response","106","208254","0.0-46.0-0.0","","1827.1999998092651","<div style=""display: flex; flex-direction: column; align-items: center; margin-top: -40px;""><img src=""images/pattern_1.png"" style=""width: 234px; height: 230px; margin-top: -50px;""><div style=""display: flex; justify-content: space-between; margin-top: 33px;""><img src=""images/choice_trial_3.png"" style=""width: 408px; height: 417px; margin-right: 200px;""><img src=""images/choice_trial_10.png"" style=""width: 408px; height: 417px;""></div></div>","f","delaylearn","learning","trial","5f5b4aa99a3ef626581a1473","fhy5AyrHageME9EHkVj52WzGL7f1","2","images/choice_trial_3.png","images/choice_trial_10.png","images/pattern_1.png","f","f","7000","3","10","1","0","20","1","1","3","130","","","","",""
"html-keyboard-response","107","209256","0.0-46.0-1.0","","null","<div style=""display: flex; flex-direction: column; align-items: center; margin-top: -40px;""><img src=""images/pattern_1.png"" style=""width: 234px; height: 230px; margin-top: -50px;""><div style=""display: flex; justify-content: space-between; margin-top: 33px;""><img src=""images/choice_trial_3.png"" style=""width: 408px; height: 417px; margin-right: 608px;""></div></div>","null","delaylearn","learning","display_response","5f5b4aa99a3ef626581a1473","fhy5AyrHageME9EHkVj52WzGL7f1","","","","","","","","","","","","","","","","","chosen stimuli: images/choice_trial_3.png","","","",""
"html-keyboard-response","108","216268","0.0-46.0-2.0","","null","","null","delaylearn","learning","feedback_duration_window","5f5b4aa99a3ef626581a1473","fhy5AyrHageME9EHkVj52WzGL7f1","","","","","","","","","","","","","","","","","","7000","","",""
"html-keyboard-response","109","217784","0.0-46.0-3.0","","null","<div style='margin:auto;width: auto; font-size: 150%'><span style='font-weight: bold; font-size: 100px; color: green;'>+10 points!</span><br><br></div>","null","delaylearn","learning","feedback_image_window","5f5b4aa99a3ef626581a1473","fhy5AyrHageME9EHkVj52WzGL7f1","","","","","","","","","","","","","","","","","","","","",""
"html-keyboard-response","110","219974","0.0-47.0","","null","<div style=""font-size:100px;"">+</div>","null","delaylearn","learning","ITI","5f5b4aa99a3ef626581a1473","fhy5AyrHageME9EHkVj52WzGL7f1","","","","","","","","","","","","","","","","","","","2180","",""
"html-keyboard-response","111","222253","0.0-48.0-0.0","","2275.7999997138977","<div style=""display: flex; flex-direction: column; align-items: center; margin-top: -40px;""><img src=""images/pattern_6.png"" style=""width: 234px; height: 230px; margin-top: -50px;""><div style=""display: flex; justify-content: space-between; margin-top: 33px;""><img src=""images/choice_trial_5.png"" style=""width: 408px; height: 417px; margin-right: 200px;""><img src=""images/choice_trial_11.png"" style=""width: 408px; height: 417px;""></div></div>","j","delaylearn","learning","trial","5f5b4aa99a3ef626581a1473","fhy5AyrHageME9EHkVj52WzGL7f1","2","images/choice_trial_5.png","images/choice_trial_11.png","images/pattern_6.png","j","j","750","5","11","5","1","21","1","1","11","140","","","","",""
"html-keyboard-response","112","223258","0.0-48.0-1.0","","null","<div style=""display: flex; flex-direction: column; align-items: center; margin-top: -40px;""><img src=""images/pattern_6.png"" style=""width: 234px; height: 230px; margin-top: -50px;""><div style=""display: flex; justify-content: space-between; margin-top: 33px;""><img src=""images/choice_trial_11.png"" style=""width: 408px; height: 417px; margin-left:608px;""></div></div>","null","delaylearn","learning","display_response","5f5b4aa99a3ef626581a1473","fhy5AyrHageME9EHkVj52WzGL7f1","","","","","","","","","","","","","","","","","chosen stimuli: images/choice_trial_11.png","","","",""
"html-keyboard-response","113","224011","0.0-48.0-2.0","","null","","null","delaylearn","learning","feedback_duration_window","5f5b4aa99a3ef626581a1473","fhy5AyrHageME9EHkVj52WzGL7f1","","","","","","","","","","","","","","","","","","750","","",""
"html-keyboard-response","114","225526","0.0-48.0-3.0","","null","<div style='margin:auto;width: auto; font-size: 150%'><span style='font-weight: bold; font-size: 100px; color: green;'>+10 points!</span><br><br></div>","null","delaylearn","learning","feedback_image_window","5f5b4aa99a3ef626581a1473","fhy5AyrHageME9EHkVj52WzGL7f1","","","","","","","","","","","","","","","","","","","","",""
"html-keyboard-response","115","227364","0.0-49.0","","null","<div style=""font-size:100px;"">+</div>","null","delaylearn","learning","ITI","5f5b4aa99a3ef626581a1473","fhy5AyrHageME9EHkVj52WzGL7f1","","","","","","","","","","","","","","","","","","","1822","",""
"html-keyboard-response","116","229346","0.0-50.0-0.0","","1978.7000002861023","<div style=""display: flex; flex-direction: column; align-items: center; margin-top: -40px;""><img src=""images/pattern_4.png"" style=""width: 234px; height: 230px; margin-top: -50px;""><div style=""display: flex; justify-content: space-between; margin-top: 33px;""><img src=""images/choice_trial_4.png"" style=""width: 408px; height: 417px; margin-right: 200px;""><img src=""images/choice_trial_16.png"" style=""width: 408px; height: 417px;""></div></div>","f","delaylearn","learning","trial","5f5b4aa99a3ef626581a1473","fhy5AyrHageME9EHkVj52WzGL7f1","2","images/choice_trial_4.png","images/choice_trial_16.png","images/pattern_4.png","f","f","7000","4","16","3","0","22","1","1","4","150","","","","",""
"html-keyboard-response","117","230359","0.0-50.0-1.0","","null","<div style=""display: flex; flex-direction: column; align-items: center; margin-top: -40px;""><img src=""images/pattern_4.png"" style=""width: 234px; height: 230px; margin-top: -50px;""><div style=""display: flex; justify-content: space-between; margin-top: 33px;""><img src=""images/choice_trial_4.png"" style=""width: 408px; height: 417px; margin-right: 608px;""></div></div>","null","delaylearn","learning","display_response","5f5b4aa99a3ef626581a1473","fhy5AyrHageME9EHkVj52WzGL7f1","","","","","","","","","","","","","","","","","chosen stimuli: images/choice_trial_4.png","","","",""
"html-keyboard-response","118","237370","0.0-50.0-2.0","","null","","null","delaylearn","learning","feedback_duration_window","5f5b4aa99a3ef626581a1473","fhy5AyrHageME9EHkVj52WzGL7f1","","","","","","","","","","","","","","","","","","7000","","",""
"html-keyboard-response","119","238872","0.0-50.0-3.0","","null","<div style='margin:auto;width: auto; font-size: 150%'><span style='font-weight: bold; font-size: 100px; color: green;'>+10 points!</span><br><br></div>","null","delaylearn","learning","feedback_image_window","5f5b4aa99a3ef626581a1473","fhy5AyrHageME9EHkVj52WzGL7f1","","","","","","","","","","","","","","","","","","","","",""
"html-keyboard-response","120","239383","0.0-51.0-0.0","","null","","null","","","mood_trial_fixation","","","","","","","","","","","","","","","","","","","","","","",""
"lmdlab-html-vas-response","121","243673","0.0-51.0-1.0","","3278","How happy are you right now?","0.49616605282225185","delaylearn","learning","mood_trial","5f5b4aa99a3ef626581a1473","fhy5AyrHageME9EHkVj52WzGL7f1","","","","","","","","","","","","","","","","","","","","[""Very unhappy"",""Very happy""]",""
"html-keyboard-response","122","245828","0.0-52.0","","null","<div style=""font-size:100px;"">+</div>","null","delaylearn","learning","ITI","5f5b4aa99a3ef626581a1473","fhy5AyrHageME9EHkVj52WzGL7f1","","","","","","","","","","","","","","","","","","","2148","",""
"html-keyboard-response","123","247025","0.0-53.0-0.0","","1193.1999998092651","<div style=""display: flex; flex-direction: column; align-items: center; margin-top: -40px;""><img src=""images/pattern_7.png"" style=""width: 234px; height: 230px; margin-top: -50px;""><div style=""display: flex; justify-content: space-between; margin-top: 33px;""><img src=""images/choice_trial_15.png"" style=""width: 408px; height: 417px; margin-right: 200px;""><img src=""images/choice_trial_8.png"" style=""width: 408px; height: 417px;""></div></div>","j","delaylearn","learning","trial","5f5b4aa99a3ef626581a1473","fhy5AyrHageME9EHkVj52WzGL7f1","2","images/choice_trial_15.png","images/choice_trial_8.png","images/pattern_7.png","j","j","750","15","8","6","1","23","1","1","8","160","","","","",""
"html-keyboard-response","124","248041","0.0-53.0-1.0","","null","<div style=""display: flex; flex-direction: column; align-items: center; margin-top: -40px;""><img src=""images/pattern_7.png"" style=""width: 234px; height: 230px; margin-top: -50px;""><div style=""display: flex; justify-content: space-between; margin-top: 33px;""><img src=""images/choice_trial_8.png"" style=""width: 408px; height: 417px; margin-left:608px;""></div></div>","null","delaylearn","learning","display_response","5f5b4aa99a3ef626581a1473","fhy5AyrHageME9EHkVj52WzGL7f1","","","","","","","","","","","","","","","","","chosen stimuli: images/choice_trial_8.png","","","",""
"html-keyboard-response","125","248806","0.0-53.0-2.0","","null","","null","delaylearn","learning","feedback_duration_window","5f5b4aa99a3ef626581a1473","fhy5AyrHageME9EHkVj52WzGL7f1","","","","","","","","","","","","","","","","","","750","","",""
"html-keyboard-response","126","250311","0.0-53.0-3.0","","null","<div style='margin:auto;width: auto; font-size: 150%'><span style='font-weight: bold; font-size: 100px; color: green;'>+10 points!</span><br><br></div>","null","delaylearn","learning","feedback_image_window","5f5b4aa99a3ef626581a1473","fhy5AyrHageME9EHkVj52WzGL7f1","","","","","","","","","","","","","","","","","","","","",""
"html-keyboard-response","127","252505","0.0-54.0","","null","<div style=""font-size:100px;"">+</div>","null","delaylearn","learning","ITI","5f5b4aa99a3ef626581a1473","fhy5AyrHageME9EHkVj52WzGL7f1","","","","","","","","","","","","","","","","","","","2187","",""
"html-keyboard-response","128","254583","0.0-55.0-0.0","","2075.7999997138977","<div style=""display: flex; flex-direction: column; align-items: center; margin-top: -40px;""><img src=""images/pattern_1.png"" style=""width: 234px; height: 230px; margin-top: -50px;""><div style=""display: flex; justify-content: space-between; margin-top: 33px;""><img src=""images/choice_trial_10.png"" style=""width: 408px; height: 417px; margin-right: 200px;""><img src=""images/choice_trial_3.png"" style=""width: 408px; height: 417px;""></div></div>","j","delaylearn","learning","trial","5f5b4aa99a3ef626581a1473","fhy5AyrHageME9EHkVj52WzGL7f1","2","images/choice_trial_10.png","images/choice_trial_3.png","images/pattern_1.png","f","j","7000","10","3","1","1","24","1","0","3","160","","","","",""
"html-keyboard-response","129","255591","0.0-55.0-1.0","","null","<div style=""display: flex; flex-direction: column; align-items: center; margin-top: -40px;""><img src=""images/pattern_1.png"" style=""width: 234px; height: 230px; margin-top: -50px;""><div style=""display: flex; justify-content: space-between; margin-top: 33px;""><img src=""images/choice_trial_3.png"" style=""width: 408px; height: 417px; margin-left:608px;""></div></div>","null","delaylearn","learning","display_response","5f5b4aa99a3ef626581a1473","fhy5AyrHageME9EHkVj52WzGL7f1","","","","","","","","","","","","","","","","","chosen stimuli: images/choice_trial_3.png","","","",""
"html-keyboard-response","130","262596","0.0-55.0-2.0","","null","","null","delaylearn","learning","feedback_duration_window","5f5b4aa99a3ef626581a1473","fhy5AyrHageME9EHkVj52WzGL7f1","","","","","","","","","","","","","","","","","","7000","","",""
"html-keyboard-response","131","264108","0.0-55.0-3.0","","null","<div style='margin:auto;width: auto; font-size: 150%'><span style='font-weight: bold; font-size: 100px; color: red;'>0 points!</span><br><br></div>","null","delaylearn","learning","feedback_image_window","5f5b4aa99a3ef626581a1473","fhy5AyrHageME9EHkVj52WzGL7f1","","","","","","","","","","","","","","","","","","","","",""
"html-keyboard-response","132","265786","0.0-56.0","","null","<div style=""font-size:100px;"">+</div>","null","delaylearn","learning","ITI","5f5b4aa99a3ef626581a1473","fhy5AyrHageME9EHkVj52WzGL7f1","","","","","","","","","","","","","","","","","","","1667","",""
"html-keyboard-response","133","267489","0.0-57.0-0.0","","1700.2999997138977","<div style=""display: flex; flex-direction: column; align-items: center; margin-top: -40px;""><img src=""images/pattern_5.png"" style=""width: 234px; height: 230px; margin-top: -50px;""><div style=""display: flex; justify-content: space-between; margin-top: 33px;""><img src=""images/choice_trial_9.png"" style=""width: 408px; height: 417px; margin-right: 200px;""><img src=""images/choice_trial_2.png"" style=""width: 408px; height: 417px;""></div></div>","j","delaylearn","learning","trial","5f5b4aa99a3ef626581a1473","fhy5AyrHageME9EHkVj52WzGL7f1","2","images/choice_trial_9.png","images/choice_trial_2.png","images/pattern_5.png","j","j","750","9","2","4","1","25","1","1","2","170","","","","",""
"html-keyboard-response","134","268493","0.0-57.0-1.0","","null","<div style=""display: flex; flex-direction: column; align-items: center; margin-top: -40px;""><img src=""images/pattern_5.png"" style=""width: 234px; height: 230px; margin-top: -50px;""><div style=""display: flex; justify-content: space-between; margin-top: 33px;""><img src=""images/choice_trial_2.png"" style=""width: 408px; height: 417px; margin-left:608px;""></div></div>","null","delaylearn","learning","display_response","5f5b4aa99a3ef626581a1473","fhy5AyrHageME9EHkVj52WzGL7f1","","","","","","","","","","","","","","","","","chosen stimuli: images/choice_trial_2.png","","","",""
"html-keyboard-response","135","269251","0.0-57.0-2.0","","null","","null","delaylearn","learning","feedback_duration_window","5f5b4aa99a3ef626581a1473","fhy5AyrHageME9EHkVj52WzGL7f1","","","","","","","","","","","","","","","","","","750","","",""
"html-keyboard-response","136","270761","0.0-57.0-3.0","","null","<div style='margin:auto;width: auto; font-size: 150%'><span style='font-weight: bold; font-size: 100px; color: green;'>+10 points!</span><br><br></div>","null","delaylearn","learning","feedback_image_window","5f5b4aa99a3ef626581a1473","fhy5AyrHageME9EHkVj52WzGL7f1","","","","","","","","","","","","","","","","","","","","",""
"html-keyboard-response","137","272977","0.0-58.0","","null","<div style=""font-size:100px;"">+</div>","null","delaylearn","learning","ITI","5f5b4aa99a3ef626581a1473","fhy5AyrHageME9EHkVj52WzGL7f1","","","","","","","","","","","","","","","","","","","2208","",""
"html-keyboard-response","138","274330","0.0-59.0-0.0","","1350.5999999046326","<div style=""display: flex; flex-direction: column; align-items: center; margin-top: -40px;""><img src=""images/pattern_3.png"" style=""width: 234px; height: 230px; margin-top: -50px;""><div style=""display: flex; justify-content: space-between; margin-top: 33px;""><img src=""images/choice_trial_14.png"" style=""width: 408px; height: 417px; margin-right: 200px;""><img src=""images/choice_trial_12.png"" style=""width: 408px; height: 417px;""></div></div>","j","delaylearn","learning","trial","5f5b4aa99a3ef626581a1473","fhy5AyrHageME9EHkVj52WzGL7f1","2","images/choice_trial_14.png","images/choice_trial_12.png","images/pattern_3.png","j","j","7000","14","12","2","1","26","1","1","12","180","","","","",""
"html-keyboard-response","139","275341","0.0-59.0-1.0","","null","<div style=""display: flex; flex-direction: column; align-items: center; margin-top: -40px;""><img src=""images/pattern_3.png"" style=""width: 234px; height: 230px; margin-top: -50px;""><div style=""display: flex; justify-content: space-between; margin-top: 33px;""><img src=""images/choice_trial_12.png"" style=""width: 408px; height: 417px; margin-left:608px;""></div></div>","null","delaylearn","learning","display_response","5f5b4aa99a3ef626581a1473","fhy5AyrHageME9EHkVj52WzGL7f1","","","","","","","","","","","","","","","","","chosen stimuli: images/choice_trial_12.png","","","",""
"html-keyboard-response","140","282343","0.0-59.0-2.0","","null","","null","delaylearn","learning","feedback_duration_window","5f5b4aa99a3ef626581a1473","fhy5AyrHageME9EHkVj52WzGL7f1","","","","","","","","","","","","","","","","","","7000","","",""
"html-keyboard-response","141","283858","0.0-59.0-3.0","","null","<div style='margin:auto;width: auto; font-size: 150%'><span style='font-weight: bold; font-size: 100px; color: green;'>+10 points!</span><br><br></div>","null","delaylearn","learning","feedback_image_window","5f5b4aa99a3ef626581a1473","fhy5AyrHageME9EHkVj52WzGL7f1","","","","","","","","","","","","","","","","","","","","",""
"lmdlab-html-vas-response","142","290914","0.0-60.0-0.0","","5539","*How <b><u>confident</u></b> are you feeling about your answers at this moment?*","0.4324845122120934","rewlearn","rate_confidence","","5f5b4aa99a3ef626581a1473","fhy5AyrHageME9EHkVj52WzGL7f1","","","","","","","","","","","","","","","","","","","","[""No confidence"",""Complete confidence""]",""
"lmdlab-rest-trial-limit","143","296614","0.0-60.0-1.0","","4193.39999961853","<div style=""font-size:40px;""><b>Please take a break!</b><br><br><br><br><p>Great work: you earned 180 points.<br><br><br><p>You have completed part(s) 1 of 5.<br><br><br><br>When you are ready to continue<br><br><br>please click the button.</p><br><br>","0","delaylearn","learning","break","5f5b4aa99a3ef626581a1473","fhy5AyrHageME9EHkVj52WzGL7f1","","","","","","","","","","","","","","","","","","","","","0"
"html-keyboard-response","144","299632","0.0-60.0-2.0","","null","<div style=""font-size:100px;"">+</div>","null","delaylearn","learning","pre_fixation","5f5b4aa99a3ef626581a1473","","","","","","","","","","","","","","","","","","","","","",""
"lmdlab-html-vas-response","145","303940","0.0-60.0-3.0-0.0","","3296","How happy are you right now?","0.4942370405674197","delaylearn","learning","mood_baseline","5f5b4aa99a3ef626581a1473","fhy5AyrHageME9EHkVj52WzGL7f1","","","","","","","","","","","","","","","","","","","","[""Very unhappy"",""Very happy""]",""
"html-keyboard-response","146","305452","0.0-60.0-3.0-1.0","","null","","null","","","mood_baseline_fixation","","","","","","","","","","","","","","","","","","","","","","",""
"html-keyboard-response","147","307690","0.0-61.0","","null","<div style=""font-size:100px;"">+</div>","null","delaylearn","learning","ITI","5f5b4aa99a3ef626581a1473","fhy5AyrHageME9EHkVj52WzGL7f1","","","","","","","","","","","","","","","","","","","2224","",""
"html-keyboard-response","148","308587","0.0-62.0-0.0","","894.3000001907349","<div style=""display: flex; flex-direction: column; align-items: center; margin-top: -40px;""><img src=""images/pattern_7.png"" style=""width: 234px; height: 230px; margin-top: -50px;""><div style=""display: flex; justify-content: space-between; margin-top: 33px;""><img src=""images/choice_trial_15.png"" style=""width: 408px; height: 417px; margin-right: 200px;""><img src=""images/choice_trial_8.png"" style=""width: 408px; height: 417px;""></div></div>","j","delaylearn","learning","trial","5f5b4aa99a3ef626581a1473","fhy5AyrHageME9EHkVj52WzGL7f1","2","images/choice_trial_15.png","images/choice_trial_8.png","images/pattern_7.png","j","j","750","15","8","6","1","27","1","1","8","190","","","","",""
"html-keyboard-response","149","309590","0.0-62.0-1.0","","null","<div style=""display: flex; flex-direction: column; align-items: center; margin-top: -40px;""><img src=""images/pattern_7.png"" style=""width: 234px; height: 230px; margin-top: -50px;""><div style=""display: flex; justify-content: space-between; margin-top: 33px;""><img src=""images/choice_trial_8.png"" style=""width: 408px; height: 417px; margin-left:608px;""></div></div>","null","delaylearn","learning","display_response","5f5b4aa99a3ef626581a1473","fhy5AyrHageME9EHkVj52WzGL7f1","","","","","","","","","","","","","","","","","chosen stimuli: images/choice_trial_8.png","","","",""
"html-keyboard-response","150","310356","0.0-62.0-2.0","","null","","null","delaylearn","learning","feedback_duration_window","5f5b4aa99a3ef626581a1473","fhy5AyrHageME9EHkVj52WzGL7f1","","","","","","","","","","","","","","","","","","750","","",""
"html-keyboard-response","151","311866","0.0-62.0-3.0","","null","<div style='margin:auto;width: auto; font-size: 150%'><span style='font-weight: bold; font-size: 100px; color: green;'>+10 points!</span><br><br></div>","null","delaylearn","learning","feedback_image_window","5f5b4aa99a3ef626581a1473","fhy5AyrHageME9EHkVj52WzGL7f1","","","","","","","","","","","","","","","","","","","","",""
"html-keyboard-response","152","312372","0.0-63.0-0.0","","null","","null","","","mood_trial_fixation","","","","","","","","","","","","","","","","","","","","","","",""
"lmdlab-html-vas-response","153","317691","0.0-63.0-1.0","","4306","How happy are you right now?","0.5019530895867482","delaylearn","learning","mood_trial","5f5b4aa99a3ef626581a1473","fhy5AyrHageME9EHkVj52WzGL7f1","","","","","","","","","","","","","","","","","","","","[""Very unhappy"",""Very happy""]",""
"html-keyboard-response","154","320056","0.0-64.0","","null","<div style=""font-size:100px;"">+</div>","null","delaylearn","learning","ITI","5f5b4aa99a3ef626581a1473","fhy5AyrHageME9EHkVj52WzGL7f1","","","","","","","","","","","","","","","","","","","2357","",""
"html-keyboard-response","155","321168","0.0-65.0-0.0","","1109.6999998092651","<div style=""display: flex; flex-direction: column; align-items: center; margin-top: -40px;""><img src=""images/pattern_1.png"" style=""width: 234px; height: 230px; margin-top: -50px;""><div style=""display: flex; justify-content: space-between; margin-top: 33px;""><img src=""images/choice_trial_3.png"" style=""width: 408px; height: 417px; margin-right: 200px;""><img src=""images/choice_trial_10.png"" style=""width: 408px; height: 417px;""></div></div>","j","delaylearn","learning","trial","5f5b4aa99a3ef626581a1473","fhy5AyrHageME9EHkVj52WzGL7f1","2","images/choice_trial_3.png","images/choice_trial_10.png","images/pattern_1.png","f","f","7000","3","10","1","0","28","0","0","10","190","","","","",""
"html-keyboard-response","156","322175","0.0-65.0-1.0","","null","<div style=""display: flex; flex-direction: column; align-items: center; margin-top: -40px;""><img src=""images/pattern_1.png"" style=""width: 234px; height: 230px; margin-top: -50px;""><div style=""display: flex; justify-content: space-between; margin-top: 33px;""><img src=""images/choice_trial_10.png"" style=""width: 408px; height: 417px; margin-left:608px;""></div></div>","null","delaylearn","learning","display_response","5f5b4aa99a3ef626581a1473","fhy5AyrHageME9EHkVj52WzGL7f1","","","","","","","","","","","","","","","","","chosen stimuli: images/choice_trial_10.png","","","",""
"html-keyboard-response","157","329190","0.0-65.0-2.0","","null","","null","delaylearn","learning","feedback_duration_window","5f5b4aa99a3ef626581a1473","fhy5AyrHageME9EHkVj52WzGL7f1","","","","","","","","","","","","","","","","","","7000","","",""
"html-keyboard-response","158","330694","0.0-65.0-3.0","","null","<div style='margin:auto;width: auto; font-size: 150%'><span style='font-weight: bold; font-size: 100px; color: red;'>0 points!</span><br><br></div>","null","delaylearn","learning","feedback_image_window","5f5b4aa99a3ef626581a1473","fhy5AyrHageME9EHkVj52WzGL7f1","","","","","","","","","","","","","","","","","","","","",""
"html-keyboard-response","159","332729","0.0-66.0","","null","<div style=""font-size:100px;"">+</div>","null","delaylearn","learning","ITI","5f5b4aa99a3ef626581a1473","fhy5AyrHageME9EHkVj52WzGL7f1","","","","","","","","","","","","","","","","","","","2018","",""
"html-keyboard-response","160","333748","0.0-67.0-0.0","","1015.8999996185303","<div style=""display: flex; flex-direction: column; align-items: center; margin-top: -40px;""><img src=""images/pattern_5.png"" style=""width: 234px; height: 230px; margin-top: -50px;""><div style=""display: flex; justify-content: space-between; margin-top: 33px;""><img src=""images/choice_trial_2.png"" style=""width: 408px; height: 417px; margin-right: 200px;""><img src=""images/choice_trial_9.png"" style=""width: 408px; height: 417px;""></div></div>","f","delaylearn","learning","trial","5f5b4aa99a3ef626581a1473","fhy5AyrHageME9EHkVj52WzGL7f1","2","images/choice_trial_2.png","images/choice_trial_9.png","images/pattern_5.png","f","f","750","2","9","4","0","29","1","1","2","200","","","","",""
"html-keyboard-response","161","334760","0.0-67.0-1.0","","null","<div style=""display: flex; flex-direction: column; align-items: center; margin-top: -40px;""><img src=""images/pattern_5.png"" style=""width: 234px; height: 230px; margin-top: -50px;""><div style=""display: flex; justify-content: space-between; margin-top: 33px;""><img src=""images/choice_trial_2.png"" style=""width: 408px; height: 417px; margin-right: 608px;""></div></div>","null","delaylearn","learning","display_response","5f5b4aa99a3ef626581a1473","fhy5AyrHageME9EHkVj52WzGL7f1","","","","","","","","","","","","","","","","","chosen stimuli: images/choice_trial_2.png","","","",""
"html-keyboard-response","162","335525","0.0-67.0-2.0","","null","","null","delaylearn","learning","feedback_duration_window","5f5b4aa99a3ef626581a1473","fhy5AyrHageME9EHkVj52WzGL7f1","","","","","","","","","","","","","","","","","","750","","",""
"html-keyboard-response","163","337029","0.0-67.0-3.0","","null","<div style='margin:auto;width: auto; font-size: 150%'><span style='font-weight: bold; font-size: 100px; color: green;'>+10 points!</span><br><br></div>","null","delaylearn","learning","feedback_image_window","5f5b4aa99a3ef626581a1473","fhy5AyrHageME9EHkVj52WzGL7f1","","","","","","","","","","","","","","","","","","","","",""
"html-keyboard-response","164","339098","0.0-68.0","","null","<div style=""font-size:100px;"">+</div>","null","delaylearn","learning","ITI","5f5b4aa99a3ef626581a1473","fhy5AyrHageME9EHkVj52WzGL7f1","","","","","","","","","","","","","","","","","","","2056","",""
"html-keyboard-response","165","340377","0.0-69.0-0.0","","1276.5999999046326","<div style=""display: flex; flex-direction: column; align-items: center; margin-top: -40px;""><img src=""images/pattern_6.png"" style=""width: 234px; height: 230px; margin-top: -50px;""><div style=""display: flex; justify-content: space-between; margin-top: 33px;""><img src=""images/choice_trial_5.png"" style=""width: 408px; height: 417px; margin-right: 200px;""><img src=""images/choice_trial_11.png"" style=""width: 408px; height: 417px;""></div></div>","j","delaylearn","learning","trial","5f5b4aa99a3ef626581a1473","fhy5AyrHageME9EHkVj52WzGL7f1","2","images/choice_trial_5.png","images/choice_trial_11.png","images/pattern_6.png","j","j","750","5","11","5","1","30","1","1","11","210","","","","",""
"html-keyboard-response","166","341380","0.0-69.0-1.0","","null","<div style=""display: flex; flex-direction: column; align-items: center; margin-top: -40px;""><img src=""images/pattern_6.png"" style=""width: 234px; height: 230px; margin-top: -50px;""><div style=""display: flex; justify-content: space-between; margin-top: 33px;""><img src=""images/choice_trial_11.png"" style=""width: 408px; height: 417px; margin-left:608px;""></div></div>","null","delaylearn","learning","display_response","5f5b4aa99a3ef626581a1473","fhy5AyrHageME9EHkVj52WzGL7f1","","","","","","","","","","","","","","","","","chosen stimuli: images/choice_trial_11.png","","","",""
"html-keyboard-response","167","342139","0.0-69.0-2.0","","null","","null","delaylearn","learning","feedback_duration_window","5f5b4aa99a3ef626581a1473","fhy5AyrHageME9EHkVj52WzGL7f1","","","","","","","","","","","","","","","","","","750","","",""
"html-keyboard-response","168","343646","0.0-69.0-3.0","","null","<div style='margin:auto;width: auto; font-size: 150%'><span style='font-weight: bold; font-size: 100px; color: green;'>+10 points!</span><br><br></div>","null","delaylearn","learning","feedback_image_window","5f5b4aa99a3ef626581a1473","fhy5AyrHageME9EHkVj52WzGL7f1","","","","","","","","","","","","","","","","","","","","",""
"html-keyboard-response","169","344154","0.0-70.0-0.0","","null","","null","","","mood_trial_fixation","","","","","","","","","","","","","","","","","","","","","","",""
"lmdlab-html-vas-response","170","348425","0.0-70.0-1.0","","3256","How happy are you right now?","0.5386043224285586","delaylearn","learning","mood_trial","5f5b4aa99a3ef626581a1473","fhy5AyrHageME9EHkVj52WzGL7f1","","","","","","","","","","","","","","","","","","","","[""Very unhappy"",""Very happy""]",""
"html-keyboard-response","171","350102","0.0-71.0","","null","<div style=""font-size:100px;"">+</div>","null","delaylearn","learning","ITI","5f5b4aa99a3ef626581a1473","fhy5AyrHageME9EHkVj52WzGL7f1","","","","","","","","","","","","","","","","","","","1667","",""
"html-keyboard-response","172","352464","0.0-72.0-0.0","","2359.800000190735","<div style=""display: flex; flex-direction: column; align-items: center; margin-top: -40px;""><img src=""images/pattern_4.png"" style=""width: 234px; height: 230px; margin-top: -50px;""><div style=""display: flex; justify-content: space-between; margin-top: 33px;""><img src=""images/choice_trial_16.png"" style=""width: 408px; height: 417px; margin-right: 200px;""><img src=""images/choice_trial_4.png"" style=""width: 408px; height: 417px;""></div></div>","f","delaylearn","learning","trial","5f5b4aa99a3ef626581a1473","fhy5AyrHageME9EHkVj52WzGL7f1","2","images/choice_trial_16.png","images/choice_trial_4.png","images/pattern_4.png","j","j","7000","16","4","3","1","31","0","0","16","210","","","","",""
"html-keyboard-response","173","353477","0.0-72.0-1.0","","null","<div style=""display: flex; flex-direction: column; align-items: center; margin-top: -40px;""><img src=""images/pattern_4.png"" style=""width: 234px; height: 230px; margin-top: -50px;""><div style=""display: flex; justify-content: space-between; margin-top: 33px;""><img src=""images/choice_trial_16.png"" style=""width: 408px; height: 417px; margin-right: 608px;""></div></div>","null","delaylearn","learning","display_response","5f5b4aa99a3ef626581a1473","fhy5AyrHageME9EHkVj52WzGL7f1","","","","","","","","","","","","","","","","","chosen stimuli: images/choice_trial_16.png","","","",""
"html-keyboard-response","174","360484","0.0-72.0-2.0","","null","","null","delaylearn","learning","feedback_duration_window","5f5b4aa99a3ef626581a1473","fhy5AyrHageME9EHkVj52WzGL7f1","","","","","","","","","","","","","","","","","","7000","","",""
"html-keyboard-response","175","361995","0.0-72.0-3.0","","null","<div style='margin:auto;width: auto; font-size: 150%'><span style='font-weight: bold; font-size: 100px; color: red;'>0 points!</span><br><br></div>","null","delaylearn","learning","feedback_image_window","5f5b4aa99a3ef626581a1473","fhy5AyrHageME9EHkVj52WzGL7f1","","","","","","","","","","","","","","","","","","","","",""
"html-keyboard-response","176","364175","0.0-73.0","","null","<div style=""font-size:100px;"">+</div>","null","delaylearn","learning","ITI","5f5b4aa99a3ef626581a1473","fhy5AyrHageME9EHkVj52WzGL7f1","","","","","","","","","","","","","","","","","","","2176","",""
"html-keyboard-response","177","365818","0.0-74.0-0.0","","1640.6000003814697","<div style=""display: flex; flex-direction: column; align-items: center; margin-top: -40px;""><img src=""images/pattern_3.png"" style=""width: 234px; height: 230px; margin-top: -50px;""><div style=""display: flex; justify-content: space-between; margin-top: 33px;""><img src=""images/choice_trial_14.png"" style=""width: 408px; height: 417px; margin-right: 200px;""><img src=""images/choice_trial_12.png"" style=""width: 408px; height: 417px;""></div></div>","j","delaylearn","learning","trial","5f5b4aa99a3ef626581a1473","fhy5AyrHageME9EHkVj52WzGL7f1","2","images/choice_trial_14.png","images/choice_trial_12.png","images/pattern_3.png","j","j","7000","14","12","2","1","32","1","1","12","220","","","","",""
"html-keyboard-response","178","366826","0.0-74.0-1.0","","null","<div style=""display: flex; flex-direction: column; align-items: center; margin-top: -40px;""><img src=""images/pattern_3.png"" style=""width: 234px; height: 230px; margin-top: -50px;""><div style=""display: flex; justify-content: space-between; margin-top: 33px;""><img src=""images/choice_trial_12.png"" style=""width: 408px; height: 417px; margin-left:608px;""></div></div>","null","delaylearn","learning","display_response","5f5b4aa99a3ef626581a1473","fhy5AyrHageME9EHkVj52WzGL7f1","","","","","","","","","","","","","","","","","chosen stimuli: images/choice_trial_12.png","","","",""
"html-keyboard-response","179","373839","0.0-74.0-2.0","","null","","null","delaylearn","learning","feedback_duration_window","5f5b4aa99a3ef626581a1473","fhy5AyrHageME9EHkVj52WzGL7f1","","","","","","","","","","","","","","","","","","7000","","",""
"html-keyboard-response","180","375351","0.0-74.0-3.0","","null","<div style='margin:auto;width: auto; font-size: 150%'><span style='font-weight: bold; font-size: 100px; color: green;'>+10 points!</span><br><br></div>","null","delaylearn","learning","feedback_image_window","5f5b4aa99a3ef626581a1473","fhy5AyrHageME9EHkVj52WzGL7f1","","","","","","","","","","","","","","","","","","","","",""
"html-keyboard-response","181","377274","0.0-75.0","","null","<div style=""font-size:100px;"">+</div>","null","delaylearn","learning","ITI","5f5b4aa99a3ef626581a1473","fhy5AyrHageME9EHkVj52WzGL7f1","","","","","","","","","","","","","","","","","","","1920","",""
"html-keyboard-response","182","378199","0.0-76.0-0.0","","923","<div style=""display: flex; flex-direction: column; align-items: center; margin-top: -40px;""><img src=""images/pattern_5.png"" style=""width: 234px; height: 230px; margin-top: -50px;""><div style=""display: flex; justify-content: space-between; margin-top: 33px;""><img src=""images/choice_trial_2.png"" style=""width: 408px; height: 417px; margin-right: 200px;""><img src=""images/choice_trial_9.png"" style=""width: 408px; height: 417px;""></div></div>","f","delaylearn","learning","trial","5f5b4aa99a3ef626581a1473","fhy5AyrHageME9EHkVj52WzGL7f1","2","images/choice_trial_2.png","images/choice_trial_9.png","images/pattern_5.png","j","f","750","2","9","4","0","33","1","0","2","220","","","","",""
"html-keyboard-response","183","379203","0.0-76.0-1.0","","null","<div style=""display: flex; flex-direction: column; align-items: center; margin-top: -40px;""><img src=""images/pattern_5.png"" style=""width: 234px; height: 230px; margin-top: -50px;""><div style=""display: flex; justify-content: space-between; margin-top: 33px;""><img src=""images/choice_trial_2.png"" style=""width: 408px; height: 417px; margin-right: 608px;""></div></div>","null","delaylearn","learning","display_response","5f5b4aa99a3ef626581a1473","fhy5AyrHageME9EHkVj52WzGL7f1","","","","","","","","","","","","","","","","","chosen stimuli: images/choice_trial_2.png","","","",""
"html-keyboard-response","184","379956","0.0-76.0-2.0","","null","","null","delaylearn","learning","feedback_duration_window","5f5b4aa99a3ef626581a1473","fhy5AyrHageME9EHkVj52WzGL7f1","","","","","","","","","","","","","","","","","","750","","",""
"html-keyboard-response","185","381468","0.0-76.0-3.0","","null","<div style='margin:auto;width: auto; font-size: 150%'><span style='font-weight: bold; font-size: 100px; color: red;'>0 points!</span><br><br></div>","null","delaylearn","learning","feedback_image_window","5f5b4aa99a3ef626581a1473","fhy5AyrHageME9EHkVj52WzGL7f1","","","","","","","","","","","","","","","","","","","","",""
"html-keyboard-response","186","383641","0.0-77.0","","null","<div style=""font-size:100px;"">+</div>","null","delaylearn","learning","ITI","5f5b4aa99a3ef626581a1473","fhy5AyrHageME9EHkVj52WzGL7f1","","","","","","","","","","","","","","","","","","","2166","",""
"html-keyboard-response","187","385635","0.0-78.0-0.0","","1991.1999998092651","<div style=""display: flex; flex-direction: column; align-items: center; margin-top: -40px;""><img src=""images/pattern_1.png"" style=""width: 234px; height: 230px; margin-top: -50px;""><div style=""display: flex; justify-content: space-between; margin-top: 33px;""><img src=""images/choice_trial_3.png"" style=""width: 408px; height: 417px; margin-right: 200px;""><img src=""images/choice_trial_10.png"" style=""width: 408px; height: 417px;""></div></div>","f","delaylearn","learning","trial","5f5b4aa99a3ef626581a1473","fhy5AyrHageME9EHkVj52WzGL7f1","2","images/choice_trial_3.png","images/choice_trial_10.png","images/pattern_1.png","f","f","7000","3","10","1","0","34","1","1","3","230","","","","",""
"html-keyboard-response","188","386642","0.0-78.0-1.0","","null","<div style=""display: flex; flex-direction: column; align-items: center; margin-top: -40px;""><img src=""images/pattern_1.png"" style=""width: 234px; height: 230px; margin-top: -50px;""><div style=""display: flex; justify-content: space-between; margin-top: 33px;""><img src=""images/choice_trial_3.png"" style=""width: 408px; height: 417px; margin-right: 608px;""></div></div>","null","delaylearn","learning","display_response","5f5b4aa99a3ef626581a1473","fhy5AyrHageME9EHkVj52WzGL7f1","","","","","","","","","","","","","","","","","chosen stimuli: images/choice_trial_3.png","","","",""
"html-keyboard-response","189","393654","0.0-78.0-2.0","","null","","null","delaylearn","learning","feedback_duration_window","5f5b4aa99a3ef626581a1473","fhy5AyrHageME9EHkVj52WzGL7f1","","","","","","","","","","","","","","","","","","7000","","",""
"html-keyboard-response","190","395165","0.0-78.0-3.0","","null","<div style='margin:auto;width: auto; font-size: 150%'><span style='font-weight: bold; font-size: 100px; color: green;'>+10 points!</span><br><br></div>","null","delaylearn","learning","feedback_image_window","5f5b4aa99a3ef626581a1473","fhy5AyrHageME9EHkVj52WzGL7f1","","","","","","","","","","","","","","","","","","","","",""
"html-keyboard-response","191","395670","0.0-79.0-0.0","","null","","null","","","mood_trial_fixation","","","","","","","","","","","","","","","","","","","","","","",""
"lmdlab-html-vas-response","192","399891","0.0-79.0-1.0","","3203","How happy are you right now?","0.42286358713863104","delaylearn","learning","mood_trial","5f5b4aa99a3ef626581a1473","fhy5AyrHageME9EHkVj52WzGL7f1","","","","","","","","","","","","","","","","","","","","[""Very unhappy"",""Very happy""]",""
"html-keyboard-response","193","402073","0.0-80.0","","null","<div style=""font-size:100px;"">+</div>","null","delaylearn","learning","ITI","5f5b4aa99a3ef626581a1473","fhy5AyrHageME9EHkVj52WzGL7f1","","","","","","","","","","","","","","","","","","","2169","",""
"html-keyboard-response","194","404727","0.0-81.0-0.0","","2651.9000000953674","<div style=""display: flex; flex-direction: column; align-items: center; margin-top: -40px;""><img src=""images/pattern_6.png"" style=""width: 234px; height: 230px; margin-top: -50px;""><div style=""display: flex; justify-content: space-between; margin-top: 33px;""><img src=""images/choice_trial_11.png"" style=""width: 408px; height: 417px; margin-right: 200px;""><img src=""images/choice_trial_5.png"" style=""width: 408px; height: 417px;""></div></div>","f","delaylearn","learning","trial","5f5b4aa99a3ef626581a1473","fhy5AyrHageME9EHkVj52WzGL7f1","2","images/choice_trial_11.png","images/choice_trial_5.png","images/pattern_6.png","j","f","750","11","5","5","0","35","1","0","11","230","","","","",""
"html-keyboard-response","195","405746","0.0-81.0-1.0","","null","<div style=""display: flex; flex-direction: column; align-items: center; margin-top: -40px;""><img src=""images/pattern_6.png"" style=""width: 234px; height: 230px; margin-top: -50px;""><div style=""display: flex; justify-content: space-between; margin-top: 33px;""><img src=""images/choice_trial_11.png"" style=""width: 408px; height: 417px; margin-right: 608px;""></div></div>","null","delaylearn","learning","display_response","5f5b4aa99a3ef626581a1473","fhy5AyrHageME9EHkVj52WzGL7f1","","","","","","","","","","","","","","","","","chosen stimuli: images/choice_trial_11.png","","","",""
"html-keyboard-response","196","406508","0.0-81.0-2.0","","null","","null","delaylearn","learning","feedback_duration_window","5f5b4aa99a3ef626581a1473","fhy5AyrHageME9EHkVj52WzGL7f1","","","","","","","","","","","","","","","","","","750","","",""
"html-keyboard-response","197","408012","0.0-81.0-3.0","","null","<div style='margin:auto;width: auto; font-size: 150%'><span style='font-weight: bold; font-size: 100px; color: red;'>0 points!</span><br><br></div>","null","delaylearn","learning","feedback_image_window","5f5b4aa99a3ef626581a1473","fhy5AyrHageME9EHkVj52WzGL7f1","","","","","","","","","","","","","","","","","","","","",""
"html-keyboard-response","198","409585","0.0-82.0","","null","<div style=""font-size:100px;"">+</div>","null","delaylearn","learning","ITI","5f5b4aa99a3ef626581a1473","fhy5AyrHageME9EHkVj52WzGL7f1","","","","","","","","","","","","","","","","","","","1558","",""
"html-keyboard-response","199","410579","0.0-83.0-0.0","","990.7000002861023","<div style=""display: flex; flex-direction: column; align-items: center; margin-top: -40px;""><img src=""images/pattern_3.png"" style=""width: 234px; height: 230px; margin-top: -50px;""><div style=""display: flex; justify-content: space-between; margin-top: 33px;""><img src=""images/choice_trial_14.png"" style=""width: 408px; height: 417px; margin-right: 200px;""><img src=""images/choice_trial_12.png"" style=""width: 408px; height: 417px;""></div></div>","j","delaylearn","learning","trial","5f5b4aa99a3ef626581a1473","fhy5AyrHageME9EHkVj52WzGL7f1","2","images/choice_trial_14.png","images/choice_trial_12.png","images/pattern_3.png","j","j","7000","14","12","2","1","36","1","1","12","240","","","","",""
"html-keyboard-response","200","411594","0.0-83.0-1.0","","null","<div style=""display: flex; flex-direction: column; align-items: center; margin-top: -40px;""><img src=""images/pattern_3.png"" style=""width: 234px; height: 230px; margin-top: -50px;""><div style=""display: flex; justify-content: space-between; margin-top: 33px;""><img src=""images/choice_trial_12.png"" style=""width: 408px; height: 417px; margin-left:608px;""></div></div>","null","delaylearn","learning","display_response","5f5b4aa99a3ef626581a1473","fhy5AyrHageME9EHkVj52WzGL7f1","","","","","","","","","","","","","","","","","chosen stimuli: images/choice_trial_12.png","","","",""
"html-keyboard-response","201","418606","0.0-83.0-2.0","","null","","null","delaylearn","learning","feedback_duration_window","5f5b4aa99a3ef626581a1473","fhy5AyrHageME9EHkVj52WzGL7f1","","","","","","","","","","","","","","","","","","7000","","",""
"html-keyboard-response","202","420116","0.0-83.0-3.0","","null","<div style='margin:auto;width: auto; font-size: 150%'><span style='font-weight: bold; font-size: 100px; color: green;'>+10 points!</span><br><br></div>","null","delaylearn","learning","feedback_image_window","5f5b4aa99a3ef626581a1473","fhy5AyrHageME9EHkVj52WzGL7f1","","","","","","","","","","","","","","","","","","","","",""
"html-keyboard-response","203","421977","0.0-84.0","","null","<div style=""font-size:100px;"">+</div>","null","delaylearn","learning","ITI","5f5b4aa99a3ef626581a1473","fhy5AyrHageME9EHkVj52WzGL7f1","","","","","","","","","","","","","","","","","","","1852","",""
"html-keyboard-response","204","422951","0.0-85.0-0.0","","970.7000002861023","<div style=""display: flex; flex-direction: column; align-items: center; margin-top: -40px;""><img src=""images/pattern_4.png"" style=""width: 234px; height: 230px; margin-top: -50px;""><div style=""display: flex; justify-content: space-between; margin-top: 33px;""><img src=""images/choice_trial_16.png"" style=""width: 408px; height: 417px; margin-right: 200px;""><img src=""images/choice_trial_4.png"" style=""width: 408px; height: 417px;""></div></div>","j","delaylearn","learning","trial","5f5b4aa99a3ef626581a1473","fhy5AyrHageME9EHkVj52WzGL7f1","2","images/choice_trial_16.png","images/choice_trial_4.png","images/pattern_4.png","f","j","7000","16","4","3","1","37","1","0","4","240","","","","",""
"html-keyboard-response","205","423968","0.0-85.0-1.0","","null","<div style=""display: flex; flex-direction: column; align-items: center; margin-top: -40px;""><img src=""images/pattern_4.png"" style=""width: 234px; height: 230px; margin-top: -50px;""><div style=""display: flex; justify-content: space-between; margin-top: 33px;""><img src=""images/choice_trial_4.png"" style=""width: 408px; height: 417px; margin-left:608px;""></div></div>","null","delaylearn","learning","display_response","5f5b4aa99a3ef626581a1473","fhy5AyrHageME9EHkVj52WzGL7f1","","","","","","","","","","","","","","","","","chosen stimuli: images/choice_trial_4.png","","","",""
"html-keyboard-response","206","430981","0.0-85.0-2.0","","null","","null","delaylearn","learning","feedback_duration_window","5f5b4aa99a3ef626581a1473","fhy5AyrHageME9EHkVj52WzGL7f1","","","","","","","","","","","","","","","","","","7000","","",""
"html-keyboard-response","207","432496","0.0-85.0-3.0","","null","<div style='margin:auto;width: auto; font-size: 150%'><span style='font-weight: bold; font-size: 100px; color: red;'>0 points!</span><br><br></div>","null","delaylearn","learning","feedback_image_window","5f5b4aa99a3ef626581a1473","fhy5AyrHageME9EHkVj52WzGL7f1","","","","","","","","","","","","","","","","","","","","",""
"html-keyboard-response","208","434031","0.0-86.0","","null","<div style=""font-size:100px;"">+</div>","null","delaylearn","learning","ITI","5f5b4aa99a3ef626581a1473","fhy5AyrHageME9EHkVj52WzGL7f1","","","","","","","","","","","","","","","","","","","1521","",""
"html-keyboard-response","209","435078","0.0-87.0-0.0","","1043.3999996185303","<div style=""display: flex; flex-direction: column; align-items: center; margin-top: -40px;""><img src=""images/pattern_7.png"" style=""width: 234px; height: 230px; margin-top: -50px;""><div style=""display: flex; justify-content: space-between; margin-top: 33px;""><img src=""images/choice_trial_8.png"" style=""width: 408px; height: 417px; margin-right: 200px;""><img src=""images/choice_trial_15.png"" style=""width: 408px; height: 417px;""></div></div>","f","delaylearn","learning","trial","5f5b4aa99a3ef626581a1473","fhy5AyrHageME9EHkVj52WzGL7f1","2","images/choice_trial_8.png","images/choice_trial_15.png","images/pattern_7.png","f","f","750","8","15","6","0","38","1","1","8","250","","","","",""
"html-keyboard-response","210","436094","0.0-87.0-1.0","","null","<div style=""display: flex; flex-direction: column; align-items: center; margin-top: -40px;""><img src=""images/pattern_7.png"" style=""width: 234px; height: 230px; margin-top: -50px;""><div style=""display: flex; justify-content: space-between; margin-top: 33px;""><img src=""images/choice_trial_8.png"" style=""width: 408px; height: 417px; margin-right: 608px;""></div></div>","null","delaylearn","learning","display_response","5f5b4aa99a3ef626581a1473","fhy5AyrHageME9EHkVj52WzGL7f1","","","","","","","","","","","","","","","","","chosen stimuli: images/choice_trial_8.png","","","",""
"html-keyboard-response","211","436856","0.0-87.0-2.0","","null","","null","delaylearn","learning","feedback_duration_window","5f5b4aa99a3ef626581a1473","fhy5AyrHageME9EHkVj52WzGL7f1","","","","","","","","","","","","","","","","","","750","","",""
"html-keyboard-response","212","438365","0.0-87.0-3.0","","null","<div style='margin:auto;width: auto; font-size: 150%'><span style='font-weight: bold; font-size: 100px; color: green;'>+10 points!</span><br><br></div>","null","delaylearn","learning","feedback_image_window","5f5b4aa99a3ef626581a1473","fhy5AyrHageME9EHkVj52WzGL7f1","","","","","","","","","","","","","","","","","","","","",""
"html-keyboard-response","213","440466","0.0-88.0","","null","<div style=""font-size:100px;"">+</div>","null","delaylearn","learning","ITI","5f5b4aa99a3ef626581a1473","fhy5AyrHageME9EHkVj52WzGL7f1","","","","","","","","","","","","","","","","","","","2091","",""
"html-keyboard-response","214","441802","0.0-89.0-0.0","","1333.3000001907349","<div style=""display: flex; flex-direction: column; align-items: center; margin-top: -40px;""><img src=""images/pattern_1.png"" style=""width: 234px; height: 230px; margin-top: -50px;""><div style=""display: flex; justify-content: space-between; margin-top: 33px;""><img src=""images/choice_trial_3.png"" style=""width: 408px; height: 417px; margin-right: 200px;""><img src=""images/choice_trial_10.png"" style=""width: 408px; height: 417px;""></div></div>","f","delaylearn","learning","trial","5f5b4aa99a3ef626581a1473","fhy5AyrHageME9EHkVj52WzGL7f1","2","images/choice_trial_3.png","images/choice_trial_10.png","images/pattern_1.png","f","f","7000","3","10","1","0","39","1","1","3","260","","","","",""
"html-keyboard-response","215","442807","0.0-89.0-1.0","","null","<div style=""display: flex; flex-direction: column; align-items: center; margin-top: -40px;""><img src=""images/pattern_1.png"" style=""width: 234px; height: 230px; margin-top: -50px;""><div style=""display: flex; justify-content: space-between; margin-top: 33px;""><img src=""images/choice_trial_3.png"" style=""width: 408px; height: 417px; margin-right: 608px;""></div></div>","null","delaylearn","learning","display_response","5f5b4aa99a3ef626581a1473","fhy5AyrHageME9EHkVj52WzGL7f1","","","","","","","","","","","","","","","","","chosen stimuli: images/choice_trial_3.png","","","",""
"html-keyboard-response","216","449822","0.0-89.0-2.0","","null","","null","delaylearn","learning","feedback_duration_window","5f5b4aa99a3ef626581a1473","fhy5AyrHageME9EHkVj52WzGL7f1","","","","","","","","","","","","","","","","","","7000","","",""
"html-keyboard-response","217","451335","0.0-89.0-3.0","","null","<div style='margin:auto;width: auto; font-size: 150%'><span style='font-weight: bold; font-size: 100px; color: green;'>+10 points!</span><br><br></div>","null","delaylearn","learning","feedback_image_window","5f5b4aa99a3ef626581a1473","fhy5AyrHageME9EHkVj52WzGL7f1","","","","","","","","","","","","","","","","","","","","",""
"html-keyboard-response","218","451839","0.0-90.0-0.0","","null","","null","","","mood_trial_fixation","","","","","","","","","","","","","","","","","","","","","","",""
"lmdlab-html-vas-response","219","456395","0.0-90.0-1.0","","3540","How happy are you right now?","0.37078025625816363","delaylearn","learning","mood_trial","5f5b4aa99a3ef626581a1473","fhy5AyrHageME9EHkVj52WzGL7f1","","","","","","","","","","","","","","","","","","","","[""Very unhappy"",""Very happy""]",""
"html-keyboard-response","220","458407","0.0-91.0","","null","<div style=""font-size:100px;"">+</div>","null","delaylearn","learning","ITI","5f5b4aa99a3ef626581a1473","fhy5AyrHageME9EHkVj52WzGL7f1","","","","","","","","","","","","","","","","","","","2002","",""
