"trial_type","trial_index","time_elapsed","internal_node_id","participant","rt","stimulus","response","exp_name","exp_stage","test_part","subjectID","databaseID","counterbal","choice_stimuli_1","choice_stimuli_2","pattern_stimuli","rewarded_answer","correct_answer","feedback_duration_times","stim_left","stim_right","pair","leftright_counter","trial","response_correct","response_rewarded","chosen_stim","counter","displayed_choice","feedback_durations","ITI_duration","labels","rest_warning"
"pavlovia","0","1045","0.0-0.0","","","","","","","","","","","","","","","","","","","","","","","","","","","","","",""
"html-keyboard-response","1","4050","0.0-1.0","","null","<div style=""font-size:100px;"">+</div>","null","delaylearn","learning","pre_fixation","5ee91ec1ef56832aa7947169","not found","","","","","","","","","","","","","","","","","","","","",""
"html-keyboard-response","2","5745","0.0-2.0-0.0","","1691.7999999998137","<div style=""display: flex; flex-direction: column; align-items: center; margin-top: -40px;""><img src=""images/demo_images/pattern_1.png"" style=""width: 234px; height: 230px; margin-top: -50px;""><div style=""display: flex; justify-content: space-between; margin-top: 33px;""><img src=""images/demo_images/choice_trial_2.png"" style=""width: 408px; height: 417px; margin-right: 200px;""><img src=""images/demo_images/choice_trial_1.png"" style=""width: 408px; height: 417px;""></div></div>","f","delaylearn","learning","trial","5ee91ec1ef56832aa7947169","NGNuEau595V5JttzXFtsMnje45B2","3","images/demo_images/choice_trial_2.png","images/demo_images/choice_trial_1.png","images/demo_images/pattern_1.png","j","j","3000","2","1","20","1","1","0","0","2","0","","","","",""
"html-keyboard-response","3","6749","0.0-2.0-1.0","","null","<div style=""display: flex; flex-direction: column; align-items: center; margin-top: -40px;""><img src=""images/demo_images/pattern_1.png"" style=""width: 234px; height: 230px; margin-top: -50px;""><div style=""display: flex; justify-content: space-between; margin-top: 33px;""><img src=""images/demo_images/choice_trial_2.png"" style=""width: 408px; height: 417px; margin-right: 608px;""></div></div>","null","delaylearn","learning","display_response","5ee91ec1ef56832aa7947169","NGNuEau595V5JttzXFtsMnje45B2","","","","","","","","","","","","","","","","","chosen stimuli: images/demo_images/choice_trial_2.png","","","",""
"html-keyboard-response","4","9759","0.0-2.0-2.0","","null","","null","delaylearn","learning","feedback_duration_window","5ee91ec1ef56832aa7947169","NGNuEau595V5JttzXFtsMnje45B2","","","","","","","","","","","","","","","","","","3000","","",""
"html-keyboard-response","5","11273","0.0-2.0-3.0","","null","<div style='margin:auto;width: auto; font-size: 150%'><span style='font-weight: bold; font-size: 100px; color: red;'>0 points!</span><br><br></div>","null","delaylearn","learning","feedback_image_window","5ee91ec1ef56832aa7947169","NGNuEau595V5JttzXFtsMnje45B2","","","","","","","","","","","","","","","","","","","","",""
"html-keyboard-response","6","12990","0.0-3.0","","null","<div style=""font-size:100px;"">+</div>","null","delaylearn","learning","ITI","5ee91ec1ef56832aa7947169","NGNuEau595V5JttzXFtsMnje45B2","","","","","","","","","","","","","","","","","","","1706","",""
"html-keyboard-response","7","14539","0.0-4.0-0.0","","1547.2999999998137","<div style=""display: flex; flex-direction: column; align-items: center; margin-top: -40px;""><img src=""images/demo_images/pattern_1.png"" style=""width: 234px; height: 230px; margin-top: -50px;""><div style=""display: flex; justify-content: space-between; margin-top: 33px;""><img src=""images/demo_images/choice_trial_2.png"" style=""width: 408px; height: 417px; margin-right: 200px;""><img src=""images/demo_images/choice_trial_1.png"" style=""width: 408px; height: 417px;""></div></div>","j","delaylearn","learning","trial","5ee91ec1ef56832aa7947169","NGNuEau595V5JttzXFtsMnje45B2","3","images/demo_images/choice_trial_2.png","images/demo_images/choice_trial_1.png","images/demo_images/pattern_1.png","j","j","3000","2","1","20","1","2","1","1","1","10","","","","",""
"html-keyboard-response","8","15546","0.0-4.0-1.0","","null","<div style=""display: flex; flex-direction: column; align-items: center; margin-top: -40px;""><img src=""images/demo_images/pattern_1.png"" style=""width: 234px; height: 230px; margin-top: -50px;""><div style=""display: flex; justify-content: space-between; margin-top: 33px;""><img src=""images/demo_images/choice_trial_1.png"" style=""width: 408px; height: 417px; margin-left:608px;""></div></div>","null","delaylearn","learning","display_response","5ee91ec1ef56832aa7947169","NGNuEau595V5JttzXFtsMnje45B2","","","","","","","","","","","","","","","","","chosen stimuli: images/demo_images/choice_trial_1.png","","","",""
"html-keyboard-response","9","18549","0.0-4.0-2.0","","null","","null","delaylearn","learning","feedback_duration_window","5ee91ec1ef56832aa7947169","NGNuEau595V5JttzXFtsMnje45B2","","","","","","","","","","","","","","","","","","3000","","",""
"html-keyboard-response","10","20054","0.0-4.0-3.0","","null","<div style='margin:auto;width: auto; font-size: 150%'><span style='font-weight: bold; font-size: 100px; color: green;'>+10 points!</span><br><br></div>","null","delaylearn","learning","feedback_image_window","5ee91ec1ef56832aa7947169","NGNuEau595V5JttzXFtsMnje45B2","","","","","","","","","","","","","","","","","","","","",""
"html-keyboard-response","11","22050","0.0-5.0","","null","<div style=""font-size:100px;"">+</div>","null","delaylearn","learning","ITI","5ee91ec1ef56832aa7947169","NGNuEau595V5JttzXFtsMnje45B2","","","","","","","","","","","","","","","","","","","1988","",""
"html-keyboard-response","12","24395","0.0-6.0-0.0","","2342.7000000001863","<div style=""display: flex; flex-direction: column; align-items: center; margin-top: -40px;""><img src=""images/demo_images/pattern_1.png"" style=""width: 234px; height: 230px; margin-top: -50px;""><div style=""display: flex; justify-content: space-between; margin-top: 33px;""><img src=""images/demo_images/choice_trial_1.png"" style=""width: 408px; height: 417px; margin-right: 200px;""><img src=""images/demo_images/choice_trial_2.png"" style=""width: 408px; height: 417px;""></div></div>","f","delaylearn","learning","trial","5ee91ec1ef56832aa7947169","NGNuEau595V5JttzXFtsMnje45B2","3","images/demo_images/choice_trial_1.png","images/demo_images/choice_trial_2.png","images/demo_images/pattern_1.png","j","f","3000","1","2","20","0","3","1","0","1","10","","","","",""
"html-keyboard-response","13","25411","0.0-6.0-1.0","","null","<div style=""display: flex; flex-direction: column; align-items: center; margin-top: -40px;""><img src=""images/demo_images/pattern_1.png"" style=""width: 234px; height: 230px; margin-top: -50px;""><div style=""display: flex; justify-content: space-between; margin-top: 33px;""><img src=""images/demo_images/choice_trial_1.png"" style=""width: 408px; height: 417px; margin-right: 608px;""></div></div>","null","delaylearn","learning","display_response","5ee91ec1ef56832aa7947169","NGNuEau595V5JttzXFtsMnje45B2","","","","","","","","","","","","","","","","","chosen stimuli: images/demo_images/choice_trial_1.png","","","",""
"html-keyboard-response","14","28418","0.0-6.0-2.0","","null","","null","delaylearn","learning","feedback_duration_window","5ee91ec1ef56832aa7947169","NGNuEau595V5JttzXFtsMnje45B2","","","","","","","","","","","","","","","","","","3000","","",""
"html-keyboard-response","15","29923","0.0-6.0-3.0","","null","<div style='margin:auto;width: auto; font-size: 150%'><span style='font-weight: bold; font-size: 100px; color: red;'>0 points!</span><br><br></div>","null","delaylearn","learning","feedback_image_window","5ee91ec1ef56832aa7947169","NGNuEau595V5JttzXFtsMnje45B2","","","","","","","","","","","","","","","","","","","","",""
"html-keyboard-response","16","31892","0.0-7.0","","null","<div style=""font-size:100px;"">+</div>","null","delaylearn","learning","ITI","5ee91ec1ef56832aa7947169","NGNuEau595V5JttzXFtsMnje45B2","","","","","","","","","","","","","","","","","","","1953","",""
"html-keyboard-response","17","34886","0.0-8.0-0.0","","2992.7000000001863","<div style=""display: flex; flex-direction: column; align-items: center; margin-top: -40px;""><img src=""images/demo_images/pattern_1.png"" style=""width: 234px; height: 230px; margin-top: -50px;""><div style=""display: flex; justify-content: space-between; margin-top: 33px;""><img src=""images/demo_images/choice_trial_1.png"" style=""width: 408px; height: 417px; margin-right: 200px;""><img src=""images/demo_images/choice_trial_2.png"" style=""width: 408px; height: 417px;""></div></div>","j","delaylearn","learning","trial","5ee91ec1ef56832aa7947169","NGNuEau595V5JttzXFtsMnje45B2","3","images/demo_images/choice_trial_1.png","images/demo_images/choice_trial_2.png","images/demo_images/pattern_1.png","f","f","3000","1","2","20","0","4","0","0","2","10","","","","",""
"html-keyboard-response","18","35907","0.0-8.0-1.0","","null","<div style=""display: flex; flex-direction: column; align-items: center; margin-top: -40px;""><img src=""images/demo_images/pattern_1.png"" style=""width: 234px; height: 230px; margin-top: -50px;""><div style=""display: flex; justify-content: space-between; margin-top: 33px;""><img src=""images/demo_images/choice_trial_2.png"" style=""width: 408px; height: 417px; margin-left:608px;""></div></div>","null","delaylearn","learning","display_response","5ee91ec1ef56832aa7947169","NGNuEau595V5JttzXFtsMnje45B2","","","","","","","","","","","","","","","","","chosen stimuli: images/demo_images/choice_trial_2.png","","","",""
"html-keyboard-response","19","38921","0.0-8.0-2.0","","null","","null","delaylearn","learning","feedback_duration_window","5ee91ec1ef56832aa7947169","NGNuEau595V5JttzXFtsMnje45B2","","","","","","","","","","","","","","","","","","3000","","",""
"html-keyboard-response","20","40427","0.0-8.0-3.0","","null","<div style='margin:auto;width: auto; font-size: 150%'><span style='font-weight: bold; font-size: 100px; color: red;'>0 points!</span><br><br></div>","null","delaylearn","learning","feedback_image_window","5ee91ec1ef56832aa7947169","NGNuEau595V5JttzXFtsMnje45B2","","","","","","","","","","","","","","","","","","","","",""
"html-keyboard-response","21","40934","0.0-9.0-0.0","","null","","null","","","mood_trial_fixation","","","","","","","","","","","","","","","","","","","","","","",""
"lmdlab-html-vas-response","22","45782","0.0-9.0-1.0","","3832","How happy are you right now?","0.3958333333333333","delaylearn","learning","mood_trial","5ee91ec1ef56832aa7947169","NGNuEau595V5JttzXFtsMnje45B2","","","","","","","","","","","","","","","","","","","","[""Very unhappy"",""Very happy""]",""
"html-keyboard-response","23","47517","0.0-10.0","","null","<div style=""font-size:100px;"">+</div>","null","delaylearn","learning","ITI","5ee91ec1ef56832aa7947169","NGNuEau595V5JttzXFtsMnje45B2","","","","","","","","","","","","","","","","","","","1719","",""
"html-keyboard-response","24","49947","0.0-11.0-0.0","","2428","<div style=""display: flex; flex-direction: column; align-items: center; margin-top: -40px;""><img src=""images/demo_images/pattern_1.png"" style=""width: 234px; height: 230px; margin-top: -50px;""><div style=""display: flex; justify-content: space-between; margin-top: 33px;""><img src=""images/demo_images/choice_trial_2.png"" style=""width: 408px; height: 417px; margin-right: 200px;""><img src=""images/demo_images/choice_trial_1.png"" style=""width: 408px; height: 417px;""></div></div>","f","delaylearn","learning","trial","5ee91ec1ef56832aa7947169","NGNuEau595V5JttzXFtsMnje45B2","3","images/demo_images/choice_trial_2.png","images/demo_images/choice_trial_1.png","images/demo_images/pattern_1.png","j","j","3000","2","1","20","1","5","0","0","2","10","","","","",""
"html-keyboard-response","25","50962","0.0-11.0-1.0","","null","<div style=""display: flex; flex-direction: column; align-items: center; margin-top: -40px;""><img src=""images/demo_images/pattern_1.png"" style=""width: 234px; height: 230px; margin-top: -50px;""><div style=""display: flex; justify-content: space-between; margin-top: 33px;""><img src=""images/demo_images/choice_trial_2.png"" style=""width: 408px; height: 417px; margin-right: 608px;""></div></div>","null","delaylearn","learning","display_response","5ee91ec1ef56832aa7947169","NGNuEau595V5JttzXFtsMnje45B2","","","","","","","","","","","","","","","","","chosen stimuli: images/demo_images/choice_trial_2.png","","","",""
"html-keyboard-response","26","53964","0.0-11.0-2.0","","null","","null","delaylearn","learning","feedback_duration_window","5ee91ec1ef56832aa7947169","NGNuEau595V5JttzXFtsMnje45B2","","","","","","","","","","","","","","","","","","3000","","",""
"html-keyboard-response","27","55467","0.0-11.0-3.0","","null","<div style='margin:auto;width: auto; font-size: 150%'><span style='font-weight: bold; font-size: 100px; color: red;'>0 points!</span><br><br></div>","null","delaylearn","learning","feedback_image_window","5ee91ec1ef56832aa7947169","NGNuEau595V5JttzXFtsMnje45B2","","","","","","","","","","","","","","","","","","","","",""
"html-keyboard-response","28","57564","0.0-12.0","","null","<div style=""font-size:100px;"">+</div>","null","delaylearn","learning","ITI","5ee91ec1ef56832aa7947169","NGNuEau595V5JttzXFtsMnje45B2","","","","","","","","","","","","","","","","","","","2077","",""
"html-keyboard-response","29","59285","0.0-13.0-0.0","","1719.1000000005588","<div style=""display: flex; flex-direction: column; align-items: center; margin-top: -40px;""><img src=""images/demo_images/pattern_1.png"" style=""width: 234px; height: 230px; margin-top: -50px;""><div style=""display: flex; justify-content: space-between; margin-top: 33px;""><img src=""images/demo_images/choice_trial_1.png"" style=""width: 408px; height: 417px; margin-right: 200px;""><img src=""images/demo_images/choice_trial_2.png"" style=""width: 408px; height: 417px;""></div></div>","f","delaylearn","learning","trial","5ee91ec1ef56832aa7947169","NGNuEau595V5JttzXFtsMnje45B2","3","images/demo_images/choice_trial_1.png","images/demo_images/choice_trial_2.png","images/demo_images/pattern_1.png","f","f","3000","1","2","20","0","6","1","1","1","20","","","","",""
"html-keyboard-response","30","60288","0.0-13.0-1.0","","null","<div style=""display: flex; flex-direction: column; align-items: center; margin-top: -40px;""><img src=""images/demo_images/pattern_1.png"" style=""width: 234px; height: 230px; margin-top: -50px;""><div style=""display: flex; justify-content: space-between; margin-top: 33px;""><img src=""images/demo_images/choice_trial_1.png"" style=""width: 408px; height: 417px; margin-right: 608px;""></div></div>","null","delaylearn","learning","display_response","5ee91ec1ef56832aa7947169","NGNuEau595V5JttzXFtsMnje45B2","","","","","","","","","","","","","","","","","chosen stimuli: images/demo_images/choice_trial_1.png","","","",""
"html-keyboard-response","31","63304","0.0-13.0-2.0","","null","","null","delaylearn","learning","feedback_duration_window","5ee91ec1ef56832aa7947169","NGNuEau595V5JttzXFtsMnje45B2","","","","","","","","","","","","","","","","","","3000","","",""
"html-keyboard-response","32","64810","0.0-13.0-3.0","","null","<div style='margin:auto;width: auto; font-size: 150%'><span style='font-weight: bold; font-size: 100px; color: green;'>+10 points!</span><br><br></div>","null","delaylearn","learning","feedback_image_window","5ee91ec1ef56832aa7947169","NGNuEau595V5JttzXFtsMnje45B2","","","","","","","","","","","","","","","","","","","","",""
"html-keyboard-response","33","66604","0.0-14.0","","null","<div style=""font-size:100px;"">+</div>","null","delaylearn","learning","ITI","5ee91ec1ef56832aa7947169","NGNuEau595V5JttzXFtsMnje45B2","","","","","","","","","","","","","","","","","","","1792","",""
"html-keyboard-response","34","67774","0.0-15.0-0.0","","1167.3999999994412","<div style=""display: flex; flex-direction: column; align-items: center; margin-top: -40px;""><img src=""images/demo_images/pattern_1.png"" style=""width: 234px; height: 230px; margin-top: -50px;""><div style=""display: flex; justify-content: space-between; margin-top: 33px;""><img src=""images/demo_images/choice_trial_2.png"" style=""width: 408px; height: 417px; margin-right: 200px;""><img src=""images/demo_images/choice_trial_1.png"" style=""width: 408px; height: 417px;""></div></div>","j","delaylearn","learning","trial","5ee91ec1ef56832aa7947169","NGNuEau595V5JttzXFtsMnje45B2","3","images/demo_images/choice_trial_2.png","images/demo_images/choice_trial_1.png","images/demo_images/pattern_1.png","j","j","3000","2","1","20","1","7","1","1","1","30","","","","",""
"html-keyboard-response","35","68788","0.0-15.0-1.0","","null","<div style=""display: flex; flex-direction: column; align-items: center; margin-top: -40px;""><img src=""images/demo_images/pattern_1.png"" style=""width: 234px; height: 230px; margin-top: -50px;""><div style=""display: flex; justify-content: space-between; margin-top: 33px;""><img src=""images/demo_images/choice_trial_1.png"" style=""width: 408px; height: 417px; margin-left:608px;""></div></div>","null","delaylearn","learning","display_response","5ee91ec1ef56832aa7947169","NGNuEau595V5JttzXFtsMnje45B2","","","","","","","","","","","","","","","","","chosen stimuli: images/demo_images/choice_trial_1.png","","","",""
"html-keyboard-response","36","71790","0.0-15.0-2.0","","null","","null","delaylearn","learning","feedback_duration_window","5ee91ec1ef56832aa7947169","NGNuEau595V5JttzXFtsMnje45B2","","","","","","","","","","","","","","","","","","3000","","",""
"html-keyboard-response","37","73302","0.0-15.0-3.0","","null","<div style='margin:auto;width: auto; font-size: 150%'><span style='font-weight: bold; font-size: 100px; color: green;'>+10 points!</span><br><br></div>","null","delaylearn","learning","feedback_image_window","5ee91ec1ef56832aa7947169","NGNuEau595V5JttzXFtsMnje45B2","","","","","","","","","","","","","","","","","","","","",""
"html-keyboard-response","38","75142","0.0-16.0","","null","<div style=""font-size:100px;"">+</div>","null","delaylearn","learning","ITI","5ee91ec1ef56832aa7947169","NGNuEau595V5JttzXFtsMnje45B2","","","","","","","","","","","","","","","","","","","1832","",""
"html-keyboard-response","39","75798","0.0-17.0-0.0","","654.3999999994412","<div style=""display: flex; flex-direction: column; align-items: center; margin-top: -40px;""><img src=""images/demo_images/pattern_1.png"" style=""width: 234px; height: 230px; margin-top: -50px;""><div style=""display: flex; justify-content: space-between; margin-top: 33px;""><img src=""images/demo_images/choice_trial_1.png"" style=""width: 408px; height: 417px; margin-right: 200px;""><img src=""images/demo_images/choice_trial_2.png"" style=""width: 408px; height: 417px;""></div></div>","f","delaylearn","learning","trial","5ee91ec1ef56832aa7947169","NGNuEau595V5JttzXFtsMnje45B2","3","images/demo_images/choice_trial_1.png","images/demo_images/choice_trial_2.png","images/demo_images/pattern_1.png","f","f","3000","1","2","20","0","8","1","1","1","40","","","","",""
"html-keyboard-response","40","76812","0.0-17.0-1.0","","null","<div style=""display: flex; flex-direction: column; align-items: center; margin-top: -40px;""><img src=""images/demo_images/pattern_1.png"" style=""width: 234px; height: 230px; margin-top: -50px;""><div style=""display: flex; justify-content: space-between; margin-top: 33px;""><img src=""images/demo_images/choice_trial_1.png"" style=""width: 408px; height: 417px; margin-right: 608px;""></div></div>","null","delaylearn","learning","display_response","5ee91ec1ef56832aa7947169","NGNuEau595V5JttzXFtsMnje45B2","","","","","","","","","","","","","","","","","chosen stimuli: images/demo_images/choice_trial_1.png","","","",""
"html-keyboard-response","41","79828","0.0-17.0-2.0","","null","","null","delaylearn","learning","feedback_duration_window","5ee91ec1ef56832aa7947169","NGNuEau595V5JttzXFtsMnje45B2","","","","","","","","","","","","","","","","","","3000","","",""
"html-keyboard-response","42","81331","0.0-17.0-3.0","","null","<div style='margin:auto;width: auto; font-size: 150%'><span style='font-weight: bold; font-size: 100px; color: green;'>+10 points!</span><br><br></div>","null","delaylearn","learning","feedback_image_window","5ee91ec1ef56832aa7947169","NGNuEau595V5JttzXFtsMnje45B2","","","","","","","","","","","","","","","","","","","","",""
"html-button-response","43","84393","0.0-18.0","","3061.0999999996275","
  <div style=""display: flex; align-items: center; justify-content: center; height: 80vh;"">
  <div>
          <img src=""images/inst_demo_finish.png"" style=""width: 80vw; height:auto;"">
          <br><br>
      </div>
      <br><br>
  </div>","0","","","","","","","","","","","","","","","","","","","","","","","","","",""
"html-keyboard-response","44","90685","0.0-19.0","","6290.5","
  <div style=""display: flex; align-items: center; justify-content: center; height: 80vh;"">
  <div>
          <img src=""images/inst_6.png"" style=""width: 80vw; height:auto;"">
          <br><br>
      </div>
      <br><br>
  </div>","f","","","","","","","","","","","","","","","","","","","","","","","","","",""
"html-keyboard-response","45","93699","0.0-20.0","","null","<div style=""font-size:100px;"">+</div>","null","delaylearn","learning","pre_fixation","5ee91ec1ef56832aa7947169","not found","","","","","","","","","","","","","","","","","","","","",""
"html-keyboard-response","46","95646","0.0-21.0","","null","<div style=""font-size:100px;"">+</div>","null","delaylearn","learning","ITI","5ee91ec1ef56832aa7947169","NGNuEau595V5JttzXFtsMnje45B2","","","","","","","","","","","","","","","","","","","1939","",""
"html-keyboard-response","47","97578","0.0-22.0-0.0","","1930.2999999998137","<div style=""display: flex; flex-direction: column; align-items: center; margin-top: -40px;""><img src=""images/pattern_3.png"" style=""width: 234px; height: 230px; margin-top: -50px;""><div style=""display: flex; justify-content: space-between; margin-top: 33px;""><img src=""images/choice_trial_13.png"" style=""width: 408px; height: 417px; margin-right: 200px;""><img src=""images/choice_trial_10.png"" style=""width: 408px; height: 417px;""></div></div>","f","delaylearn","learning","trial","5ee91ec1ef56832aa7947169","NGNuEau595V5JttzXFtsMnje45B2","3","images/choice_trial_13.png","images/choice_trial_10.png","images/pattern_3.png","f","f","7000","13","10","2","0","9","1","1","13","50","","","","",""
"html-keyboard-response","48","98580","0.0-22.0-1.0","","null","<div style=""display: flex; flex-direction: column; align-items: center; margin-top: -40px;""><img src=""images/pattern_3.png"" style=""width: 234px; height: 230px; margin-top: -50px;""><div style=""display: flex; justify-content: space-between; margin-top: 33px;""><img src=""images/choice_trial_13.png"" style=""width: 408px; height: 417px; margin-right: 608px;""></div></div>","null","delaylearn","learning","display_response","5ee91ec1ef56832aa7947169","NGNuEau595V5JttzXFtsMnje45B2","","","","","","","","","","","","","","","","","chosen stimuli: images/choice_trial_13.png","","","",""
"html-keyboard-response","49","105591","0.0-22.0-2.0","","null","","null","delaylearn","learning","feedback_duration_window","5ee91ec1ef56832aa7947169","NGNuEau595V5JttzXFtsMnje45B2","","","","","","","","","","","","","","","","","","7000","","",""
"html-keyboard-response","50","107096","0.0-22.0-3.0","","null","<div style='margin:auto;width: auto; font-size: 150%'><span style='font-weight: bold; font-size: 100px; color: green;'>+10 points!</span><br><br></div>","null","delaylearn","learning","feedback_image_window","5ee91ec1ef56832aa7947169","NGNuEau595V5JttzXFtsMnje45B2","","","","","","","","","","","","","","","","","","","","",""
"html-keyboard-response","51","108940","0.0-23.0","","null","<div style=""font-size:100px;"">+</div>","null","delaylearn","learning","ITI","5ee91ec1ef56832aa7947169","NGNuEau595V5JttzXFtsMnje45B2","","","","","","","","","","","","","","","","","","","1837","",""
"html-keyboard-response","52","111038","0.0-24.0-0.0","","2096.0999999996275","<div style=""display: flex; flex-direction: column; align-items: center; margin-top: -40px;""><img src=""images/pattern_7.png"" style=""width: 234px; height: 230px; margin-top: -50px;""><div style=""display: flex; justify-content: space-between; margin-top: 33px;""><img src=""images/choice_trial_12.png"" style=""width: 408px; height: 417px; margin-right: 200px;""><img src=""images/choice_trial_6.png"" style=""width: 408px; height: 417px;""></div></div>","j","delaylearn","learning","trial","5ee91ec1ef56832aa7947169","NGNuEau595V5JttzXFtsMnje45B2","3","images/choice_trial_12.png","images/choice_trial_6.png","images/pattern_7.png","j","j","750","12","6","6","1","10","1","1","6","60","","","","",""
"html-keyboard-response","53","112046","0.0-24.0-1.0","","null","<div style=""display: flex; flex-direction: column; align-items: center; margin-top: -40px;""><img src=""images/pattern_7.png"" style=""width: 234px; height: 230px; margin-top: -50px;""><div style=""display: flex; justify-content: space-between; margin-top: 33px;""><img src=""images/choice_trial_6.png"" style=""width: 408px; height: 417px; margin-left:608px;""></div></div>","null","delaylearn","learning","display_response","5ee91ec1ef56832aa7947169","NGNuEau595V5JttzXFtsMnje45B2","","","","","","","","","","","","","","","","","chosen stimuli: images/choice_trial_6.png","","","",""
"html-keyboard-response","54","112800","0.0-24.0-2.0","","null","","null","delaylearn","learning","feedback_duration_window","5ee91ec1ef56832aa7947169","NGNuEau595V5JttzXFtsMnje45B2","","","","","","","","","","","","","","","","","","750","","",""
"html-keyboard-response","55","114305","0.0-24.0-3.0","","null","<div style='margin:auto;width: auto; font-size: 150%'><span style='font-weight: bold; font-size: 100px; color: green;'>+10 points!</span><br><br></div>","null","delaylearn","learning","feedback_image_window","5ee91ec1ef56832aa7947169","NGNuEau595V5JttzXFtsMnje45B2","","","","","","","","","","","","","","","","","","","","",""
"html-keyboard-response","56","116296","0.0-25.0","","null","<div style=""font-size:100px;"">+</div>","null","delaylearn","learning","ITI","5ee91ec1ef56832aa7947169","NGNuEau595V5JttzXFtsMnje45B2","","","","","","","","","","","","","","","","","","","1986","",""
"html-keyboard-response","57","118857","0.0-26.0-0.0","","2558.2000000001863","<div style=""display: flex; flex-direction: column; align-items: center; margin-top: -40px;""><img src=""images/pattern_4.png"" style=""width: 234px; height: 230px; margin-top: -50px;""><div style=""display: flex; justify-content: space-between; margin-top: 33px;""><img src=""images/choice_trial_15.png"" style=""width: 408px; height: 417px; margin-right: 200px;""><img src=""images/choice_trial_9.png"" style=""width: 408px; height: 417px;""></div></div>","f","delaylearn","learning","trial","5ee91ec1ef56832aa7947169","NGNuEau595V5JttzXFtsMnje45B2","3","images/choice_trial_15.png","images/choice_trial_9.png","images/pattern_4.png","f","f","7000","15","9","3","0","11","1","1","15","70","","","","",""
"html-keyboard-response","58","119862","0.0-26.0-1.0","","null","<div style=""display: flex; flex-direction: column; align-items: center; margin-top: -40px;""><img src=""images/pattern_4.png"" style=""width: 234px; height: 230px; margin-top: -50px;""><div style=""display: flex; justify-content: space-between; margin-top: 33px;""><img src=""images/choice_trial_15.png"" style=""width: 408px; height: 417px; margin-right: 608px;""></div></div>","null","delaylearn","learning","display_response","5ee91ec1ef56832aa7947169","NGNuEau595V5JttzXFtsMnje45B2","","","","","","","","","","","","","","","","","chosen stimuli: images/choice_trial_15.png","","","",""
"html-keyboard-response","59","126877","0.0-26.0-2.0","","null","","null","delaylearn","learning","feedback_duration_window","5ee91ec1ef56832aa7947169","NGNuEau595V5JttzXFtsMnje45B2","","","","","","","","","","","","","","","","","","7000","","",""
"html-keyboard-response","60","128394","0.0-26.0-3.0","","null","<div style='margin:auto;width: auto; font-size: 150%'><span style='font-weight: bold; font-size: 100px; color: green;'>+10 points!</span><br><br></div>","null","delaylearn","learning","feedback_image_window","5ee91ec1ef56832aa7947169","NGNuEau595V5JttzXFtsMnje45B2","","","","","","","","","","","","","","","","","","","","",""
"html-keyboard-response","61","130077","0.0-27.0","","null","<div style=""font-size:100px;"">+</div>","null","delaylearn","learning","ITI","5ee91ec1ef56832aa7947169","NGNuEau595V5JttzXFtsMnje45B2","","","","","","","","","","","","","","","","","","","1667","",""
"html-keyboard-response","62","132569","0.0-28.0-0.0","","2491.2000000001863","<div style=""display: flex; flex-direction: column; align-items: center; margin-top: -40px;""><img src=""images/pattern_5.png"" style=""width: 234px; height: 230px; margin-top: -50px;""><div style=""display: flex; justify-content: space-between; margin-top: 33px;""><img src=""images/choice_trial_2.png"" style=""width: 408px; height: 417px; margin-right: 200px;""><img src=""images/choice_trial_11.png"" style=""width: 408px; height: 417px;""></div></div>","j","delaylearn","learning","trial","5ee91ec1ef56832aa7947169","NGNuEau595V5JttzXFtsMnje45B2","3","images/choice_trial_2.png","images/choice_trial_11.png","images/pattern_5.png","j","j","750","2","11","4","1","12","1","1","11","80","","","","",""
"html-keyboard-response","63","133584","0.0-28.0-1.0","","null","<div style=""display: flex; flex-direction: column; align-items: center; margin-top: -40px;""><img src=""images/pattern_5.png"" style=""width: 234px; height: 230px; margin-top: -50px;""><div style=""display: flex; justify-content: space-between; margin-top: 33px;""><img src=""images/choice_trial_11.png"" style=""width: 408px; height: 417px; margin-left:608px;""></div></div>","null","delaylearn","learning","display_response","5ee91ec1ef56832aa7947169","NGNuEau595V5JttzXFtsMnje45B2","","","","","","","","","","","","","","","","","chosen stimuli: images/choice_trial_11.png","","","",""
"html-keyboard-response","64","134344","0.0-28.0-2.0","","null","","null","delaylearn","learning","feedback_duration_window","5ee91ec1ef56832aa7947169","NGNuEau595V5JttzXFtsMnje45B2","","","","","","","","","","","","","","","","","","750","","",""
"html-keyboard-response","65","135849","0.0-28.0-3.0","","null","<div style='margin:auto;width: auto; font-size: 150%'><span style='font-weight: bold; font-size: 100px; color: green;'>+10 points!</span><br><br></div>","null","delaylearn","learning","feedback_image_window","5ee91ec1ef56832aa7947169","NGNuEau595V5JttzXFtsMnje45B2","","","","","","","","","","","","","","","","","","","","",""
"html-keyboard-response","66","137377","0.0-29.0","","null","<div style=""font-size:100px;"">+</div>","null","delaylearn","learning","ITI","5ee91ec1ef56832aa7947169","NGNuEau595V5JttzXFtsMnje45B2","","","","","","","","","","","","","","","","","","","1513","",""
"html-keyboard-response","67","139873","0.0-30.0-0.0","","2494.2999999998137","<div style=""display: flex; flex-direction: column; align-items: center; margin-top: -40px;""><img src=""images/pattern_6.png"" style=""width: 234px; height: 230px; margin-top: -50px;""><div style=""display: flex; justify-content: space-between; margin-top: 33px;""><img src=""images/choice_trial_16.png"" style=""width: 408px; height: 417px; margin-right: 200px;""><img src=""images/choice_trial_3.png"" style=""width: 408px; height: 417px;""></div></div>","f","delaylearn","learning","trial","5ee91ec1ef56832aa7947169","NGNuEau595V5JttzXFtsMnje45B2","3","images/choice_trial_16.png","images/choice_trial_3.png","images/pattern_6.png","j","f","750","16","3","5","0","13","1","0","16","80","","","","",""
"html-keyboard-response","68","140880","0.0-30.0-1.0","","null","<div style=""display: flex; flex-direction: column; align-items: center; margin-top: -40px;""><img src=""images/pattern_6.png"" style=""width: 234px; height: 230px; margin-top: -50px;""><div style=""display: flex; justify-content: space-between; margin-top: 33px;""><img src=""images/choice_trial_16.png"" style=""width: 408px; height: 417px; margin-right: 608px;""></div></div>","null","delaylearn","learning","display_response","5ee91ec1ef56832aa7947169","NGNuEau595V5JttzXFtsMnje45B2","","","","","","","","","","","","","","","","","chosen stimuli: images/choice_trial_16.png","","","",""
"html-keyboard-response","69","141641","0.0-30.0-2.0","","null","","null","delaylearn","learning","feedback_duration_window","5ee91ec1ef56832aa7947169","NGNuEau595V5JttzXFtsMnje45B2","","","","","","","","","","","","","","","","","","750","","",""
"html-keyboard-response","70","143157","0.0-30.0-3.0","","null","<div style='margin:auto;width: auto; font-size: 150%'><span style='font-weight: bold; font-size: 100px; color: red;'>0 points!</span><br><br></div>","null","delaylearn","learning","feedback_image_window","5ee91ec1ef56832aa7947169","NGNuEau595V5JttzXFtsMnje45B2","","","","","","","","","","","","","","","","","","","","",""
"html-keyboard-response","71","143673","0.0-31.0-0.0","","null","","null","","","mood_trial_fixation","","","","","","","","","","","","","","","","","","","","","","",""
"lmdlab-html-vas-response","72","148789","0.0-31.0-1.0","","4096","How happy are you right now?","0.425","delaylearn","learning","mood_trial","5ee91ec1ef56832aa7947169","NGNuEau595V5JttzXFtsMnje45B2","","","","","","","","","","","","","","","","","","","","[""Very unhappy"",""Very happy""]",""
"html-keyboard-response","73","150508","0.0-32.0","","null","<div style=""font-size:100px;"">+</div>","null","delaylearn","learning","ITI","5ee91ec1ef56832aa7947169","NGNuEau595V5JttzXFtsMnje45B2","","","","","","","","","","","","","","","","","","","1696","",""
"html-keyboard-response","74","153226","0.0-33.0-0.0","","2716.2999999998137","<div style=""display: flex; flex-direction: column; align-items: center; margin-top: -40px;""><img src=""images/pattern_1.png"" style=""width: 234px; height: 230px; margin-top: -50px;""><div style=""display: flex; justify-content: space-between; margin-top: 33px;""><img src=""images/choice_trial_8.png"" style=""width: 408px; height: 417px; margin-right: 200px;""><img src=""images/choice_trial_14.png"" style=""width: 408px; height: 417px;""></div></div>","j","delaylearn","learning","trial","5ee91ec1ef56832aa7947169","NGNuEau595V5JttzXFtsMnje45B2","3","images/choice_trial_8.png","images/choice_trial_14.png","images/pattern_1.png","j","j","7000","8","14","1","1","14","1","1","14","90","","","","",""
"html-keyboard-response","75","154238","0.0-33.0-1.0","","null","<div style=""display: flex; flex-direction: column; align-items: center; margin-top: -40px;""><img src=""images/pattern_1.png"" style=""width: 234px; height: 230px; margin-top: -50px;""><div style=""display: flex; justify-content: space-between; margin-top: 33px;""><img src=""images/choice_trial_14.png"" style=""width: 408px; height: 417px; margin-left:608px;""></div></div>","null","delaylearn","learning","display_response","5ee91ec1ef56832aa7947169","NGNuEau595V5JttzXFtsMnje45B2","","","","","","","","","","","","","","","","","chosen stimuli: images/choice_trial_14.png","","","",""
"html-keyboard-response","76","161246","0.0-33.0-2.0","","null","","null","delaylearn","learning","feedback_duration_window","5ee91ec1ef56832aa7947169","NGNuEau595V5JttzXFtsMnje45B2","","","","","","","","","","","","","","","","","","7000","","",""
"html-keyboard-response","77","162753","0.0-33.0-3.0","","null","<div style='margin:auto;width: auto; font-size: 150%'><span style='font-weight: bold; font-size: 100px; color: green;'>+10 points!</span><br><br></div>","null","delaylearn","learning","feedback_image_window","5ee91ec1ef56832aa7947169","NGNuEau595V5JttzXFtsMnje45B2","","","","","","","","","","","","","","","","","","","","",""
"html-keyboard-response","78","164922","0.0-34.0","","null","<div style=""font-size:100px;"">+</div>","null","delaylearn","learning","ITI","5ee91ec1ef56832aa7947169","NGNuEau595V5JttzXFtsMnje45B2","","","","","","","","","","","","","","","","","","","2159","",""
"html-keyboard-response","79","166515","0.0-35.0-0.0","","1592","<div style=""display: flex; flex-direction: column; align-items: center; margin-top: -40px;""><img src=""images/pattern_3.png"" style=""width: 234px; height: 230px; margin-top: -50px;""><div style=""display: flex; justify-content: space-between; margin-top: 33px;""><img src=""images/choice_trial_10.png"" style=""width: 408px; height: 417px; margin-right: 200px;""><img src=""images/choice_trial_13.png"" style=""width: 408px; height: 417px;""></div></div>","j","delaylearn","learning","trial","5ee91ec1ef56832aa7947169","NGNuEau595V5JttzXFtsMnje45B2","3","images/choice_trial_10.png","images/choice_trial_13.png","images/pattern_3.png","f","j","7000","10","13","2","1","15","1","0","13","90","","","","",""
"html-keyboard-response","80","167518","0.0-35.0-1.0","","null","<div style=""display: flex; flex-direction: column; align-items: center; margin-top: -40px;""><img src=""images/pattern_3.png"" style=""width: 234px; height: 230px; margin-top: -50px;""><div style=""display: flex; justify-content: space-between; margin-top: 33px;""><img src=""images/choice_trial_13.png"" style=""width: 408px; height: 417px; margin-left:608px;""></div></div>","null","delaylearn","learning","display_response","5ee91ec1ef56832aa7947169","NGNuEau595V5JttzXFtsMnje45B2","","","","","","","","","","","","","","","","","chosen stimuli: images/choice_trial_13.png","","","",""
"html-keyboard-response","81","174526","0.0-35.0-2.0","","null","","null","delaylearn","learning","feedback_duration_window","5ee91ec1ef56832aa7947169","NGNuEau595V5JttzXFtsMnje45B2","","","","","","","","","","","","","","","","","","7000","","",""
"html-keyboard-response","82","176032","0.0-35.0-3.0","","null","<div style='margin:auto;width: auto; font-size: 150%'><span style='font-weight: bold; font-size: 100px; color: red;'>0 points!</span><br><br></div>","null","delaylearn","learning","feedback_image_window","5ee91ec1ef56832aa7947169","NGNuEau595V5JttzXFtsMnje45B2","","","","","","","","","","","","","","","","","","","","",""
"html-keyboard-response","83","178267","0.0-36.0","","null","<div style=""font-size:100px;"">+</div>","null","delaylearn","learning","ITI","5ee91ec1ef56832aa7947169","NGNuEau595V5JttzXFtsMnje45B2","","","","","","","","","","","","","","","","","","","2226","",""
"html-keyboard-response","84","179966","0.0-37.0-0.0","","1696.7999999998137","<div style=""display: flex; flex-direction: column; align-items: center; margin-top: -40px;""><img src=""images/pattern_5.png"" style=""width: 234px; height: 230px; margin-top: -50px;""><div style=""display: flex; justify-content: space-between; margin-top: 33px;""><img src=""images/choice_trial_11.png"" style=""width: 408px; height: 417px; margin-right: 200px;""><img src=""images/choice_trial_2.png"" style=""width: 408px; height: 417px;""></div></div>","f","delaylearn","learning","trial","5ee91ec1ef56832aa7947169","NGNuEau595V5JttzXFtsMnje45B2","3","images/choice_trial_11.png","images/choice_trial_2.png","images/pattern_5.png","f","f","750","11","2","4","0","16","1","1","11","100","","","","",""
"html-keyboard-response","85","180969","0.0-37.0-1.0","","null","<div style=""display: flex; flex-direction: column; align-items: center; margin-top: -40px;""><img src=""images/pattern_5.png"" style=""width: 234px; height: 230px; margin-top: -50px;""><div style=""display: flex; justify-content: space-between; margin-top: 33px;""><img src=""images/choice_trial_11.png"" style=""width: 408px; height: 417px; margin-right: 608px;""></div></div>","null","delaylearn","learning","display_response","5ee91ec1ef56832aa7947169","NGNuEau595V5JttzXFtsMnje45B2","","","","","","","","","","","","","","","","","chosen stimuli: images/choice_trial_11.png","","","",""
"html-keyboard-response","86","181735","0.0-37.0-2.0","","null","","null","delaylearn","learning","feedback_duration_window","5ee91ec1ef56832aa7947169","NGNuEau595V5JttzXFtsMnje45B2","","","","","","","","","","","","","","","","","","750","","",""
"html-keyboard-response","87","183241","0.0-37.0-3.0","","null","<div style='margin:auto;width: auto; font-size: 150%'><span style='font-weight: bold; font-size: 100px; color: green;'>+10 points!</span><br><br></div>","null","delaylearn","learning","feedback_image_window","5ee91ec1ef56832aa7947169","NGNuEau595V5JttzXFtsMnje45B2","","","","","","","","","","","","","","","","","","","","",""
"html-keyboard-response","88","183751","0.0-38.0-0.0","","null","","null","","","mood_trial_fixation","","","","","","","","","","","","","","","","","","","","","","",""
"lmdlab-html-vas-response","89","188436","0.0-38.0-1.0","","3675","How happy are you right now?","0.43333333333333335","delaylearn","learning","mood_trial","5ee91ec1ef56832aa7947169","NGNuEau595V5JttzXFtsMnje45B2","","","","","","","","","","","","","","","","","","","","[""Very unhappy"",""Very happy""]",""
"html-keyboard-response","90","190104","0.0-39.0","","null","<div style=""font-size:100px;"">+</div>","null","delaylearn","learning","ITI","5ee91ec1ef56832aa7947169","NGNuEau595V5JttzXFtsMnje45B2","","","","","","","","","","","","","","","","","","","1662","",""
"html-keyboard-response","91","192803","0.0-40.0-0.0","","2696.2000000001863","<div style=""display: flex; flex-direction: column; align-items: center; margin-top: -40px;""><img src=""images/pattern_6.png"" style=""width: 234px; height: 230px; margin-top: -50px;""><div style=""display: flex; justify-content: space-between; margin-top: 33px;""><img src=""images/choice_trial_16.png"" style=""width: 408px; height: 417px; margin-right: 200px;""><img src=""images/choice_trial_3.png"" style=""width: 408px; height: 417px;""></div></div>","f","delaylearn","learning","trial","5ee91ec1ef56832aa7947169","NGNuEau595V5JttzXFtsMnje45B2","3","images/choice_trial_16.png","images/choice_trial_3.png","images/pattern_6.png","f","f","750","16","3","5","0","17","1","1","16","110","","","","",""
"html-keyboard-response","92","193818","0.0-40.0-1.0","","null","<div style=""display: flex; flex-direction: column; align-items: center; margin-top: -40px;""><img src=""images/pattern_6.png"" style=""width: 234px; height: 230px; margin-top: -50px;""><div style=""display: flex; justify-content: space-between; margin-top: 33px;""><img src=""images/choice_trial_16.png"" style=""width: 408px; height: 417px; margin-right: 608px;""></div></div>","null","delaylearn","learning","display_response","5ee91ec1ef56832aa7947169","NGNuEau595V5JttzXFtsMnje45B2","","","","","","","","","","","","","","","","","chosen stimuli: images/choice_trial_16.png","","","",""
"html-keyboard-response","93","194575","0.0-40.0-2.0","","null","","null","delaylearn","learning","feedback_duration_window","5ee91ec1ef56832aa7947169","NGNuEau595V5JttzXFtsMnje45B2","","","","","","","","","","","","","","","","","","750","","",""
"html-keyboard-response","94","196090","0.0-40.0-3.0","","null","<div style='margin:auto;width: auto; font-size: 150%'><span style='font-weight: bold; font-size: 100px; color: green;'>+10 points!</span><br><br></div>","null","delaylearn","learning","feedback_image_window","5ee91ec1ef56832aa7947169","NGNuEau595V5JttzXFtsMnje45B2","","","","","","","","","","","","","","","","","","","","",""
"html-keyboard-response","95","198530","0.0-41.0","","null","<div style=""font-size:100px;"">+</div>","null","delaylearn","learning","ITI","5ee91ec1ef56832aa7947169","NGNuEau595V5JttzXFtsMnje45B2","","","","","","","","","","","","","","","","","","","2430","",""
"html-keyboard-response","96","200800","0.0-42.0-0.0","","2267.699999999255","<div style=""display: flex; flex-direction: column; align-items: center; margin-top: -40px;""><img src=""images/pattern_4.png"" style=""width: 234px; height: 230px; margin-top: -50px;""><div style=""display: flex; justify-content: space-between; margin-top: 33px;""><img src=""images/choice_trial_9.png"" style=""width: 408px; height: 417px; margin-right: 200px;""><img src=""images/choice_trial_15.png"" style=""width: 408px; height: 417px;""></div></div>","j","delaylearn","learning","trial","5ee91ec1ef56832aa7947169","NGNuEau595V5JttzXFtsMnje45B2","3","images/choice_trial_9.png","images/choice_trial_15.png","images/pattern_4.png","j","j","7000","9","15","3","1","18","1","1","15","120","","","","",""
"html-keyboard-response","97","201802","0.0-42.0-1.0","","null","<div style=""display: flex; flex-direction: column; align-items: center; margin-top: -40px;""><img src=""images/pattern_4.png"" style=""width: 234px; height: 230px; margin-top: -50px;""><div style=""display: flex; justify-content: space-between; margin-top: 33px;""><img src=""images/choice_trial_15.png"" style=""width: 408px; height: 417px; margin-left:608px;""></div></div>","null","delaylearn","learning","display_response","5ee91ec1ef56832aa7947169","NGNuEau595V5JttzXFtsMnje45B2","","","","","","","","","","","","","","","","","chosen stimuli: images/choice_trial_15.png","","","",""
"html-keyboard-response","98","208810","0.0-42.0-2.0","","null","","null","delaylearn","learning","feedback_duration_window","5ee91ec1ef56832aa7947169","NGNuEau595V5JttzXFtsMnje45B2","","","","","","","","","","","","","","","","","","7000","","",""
"html-keyboard-response","99","210332","0.0-42.0-3.0","","null","<div style='margin:auto;width: auto; font-size: 150%'><span style='font-weight: bold; font-size: 100px; color: green;'>+10 points!</span><br><br></div>","null","delaylearn","learning","feedback_image_window","5ee91ec1ef56832aa7947169","NGNuEau595V5JttzXFtsMnje45B2","","","","","","","","","","","","","","","","","","","","",""
"html-keyboard-response","100","212246","0.0-43.0","","null","<div style=""font-size:100px;"">+</div>","null","delaylearn","learning","ITI","5ee91ec1ef56832aa7947169","NGNuEau595V5JttzXFtsMnje45B2","","","","","","","","","","","","","","","","","","","1899","",""
"html-keyboard-response","101","213302","0.0-44.0-0.0","","1054.199999999255","<div style=""display: flex; flex-direction: column; align-items: center; margin-top: -40px;""><img src=""images/pattern_7.png"" style=""width: 234px; height: 230px; margin-top: -50px;""><div style=""display: flex; justify-content: space-between; margin-top: 33px;""><img src=""images/choice_trial_6.png"" style=""width: 408px; height: 417px; margin-right: 200px;""><img src=""images/choice_trial_12.png"" style=""width: 408px; height: 417px;""></div></div>","f","delaylearn","learning","trial","5ee91ec1ef56832aa7947169","NGNuEau595V5JttzXFtsMnje45B2","3","images/choice_trial_6.png","images/choice_trial_12.png","images/pattern_7.png","j","f","750","6","12","6","0","19","1","0","6","120","","","","",""
"html-keyboard-response","102","214312","0.0-44.0-1.0","","null","<div style=""display: flex; flex-direction: column; align-items: center; margin-top: -40px;""><img src=""images/pattern_7.png"" style=""width: 234px; height: 230px; margin-top: -50px;""><div style=""display: flex; justify-content: space-between; margin-top: 33px;""><img src=""images/choice_trial_6.png"" style=""width: 408px; height: 417px; margin-right: 608px;""></div></div>","null","delaylearn","learning","display_response","5ee91ec1ef56832aa7947169","NGNuEau595V5JttzXFtsMnje45B2","","","","","","","","","","","","","","","","","chosen stimuli: images/choice_trial_6.png","","","",""
"html-keyboard-response","103","215075","0.0-44.0-2.0","","null","","null","delaylearn","learning","feedback_duration_window","5ee91ec1ef56832aa7947169","NGNuEau595V5JttzXFtsMnje45B2","","","","","","","","","","","","","","","","","","750","","",""
"html-keyboard-response","104","216580","0.0-44.0-3.0","","null","<div style='margin:auto;width: auto; font-size: 150%'><span style='font-weight: bold; font-size: 100px; color: red;'>0 points!</span><br><br></div>","null","delaylearn","learning","feedback_image_window","5ee91ec1ef56832aa7947169","NGNuEau595V5JttzXFtsMnje45B2","","","","","","","","","","","","","","","","","","","","",""
"html-keyboard-response","105","218723","0.0-45.0","","null","<div style=""font-size:100px;"">+</div>","null","delaylearn","learning","ITI","5ee91ec1ef56832aa7947169","NGNuEau595V5JttzXFtsMnje45B2","","","","","","","","","","","","","","","","","","","2136","",""
"html-keyboard-response","106","221735","0.0-46.0-0.0","","null","<div style=""display: flex; flex-direction: column; align-items: center; margin-top: -40px;""><img src=""images/pattern_1.png"" style=""width: 234px; height: 230px; margin-top: -50px;""><div style=""display: flex; justify-content: space-between; margin-top: 33px;""><img src=""images/choice_trial_14.png"" style=""width: 408px; height: 417px; margin-right: 200px;""><img src=""images/choice_trial_8.png"" style=""width: 408px; height: 417px;""></div></div>","null","delaylearn","learning","trial","5ee91ec1ef56832aa7947169","NGNuEau595V5JttzXFtsMnje45B2","3","images/choice_trial_14.png","images/choice_trial_8.png","images/pattern_1.png","f","f","7000","14","8","1","0","20","0","0","0","120","","","","",""
"html-keyboard-response","107","222739","0.0-46.0-1.0","","null","<div style='font-weight: bold; font-size: 75px; color: red;'>Missed Trial <br><br><br><br> Please respond faster</div>","null","delaylearn","learning","display_response","5ee91ec1ef56832aa7947169","NGNuEau595V5JttzXFtsMnje45B2","","","","","","","","","","","","","","","","","Missed trial","","","",""
"html-keyboard-response","108","222744","0.0-46.0-2.0","","null","","null","delaylearn","learning","feedback_duration_window","5ee91ec1ef56832aa7947169","NGNuEau595V5JttzXFtsMnje45B2","","","","","","","","","","","","","","","","","","0","","",""
"html-keyboard-response","109","222750","0.0-46.0-3.0","","null","","null","delaylearn","learning","feedback_image_window","5ee91ec1ef56832aa7947169","NGNuEau595V5JttzXFtsMnje45B2","","","","","","","","","","","","","","","","","","","","",""
"html-keyboard-response","110","225094","0.0-47.0","","null","<div style=""font-size:100px;"">+</div>","null","delaylearn","learning","ITI","5ee91ec1ef56832aa7947169","NGNuEau595V5JttzXFtsMnje45B2","","","","","","","","","","","","","","","","","","","2335","",""
"html-keyboard-response","111","226707","0.0-48.0-0.0","","1610.5999999996275","<div style=""display: flex; flex-direction: column; align-items: center; margin-top: -40px;""><img src=""images/pattern_6.png"" style=""width: 234px; height: 230px; margin-top: -50px;""><div style=""display: flex; justify-content: space-between; margin-top: 33px;""><img src=""images/choice_trial_3.png"" style=""width: 408px; height: 417px; margin-right: 200px;""><img src=""images/choice_trial_16.png"" style=""width: 408px; height: 417px;""></div></div>","j","delaylearn","learning","trial","5ee91ec1ef56832aa7947169","NGNuEau595V5JttzXFtsMnje45B2","3","images/choice_trial_3.png","images/choice_trial_16.png","images/pattern_6.png","j","j","750","3","16","5","1","21","1","1","16","130","","","","",""
"html-keyboard-response","112","227711","0.0-48.0-1.0","","null","<div style=""display: flex; flex-direction: column; align-items: center; margin-top: -40px;""><img src=""images/pattern_6.png"" style=""width: 234px; height: 230px; margin-top: -50px;""><div style=""display: flex; justify-content: space-between; margin-top: 33px;""><img src=""images/choice_trial_16.png"" style=""width: 408px; height: 417px; margin-left:608px;""></div></div>","null","delaylearn","learning","display_response","5ee91ec1ef56832aa7947169","NGNuEau595V5JttzXFtsMnje45B2","","","","","","","","","","","","","","","","","chosen stimuli: images/choice_trial_16.png","","","",""
"html-keyboard-response","113","228471","0.0-48.0-2.0","","null","","null","delaylearn","learning","feedback_duration_window","5ee91ec1ef56832aa7947169","NGNuEau595V5JttzXFtsMnje45B2","","","","","","","","","","","","","","","","","","750","","",""
"html-keyboard-response","114","229986","0.0-48.0-3.0","","null","<div style='margin:auto;width: auto; font-size: 150%'><span style='font-weight: bold; font-size: 100px; color: green;'>+10 points!</span><br><br></div>","null","delaylearn","learning","feedback_image_window","5ee91ec1ef56832aa7947169","NGNuEau595V5JttzXFtsMnje45B2","","","","","","","","","","","","","","","","","","","","",""
"html-keyboard-response","115","232026","0.0-49.0","","null","<div style=""font-size:100px;"">+</div>","null","delaylearn","learning","ITI","5ee91ec1ef56832aa7947169","NGNuEau595V5JttzXFtsMnje45B2","","","","","","","","","","","","","","","","","","","2031","",""
"html-keyboard-response","116","232931","0.0-50.0-0.0","","903.2000000001863","<div style=""display: flex; flex-direction: column; align-items: center; margin-top: -40px;""><img src=""images/pattern_4.png"" style=""width: 234px; height: 230px; margin-top: -50px;""><div style=""display: flex; justify-content: space-between; margin-top: 33px;""><img src=""images/choice_trial_15.png"" style=""width: 408px; height: 417px; margin-right: 200px;""><img src=""images/choice_trial_9.png"" style=""width: 408px; height: 417px;""></div></div>","f","delaylearn","learning","trial","5ee91ec1ef56832aa7947169","NGNuEau595V5JttzXFtsMnje45B2","3","images/choice_trial_15.png","images/choice_trial_9.png","images/pattern_4.png","f","f","7000","15","9","3","0","22","1","1","15","140","","","","",""
"html-keyboard-response","117","233935","0.0-50.0-1.0","","null","<div style=""display: flex; flex-direction: column; align-items: center; margin-top: -40px;""><img src=""images/pattern_4.png"" style=""width: 234px; height: 230px; margin-top: -50px;""><div style=""display: flex; justify-content: space-between; margin-top: 33px;""><img src=""images/choice_trial_15.png"" style=""width: 408px; height: 417px; margin-right: 608px;""></div></div>","null","delaylearn","learning","display_response","5ee91ec1ef56832aa7947169","NGNuEau595V5JttzXFtsMnje45B2","","","","","","","","","","","","","","","","","chosen stimuli: images/choice_trial_15.png","","","",""
"html-keyboard-response","118","240947","0.0-50.0-2.0","","null","","null","delaylearn","learning","feedback_duration_window","5ee91ec1ef56832aa7947169","NGNuEau595V5JttzXFtsMnje45B2","","","","","","","","","","","","","","","","","","7000","","",""
"html-keyboard-response","119","242450","0.0-50.0-3.0","","null","<div style='margin:auto;width: auto; font-size: 150%'><span style='font-weight: bold; font-size: 100px; color: green;'>+10 points!</span><br><br></div>","null","delaylearn","learning","feedback_image_window","5ee91ec1ef56832aa7947169","NGNuEau595V5JttzXFtsMnje45B2","","","","","","","","","","","","","","","","","","","","",""
"html-keyboard-response","120","242966","0.0-51.0-0.0","","null","","null","","","mood_trial_fixation","","","","","","","","","","","","","","","","","","","","","","",""
"lmdlab-html-vas-response","121","248470","0.0-51.0-1.0","","4491","How happy are you right now?","0.45416666666666666","delaylearn","learning","mood_trial","5ee91ec1ef56832aa7947169","NGNuEau595V5JttzXFtsMnje45B2","","","","","","","","","","","","","","","","","","","","[""Very unhappy"",""Very happy""]",""
"html-keyboard-response","122","250124","0.0-52.0","","null","<div style=""font-size:100px;"">+</div>","null","delaylearn","learning","ITI","5ee91ec1ef56832aa7947169","NGNuEau595V5JttzXFtsMnje45B2","","","","","","","","","","","","","","","","","","","1648","",""
"html-keyboard-response","123","252281","0.0-53.0-0.0","","2154.5","<div style=""display: flex; flex-direction: column; align-items: center; margin-top: -40px;""><img src=""images/pattern_7.png"" style=""width: 234px; height: 230px; margin-top: -50px;""><div style=""display: flex; justify-content: space-between; margin-top: 33px;""><img src=""images/choice_trial_12.png"" style=""width: 408px; height: 417px; margin-right: 200px;""><img src=""images/choice_trial_6.png"" style=""width: 408px; height: 417px;""></div></div>","j","delaylearn","learning","trial","5ee91ec1ef56832aa7947169","NGNuEau595V5JttzXFtsMnje45B2","3","images/choice_trial_12.png","images/choice_trial_6.png","images/pattern_7.png","j","j","750","12","6","6","1","23","1","1","6","150","","","","",""
"html-keyboard-response","124","253290","0.0-53.0-1.0","","null","<div style=""display: flex; flex-direction: column; align-items: center; margin-top: -40px;""><img src=""images/pattern_7.png"" style=""width: 234px; height: 230px; margin-top: -50px;""><div style=""display: flex; justify-content: space-between; margin-top: 33px;""><img src=""images/choice_trial_6.png"" style=""width: 408px; height: 417px; margin-left:608px;""></div></div>","null","delaylearn","learning","display_response","5ee91ec1ef56832aa7947169","NGNuEau595V5JttzXFtsMnje45B2","","","","","","","","","","","","","","","","","chosen stimuli: images/choice_trial_6.png","","","",""
"html-keyboard-response","125","254043","0.0-53.0-2.0","","null","","null","delaylearn","learning","feedback_duration_window","5ee91ec1ef56832aa7947169","NGNuEau595V5JttzXFtsMnje45B2","","","","","","","","","","","","","","","","","","750","","",""
"html-keyboard-response","126","255550","0.0-53.0-3.0","","null","<div style='margin:auto;width: auto; font-size: 150%'><span style='font-weight: bold; font-size: 100px; color: green;'>+10 points!</span><br><br></div>","null","delaylearn","learning","feedback_image_window","5ee91ec1ef56832aa7947169","NGNuEau595V5JttzXFtsMnje45B2","","","","","","","","","","","","","","","","","","","","",""
"html-keyboard-response","127","257187","0.0-54.0","","null","<div style=""font-size:100px;"">+</div>","null","delaylearn","learning","ITI","5ee91ec1ef56832aa7947169","NGNuEau595V5JttzXFtsMnje45B2","","","","","","","","","","","","","","","","","","","1634","",""
"html-keyboard-response","128","259909","0.0-55.0-0.0","","2719.600000000559","<div style=""display: flex; flex-direction: column; align-items: center; margin-top: -40px;""><img src=""images/pattern_1.png"" style=""width: 234px; height: 230px; margin-top: -50px;""><div style=""display: flex; justify-content: space-between; margin-top: 33px;""><img src=""images/choice_trial_8.png"" style=""width: 408px; height: 417px; margin-right: 200px;""><img src=""images/choice_trial_14.png"" style=""width: 408px; height: 417px;""></div></div>","j","delaylearn","learning","trial","5ee91ec1ef56832aa7947169","NGNuEau595V5JttzXFtsMnje45B2","3","images/choice_trial_8.png","images/choice_trial_14.png","images/pattern_1.png","f","j","7000","8","14","1","1","24","1","0","14","150","","","","",""
"html-keyboard-response","129","260922","0.0-55.0-1.0","","null","<div style=""display: flex; flex-direction: column; align-items: center; margin-top: -40px;""><img src=""images/pattern_1.png"" style=""width: 234px; height: 230px; margin-top: -50px;""><div style=""display: flex; justify-content: space-between; margin-top: 33px;""><img src=""images/choice_trial_14.png"" style=""width: 408px; height: 417px; margin-left:608px;""></div></div>","null","delaylearn","learning","display_response","5ee91ec1ef56832aa7947169","NGNuEau595V5JttzXFtsMnje45B2","","","","","","","","","","","","","","","","","chosen stimuli: images/choice_trial_14.png","","","",""
"html-keyboard-response","130","267926","0.0-55.0-2.0","","null","","null","delaylearn","learning","feedback_duration_window","5ee91ec1ef56832aa7947169","NGNuEau595V5JttzXFtsMnje45B2","","","","","","","","","","","","","","","","","","7000","","",""
"html-keyboard-response","131","269430","0.0-55.0-3.0","","null","<div style='margin:auto;width: auto; font-size: 150%'><span style='font-weight: bold; font-size: 100px; color: red;'>0 points!</span><br><br></div>","null","delaylearn","learning","feedback_image_window","5ee91ec1ef56832aa7947169","NGNuEau595V5JttzXFtsMnje45B2","","","","","","","","","","","","","","","","","","","","",""
"html-keyboard-response","132","270950","0.0-56.0","","null","<div style=""font-size:100px;"">+</div>","null","delaylearn","learning","ITI","5ee91ec1ef56832aa7947169","NGNuEau595V5JttzXFtsMnje45B2","","","","","","","","","","","","","","","","","","","1507","",""
"html-keyboard-response","133","272794","0.0-57.0-0.0","","1841.2000000001863","<div style=""display: flex; flex-direction: column; align-items: center; margin-top: -40px;""><img src=""images/pattern_5.png"" style=""width: 234px; height: 230px; margin-top: -50px;""><div style=""display: flex; justify-content: space-between; margin-top: 33px;""><img src=""images/choice_trial_2.png"" style=""width: 408px; height: 417px; margin-right: 200px;""><img src=""images/choice_trial_11.png"" style=""width: 408px; height: 417px;""></div></div>","j","delaylearn","learning","trial","5ee91ec1ef56832aa7947169","NGNuEau595V5JttzXFtsMnje45B2","3","images/choice_trial_2.png","images/choice_trial_11.png","images/pattern_5.png","j","j","750","2","11","4","1","25","1","1","11","160","","","","",""
"html-keyboard-response","134","273797","0.0-57.0-1.0","","null","<div style=""display: flex; flex-direction: column; align-items: center; margin-top: -40px;""><img src=""images/pattern_5.png"" style=""width: 234px; height: 230px; margin-top: -50px;""><div style=""display: flex; justify-content: space-between; margin-top: 33px;""><img src=""images/choice_trial_11.png"" style=""width: 408px; height: 417px; margin-left:608px;""></div></div>","null","delaylearn","learning","display_response","5ee91ec1ef56832aa7947169","NGNuEau595V5JttzXFtsMnje45B2","","","","","","","","","","","","","","","","","chosen stimuli: images/choice_trial_11.png","","","",""
"html-keyboard-response","135","274563","0.0-57.0-2.0","","null","","null","delaylearn","learning","feedback_duration_window","5ee91ec1ef56832aa7947169","NGNuEau595V5JttzXFtsMnje45B2","","","","","","","","","","","","","","","","","","750","","",""
"html-keyboard-response","136","276073","0.0-57.0-3.0","","null","<div style='margin:auto;width: auto; font-size: 150%'><span style='font-weight: bold; font-size: 100px; color: green;'>+10 points!</span><br><br></div>","null","delaylearn","learning","feedback_image_window","5ee91ec1ef56832aa7947169","NGNuEau595V5JttzXFtsMnje45B2","","","","","","","","","","","","","","","","","","","","",""
"html-keyboard-response","137","278122","0.0-58.0","","null","<div style=""font-size:100px;"">+</div>","null","delaylearn","learning","ITI","5ee91ec1ef56832aa7947169","NGNuEau595V5JttzXFtsMnje45B2","","","","","","","","","","","","","","","","","","","2045","",""
"html-keyboard-response","138","280124","0.0-59.0-0.0","","1999","<div style=""display: flex; flex-direction: column; align-items: center; margin-top: -40px;""><img src=""images/pattern_3.png"" style=""width: 234px; height: 230px; margin-top: -50px;""><div style=""display: flex; justify-content: space-between; margin-top: 33px;""><img src=""images/choice_trial_10.png"" style=""width: 408px; height: 417px; margin-right: 200px;""><img src=""images/choice_trial_13.png"" style=""width: 408px; height: 417px;""></div></div>","j","delaylearn","learning","trial","5ee91ec1ef56832aa7947169","NGNuEau595V5JttzXFtsMnje45B2","3","images/choice_trial_10.png","images/choice_trial_13.png","images/pattern_3.png","j","j","7000","10","13","2","1","26","1","1","13","170","","","","",""
"html-keyboard-response","139","281140","0.0-59.0-1.0","","null","<div style=""display: flex; flex-direction: column; align-items: center; margin-top: -40px;""><img src=""images/pattern_3.png"" style=""width: 234px; height: 230px; margin-top: -50px;""><div style=""display: flex; justify-content: space-between; margin-top: 33px;""><img src=""images/choice_trial_13.png"" style=""width: 408px; height: 417px; margin-left:608px;""></div></div>","null","delaylearn","learning","display_response","5ee91ec1ef56832aa7947169","NGNuEau595V5JttzXFtsMnje45B2","","","","","","","","","","","","","","","","","chosen stimuli: images/choice_trial_13.png","","","",""
"html-keyboard-response","140","288146","0.0-59.0-2.0","","null","","null","delaylearn","learning","feedback_duration_window","5ee91ec1ef56832aa7947169","NGNuEau595V5JttzXFtsMnje45B2","","","","","","","","","","","","","","","","","","7000","","",""
"html-keyboard-response","141","289661","0.0-59.0-3.0","","null","<div style='margin:auto;width: auto; font-size: 150%'><span style='font-weight: bold; font-size: 100px; color: green;'>+10 points!</span><br><br></div>","null","delaylearn","learning","feedback_image_window","5ee91ec1ef56832aa7947169","NGNuEau595V5JttzXFtsMnje45B2","","","","","","","","","","","","","","","","","","","","",""
"lmdlab-html-vas-response","142","298178","0.0-60.0-0.0","","7008","*How <b><u>confident</u></b> are you feeling about your answers at this moment?*","0.6458333333333334","rewlearn","rate_confidence","","5ee91ec1ef56832aa7947169","NGNuEau595V5JttzXFtsMnje45B2","","","","","","","","","","","","","","","","","","","","[""No confidence"",""Complete confidence""]",""
"lmdlab-rest-trial-limit","143","549667","0.0-60.0-1.0","","249973.7000000002","<div style=""font-size:40px;""><b>Please take a break!</b><br><br><br><br><p>Great work: you earned 170 points.<br><br><br><p>You have completed part(s) 1 of 5.<br><br><br><br>When you are ready to continue<br><br><br>please click the button.</p><br><br>","0","delaylearn","learning","break","5ee91ec1ef56832aa7947169","NGNuEau595V5JttzXFtsMnje45B2","","","","","","","","","","","","","","","","","","","","","0"
"html-keyboard-response","144","552674","0.0-60.0-2.0","","null","<div style=""font-size:100px;"">+</div>","null","delaylearn","learning","pre_fixation","5ee91ec1ef56832aa7947169","not found","","","","","","","","","","","","","","","","","","","","",""
"lmdlab-html-vas-response","145","558320","0.0-60.0-3.0-0.0","","4637","How happy are you right now?","0.4791666666666667","delaylearn","learning","mood_baseline","5ee91ec1ef56832aa7947169","NGNuEau595V5JttzXFtsMnje45B2","","","","","","","","","","","","","","","","","","","","[""Very unhappy"",""Very happy""]",""
"html-keyboard-response","146","559830","0.0-60.0-3.0-1.0","","null","","null","","","mood_baseline_fixation","","","","","","","","","","","","","","","","","","","","","","",""
"html-keyboard-response","147","561812","0.0-61.0","","null","<div style=""font-size:100px;"">+</div>","null","delaylearn","learning","ITI","5ee91ec1ef56832aa7947169","NGNuEau595V5JttzXFtsMnje45B2","","","","","","","","","","","","","","","","","","","1967","",""
"html-keyboard-response","148","563475","0.0-62.0-0.0","","1660.2999999998137","<div style=""display: flex; flex-direction: column; align-items: center; margin-top: -40px;""><img src=""images/pattern_7.png"" style=""width: 234px; height: 230px; margin-top: -50px;""><div style=""display: flex; justify-content: space-between; margin-top: 33px;""><img src=""images/choice_trial_12.png"" style=""width: 408px; height: 417px; margin-right: 200px;""><img src=""images/choice_trial_6.png"" style=""width: 408px; height: 417px;""></div></div>","j","delaylearn","learning","trial","5ee91ec1ef56832aa7947169","NGNuEau595V5JttzXFtsMnje45B2","3","images/choice_trial_12.png","images/choice_trial_6.png","images/pattern_7.png","j","j","750","12","6","6","1","27","1","1","6","180","","","","",""
"html-keyboard-response","149","564478","0.0-62.0-1.0","","null","<div style=""display: flex; flex-direction: column; align-items: center; margin-top: -40px;""><img src=""images/pattern_7.png"" style=""width: 234px; height: 230px; margin-top: -50px;""><div style=""display: flex; justify-content: space-between; margin-top: 33px;""><img src=""images/choice_trial_6.png"" style=""width: 408px; height: 417px; margin-left:608px;""></div></div>","null","delaylearn","learning","display_response","5ee91ec1ef56832aa7947169","NGNuEau595V5JttzXFtsMnje45B2","","","","","","","","","","","","","","","","","chosen stimuli: images/choice_trial_6.png","","","",""
"html-keyboard-response","150","565244","0.0-62.0-2.0","","null","","null","delaylearn","learning","feedback_duration_window","5ee91ec1ef56832aa7947169","NGNuEau595V5JttzXFtsMnje45B2","","","","","","","","","","","","","","","","","","750","","",""
"html-keyboard-response","151","566760","0.0-62.0-3.0","","null","<div style='margin:auto;width: auto; font-size: 150%'><span style='font-weight: bold; font-size: 100px; color: green;'>+10 points!</span><br><br></div>","null","delaylearn","learning","feedback_image_window","5ee91ec1ef56832aa7947169","NGNuEau595V5JttzXFtsMnje45B2","","","","","","","","","","","","","","","","","","","","",""
"html-keyboard-response","152","567277","0.0-63.0-0.0","","null","","null","","","mood_trial_fixation","","","","","","","","","","","","","","","","","","","","","","",""
"lmdlab-html-vas-response","153","572665","0.0-63.0-1.0","","4367","How happy are you right now?","0.4666666666666667","delaylearn","learning","mood_trial","5ee91ec1ef56832aa7947169","NGNuEau595V5JttzXFtsMnje45B2","","","","","","","","","","","","","","","","","","","","[""Very unhappy"",""Very happy""]",""
"html-keyboard-response","154","574491","0.0-64.0","","null","<div style=""font-size:100px;"">+</div>","null","delaylearn","learning","ITI","5ee91ec1ef56832aa7947169","NGNuEau595V5JttzXFtsMnje45B2","","","","","","","","","","","","","","","","","","","1815","",""
"html-keyboard-response","155","576395","0.0-65.0-0.0","","1900.9000000003725","<div style=""display: flex; flex-direction: column; align-items: center; margin-top: -40px;""><img src=""images/pattern_1.png"" style=""width: 234px; height: 230px; margin-top: -50px;""><div style=""display: flex; justify-content: space-between; margin-top: 33px;""><img src=""images/choice_trial_14.png"" style=""width: 408px; height: 417px; margin-right: 200px;""><img src=""images/choice_trial_8.png"" style=""width: 408px; height: 417px;""></div></div>","f","delaylearn","learning","trial","5ee91ec1ef56832aa7947169","NGNuEau595V5JttzXFtsMnje45B2","3","images/choice_trial_14.png","images/choice_trial_8.png","images/pattern_1.png","f","f","7000","14","8","1","0","28","1","1","14","190","","","","",""
"html-keyboard-response","156","577412","0.0-65.0-1.0","","null","<div style=""display: flex; flex-direction: column; align-items: center; margin-top: -40px;""><img src=""images/pattern_1.png"" style=""width: 234px; height: 230px; margin-top: -50px;""><div style=""display: flex; justify-content: space-between; margin-top: 33px;""><img src=""images/choice_trial_14.png"" style=""width: 408px; height: 417px; margin-right: 608px;""></div></div>","null","delaylearn","learning","display_response","5ee91ec1ef56832aa7947169","NGNuEau595V5JttzXFtsMnje45B2","","","","","","","","","","","","","","","","","chosen stimuli: images/choice_trial_14.png","","","",""
"html-keyboard-response","157","584422","0.0-65.0-2.0","","null","","null","delaylearn","learning","feedback_duration_window","5ee91ec1ef56832aa7947169","NGNuEau595V5JttzXFtsMnje45B2","","","","","","","","","","","","","","","","","","7000","","",""
"html-keyboard-response","158","585937","0.0-65.0-3.0","","null","<div style='margin:auto;width: auto; font-size: 150%'><span style='font-weight: bold; font-size: 100px; color: green;'>+10 points!</span><br><br></div>","null","delaylearn","learning","feedback_image_window","5ee91ec1ef56832aa7947169","NGNuEau595V5JttzXFtsMnje45B2","","","","","","","","","","","","","","","","","","","","",""
"html-keyboard-response","159","587470","0.0-66.0","","null","<div style=""font-size:100px;"">+</div>","null","delaylearn","learning","ITI","5ee91ec1ef56832aa7947169","NGNuEau595V5JttzXFtsMnje45B2","","","","","","","","","","","","","","","","","","","1530","",""
"html-keyboard-response","160","589470","0.0-67.0-0.0","","1998.199999999255","<div style=""display: flex; flex-direction: column; align-items: center; margin-top: -40px;""><img src=""images/pattern_5.png"" style=""width: 234px; height: 230px; margin-top: -50px;""><div style=""display: flex; justify-content: space-between; margin-top: 33px;""><img src=""images/choice_trial_11.png"" style=""width: 408px; height: 417px; margin-right: 200px;""><img src=""images/choice_trial_2.png"" style=""width: 408px; height: 417px;""></div></div>","f","delaylearn","learning","trial","5ee91ec1ef56832aa7947169","NGNuEau595V5JttzXFtsMnje45B2","3","images/choice_trial_11.png","images/choice_trial_2.png","images/pattern_5.png","f","f","750","11","2","4","0","29","1","1","11","200","","","","",""
"html-keyboard-response","161","590485","0.0-67.0-1.0","","null","<div style=""display: flex; flex-direction: column; align-items: center; margin-top: -40px;""><img src=""images/pattern_5.png"" style=""width: 234px; height: 230px; margin-top: -50px;""><div style=""display: flex; justify-content: space-between; margin-top: 33px;""><img src=""images/choice_trial_11.png"" style=""width: 408px; height: 417px; margin-right: 608px;""></div></div>","null","delaylearn","learning","display_response","5ee91ec1ef56832aa7947169","NGNuEau595V5JttzXFtsMnje45B2","","","","","","","","","","","","","","","","","chosen stimuli: images/choice_trial_11.png","","","",""
"html-keyboard-response","162","591252","0.0-67.0-2.0","","null","","null","delaylearn","learning","feedback_duration_window","5ee91ec1ef56832aa7947169","NGNuEau595V5JttzXFtsMnje45B2","","","","","","","","","","","","","","","","","","750","","",""
"html-keyboard-response","163","592759","0.0-67.0-3.0","","null","<div style='margin:auto;width: auto; font-size: 150%'><span style='font-weight: bold; font-size: 100px; color: green;'>+10 points!</span><br><br></div>","null","delaylearn","learning","feedback_image_window","5ee91ec1ef56832aa7947169","NGNuEau595V5JttzXFtsMnje45B2","","","","","","","","","","","","","","","","","","","","",""
"html-keyboard-response","164","595040","0.0-68.0","","null","<div style=""font-size:100px;"">+</div>","null","delaylearn","learning","ITI","5ee91ec1ef56832aa7947169","NGNuEau595V5JttzXFtsMnje45B2","","","","","","","","","","","","","","","","","","","2275","",""
"html-keyboard-response","165","597094","0.0-69.0-0.0","","2051.600000000559","<div style=""display: flex; flex-direction: column; align-items: center; margin-top: -40px;""><img src=""images/pattern_6.png"" style=""width: 234px; height: 230px; margin-top: -50px;""><div style=""display: flex; justify-content: space-between; margin-top: 33px;""><img src=""images/choice_trial_3.png"" style=""width: 408px; height: 417px; margin-right: 200px;""><img src=""images/choice_trial_16.png"" style=""width: 408px; height: 417px;""></div></div>","f","delaylearn","learning","trial","5ee91ec1ef56832aa7947169","NGNuEau595V5JttzXFtsMnje45B2","3","images/choice_trial_3.png","images/choice_trial_16.png","images/pattern_6.png","j","j","750","3","16","5","1","30","0","0","3","200","","","","",""
"html-keyboard-response","166","598099","0.0-69.0-1.0","","null","<div style=""display: flex; flex-direction: column; align-items: center; margin-top: -40px;""><img src=""images/pattern_6.png"" style=""width: 234px; height: 230px; margin-top: -50px;""><div style=""display: flex; justify-content: space-between; margin-top: 33px;""><img src=""images/choice_trial_3.png"" style=""width: 408px; height: 417px; margin-right: 608px;""></div></div>","null","delaylearn","learning","display_response","5ee91ec1ef56832aa7947169","NGNuEau595V5JttzXFtsMnje45B2","","","","","","","","","","","","","","","","","chosen stimuli: images/choice_trial_3.png","","","",""
"html-keyboard-response","167","598858","0.0-69.0-2.0","","null","","null","delaylearn","learning","feedback_duration_window","5ee91ec1ef56832aa7947169","NGNuEau595V5JttzXFtsMnje45B2","","","","","","","","","","","","","","","","","","750","","",""
"html-keyboard-response","168","600363","0.0-69.0-3.0","","null","<div style='margin:auto;width: auto; font-size: 150%'><span style='font-weight: bold; font-size: 100px; color: red;'>0 points!</span><br><br></div>","null","delaylearn","learning","feedback_image_window","5ee91ec1ef56832aa7947169","NGNuEau595V5JttzXFtsMnje45B2","","","","","","","","","","","","","","","","","","","","",""
"html-keyboard-response","169","600865","0.0-70.0-0.0","","null","","null","","","mood_trial_fixation","","","","","","","","","","","","","","","","","","","","","","",""
"lmdlab-html-vas-response","170","606036","0.0-70.0-1.0","","4145","How happy are you right now?","0.4583333333333333","delaylearn","learning","mood_trial","5ee91ec1ef56832aa7947169","NGNuEau595V5JttzXFtsMnje45B2","","","","","","","","","","","","","","","","","","","","[""Very unhappy"",""Very happy""]",""
"html-keyboard-response","171","607976","0.0-71.0","","null","<div style=""font-size:100px;"">+</div>","null","delaylearn","learning","ITI","5ee91ec1ef56832aa7947169","NGNuEau595V5JttzXFtsMnje45B2","","","","","","","","","","","","","","","","","","","1936","",""
"html-keyboard-response","172","609357","0.0-72.0-0.0","","1377.7999999998137","<div style=""display: flex; flex-direction: column; align-items: center; margin-top: -40px;""><img src=""images/pattern_4.png"" style=""width: 234px; height: 230px; margin-top: -50px;""><div style=""display: flex; justify-content: space-between; margin-top: 33px;""><img src=""images/choice_trial_9.png"" style=""width: 408px; height: 417px; margin-right: 200px;""><img src=""images/choice_trial_15.png"" style=""width: 408px; height: 417px;""></div></div>","j","delaylearn","learning","trial","5ee91ec1ef56832aa7947169","NGNuEau595V5JttzXFtsMnje45B2","3","images/choice_trial_9.png","images/choice_trial_15.png","images/pattern_4.png","j","j","7000","9","15","3","1","31","1","1","15","210","","","","",""
"html-keyboard-response","173","610364","0.0-72.0-1.0","","null","<div style=""display: flex; flex-direction: column; align-items: center; margin-top: -40px;""><img src=""images/pattern_4.png"" style=""width: 234px; height: 230px; margin-top: -50px;""><div style=""display: flex; justify-content: space-between; margin-top: 33px;""><img src=""images/choice_trial_15.png"" style=""width: 408px; height: 417px; margin-left:608px;""></div></div>","null","delaylearn","learning","display_response","5ee91ec1ef56832aa7947169","NGNuEau595V5JttzXFtsMnje45B2","","","","","","","","","","","","","","","","","chosen stimuli: images/choice_trial_15.png","","","",""
"html-keyboard-response","174","617376","0.0-72.0-2.0","","null","","null","delaylearn","learning","feedback_duration_window","5ee91ec1ef56832aa7947169","NGNuEau595V5JttzXFtsMnje45B2","","","","","","","","","","","","","","","","","","7000","","",""
"html-keyboard-response","175","618890","0.0-72.0-3.0","","null","<div style='margin:auto;width: auto; font-size: 150%'><span style='font-weight: bold; font-size: 100px; color: green;'>+10 points!</span><br><br></div>","null","delaylearn","learning","feedback_image_window","5ee91ec1ef56832aa7947169","NGNuEau595V5JttzXFtsMnje45B2","","","","","","","","","","","","","","","","","","","","",""
"html-keyboard-response","176","621371","0.0-73.0","","null","<div style=""font-size:100px;"">+</div>","null","delaylearn","learning","ITI","5ee91ec1ef56832aa7947169","NGNuEau595V5JttzXFtsMnje45B2","","","","","","","","","","","","","","","","","","","2468","",""
"html-keyboard-response","177","623439","0.0-74.0-0.0","","2064.7999999998137","<div style=""display: flex; flex-direction: column; align-items: center; margin-top: -40px;""><img src=""images/pattern_3.png"" style=""width: 234px; height: 230px; margin-top: -50px;""><div style=""display: flex; justify-content: space-between; margin-top: 33px;""><img src=""images/choice_trial_10.png"" style=""width: 408px; height: 417px; margin-right: 200px;""><img src=""images/choice_trial_13.png"" style=""width: 408px; height: 417px;""></div></div>","j","delaylearn","learning","trial","5ee91ec1ef56832aa7947169","NGNuEau595V5JttzXFtsMnje45B2","3","images/choice_trial_10.png","images/choice_trial_13.png","images/pattern_3.png","j","j","7000","10","13","2","1","32","1","1","13","220","","","","",""
"html-keyboard-response","178","624443","0.0-74.0-1.0","","null","<div style=""display: flex; flex-direction: column; align-items: center; margin-top: -40px;""><img src=""images/pattern_3.png"" style=""width: 234px; height: 230px; margin-top: -50px;""><div style=""display: flex; justify-content: space-between; margin-top: 33px;""><img src=""images/choice_trial_13.png"" style=""width: 408px; height: 417px; margin-left:608px;""></div></div>","null","delaylearn","learning","display_response","5ee91ec1ef56832aa7947169","NGNuEau595V5JttzXFtsMnje45B2","","","","","","","","","","","","","","","","","chosen stimuli: images/choice_trial_13.png","","","",""
"html-keyboard-response","179","631452","0.0-74.0-2.0","","null","","null","delaylearn","learning","feedback_duration_window","5ee91ec1ef56832aa7947169","NGNuEau595V5JttzXFtsMnje45B2","","","","","","","","","","","","","","","","","","7000","","",""
"html-keyboard-response","180","632957","0.0-74.0-3.0","","null","<div style='margin:auto;width: auto; font-size: 150%'><span style='font-weight: bold; font-size: 100px; color: green;'>+10 points!</span><br><br></div>","null","delaylearn","learning","feedback_image_window","5ee91ec1ef56832aa7947169","NGNuEau595V5JttzXFtsMnje45B2","","","","","","","","","","","","","","","","","","","","",""
"html-keyboard-response","181","635033","0.0-75.0","","null","<div style=""font-size:100px;"">+</div>","null","delaylearn","learning","ITI","5ee91ec1ef56832aa7947169","NGNuEau595V5JttzXFtsMnje45B2","","","","","","","","","","","","","","","","","","","2068","",""
"html-keyboard-response","182","636487","0.0-76.0-0.0","","1451.2999999998137","<div style=""display: flex; flex-direction: column; align-items: center; margin-top: -40px;""><img src=""images/pattern_5.png"" style=""width: 234px; height: 230px; margin-top: -50px;""><div style=""display: flex; justify-content: space-between; margin-top: 33px;""><img src=""images/choice_trial_11.png"" style=""width: 408px; height: 417px; margin-right: 200px;""><img src=""images/choice_trial_2.png"" style=""width: 408px; height: 417px;""></div></div>","f","delaylearn","learning","trial","5ee91ec1ef56832aa7947169","NGNuEau595V5JttzXFtsMnje45B2","3","images/choice_trial_11.png","images/choice_trial_2.png","images/pattern_5.png","j","f","750","11","2","4","0","33","1","0","11","220","","","","",""
"html-keyboard-response","183","637496","0.0-76.0-1.0","","null","<div style=""display: flex; flex-direction: column; align-items: center; margin-top: -40px;""><img src=""images/pattern_5.png"" style=""width: 234px; height: 230px; margin-top: -50px;""><div style=""display: flex; justify-content: space-between; margin-top: 33px;""><img src=""images/choice_trial_11.png"" style=""width: 408px; height: 417px; margin-right: 608px;""></div></div>","null","delaylearn","learning","display_response","5ee91ec1ef56832aa7947169","NGNuEau595V5JttzXFtsMnje45B2","","","","","","","","","","","","","","","","","chosen stimuli: images/choice_trial_11.png","","","",""
"html-keyboard-response","184","638249","0.0-76.0-2.0","","null","","null","delaylearn","learning","feedback_duration_window","5ee91ec1ef56832aa7947169","NGNuEau595V5JttzXFtsMnje45B2","","","","","","","","","","","","","","","","","","750","","",""
"html-keyboard-response","185","639756","0.0-76.0-3.0","","null","<div style='margin:auto;width: auto; font-size: 150%'><span style='font-weight: bold; font-size: 100px; color: red;'>0 points!</span><br><br></div>","null","delaylearn","learning","feedback_image_window","5ee91ec1ef56832aa7947169","NGNuEau595V5JttzXFtsMnje45B2","","","","","","","","","","","","","","","","","","","","",""
"html-keyboard-response","186","641898","0.0-77.0","","null","<div style=""font-size:100px;"">+</div>","null","delaylearn","learning","ITI","5ee91ec1ef56832aa7947169","NGNuEau595V5JttzXFtsMnje45B2","","","","","","","","","","","","","","","","","","","2129","",""
"html-keyboard-response","187","643203","0.0-78.0-0.0","","1302.5","<div style=""display: flex; flex-direction: column; align-items: center; margin-top: -40px;""><img src=""images/pattern_1.png"" style=""width: 234px; height: 230px; margin-top: -50px;""><div style=""display: flex; justify-content: space-between; margin-top: 33px;""><img src=""images/choice_trial_14.png"" style=""width: 408px; height: 417px; margin-right: 200px;""><img src=""images/choice_trial_8.png"" style=""width: 408px; height: 417px;""></div></div>","f","delaylearn","learning","trial","5ee91ec1ef56832aa7947169","NGNuEau595V5JttzXFtsMnje45B2","3","images/choice_trial_14.png","images/choice_trial_8.png","images/pattern_1.png","f","f","7000","14","8","1","0","34","1","1","14","230","","","","",""
"html-keyboard-response","188","644222","0.0-78.0-1.0","","null","<div style=""display: flex; flex-direction: column; align-items: center; margin-top: -40px;""><img src=""images/pattern_1.png"" style=""width: 234px; height: 230px; margin-top: -50px;""><div style=""display: flex; justify-content: space-between; margin-top: 33px;""><img src=""images/choice_trial_14.png"" style=""width: 408px; height: 417px; margin-right: 608px;""></div></div>","null","delaylearn","learning","display_response","5ee91ec1ef56832aa7947169","NGNuEau595V5JttzXFtsMnje45B2","","","","","","","","","","","","","","","","","chosen stimuli: images/choice_trial_14.png","","","",""
"html-keyboard-response","189","651229","0.0-78.0-2.0","","null","","null","delaylearn","learning","feedback_duration_window","5ee91ec1ef56832aa7947169","NGNuEau595V5JttzXFtsMnje45B2","","","","","","","","","","","","","","","","","","7000","","",""
"html-keyboard-response","190","652747","0.0-78.0-3.0","","null","<div style='margin:auto;width: auto; font-size: 150%'><span style='font-weight: bold; font-size: 100px; color: green;'>+10 points!</span><br><br></div>","null","delaylearn","learning","feedback_image_window","5ee91ec1ef56832aa7947169","NGNuEau595V5JttzXFtsMnje45B2","","","","","","","","","","","","","","","","","","","","",""
"html-keyboard-response","191","653251","0.0-79.0-0.0","","null","","null","","","mood_trial_fixation","","","","","","","","","","","","","","","","","","","","","","",""
"lmdlab-html-vas-response","192","665868","0.0-79.0-1.0","","11606","How happy are you right now?","0.44166666666666665","delaylearn","learning","mood_trial","5ee91ec1ef56832aa7947169","NGNuEau595V5JttzXFtsMnje45B2","","","","","","","","","","","","","","","","","","","","[""Very unhappy"",""Very happy""]",""
"html-keyboard-response","193","667987","0.0-80.0","","null","<div style=""font-size:100px;"">+</div>","null","delaylearn","learning","ITI","5ee91ec1ef56832aa7947169","NGNuEau595V5JttzXFtsMnje45B2","","","","","","","","","","","","","","","","","","","2116","",""
"html-keyboard-response","194","669801","0.0-81.0-0.0","","1810.2000000001863","<div style=""display: flex; flex-direction: column; align-items: center; margin-top: -40px;""><img src=""images/pattern_6.png"" style=""width: 234px; height: 230px; margin-top: -50px;""><div style=""display: flex; justify-content: space-between; margin-top: 33px;""><img src=""images/choice_trial_16.png"" style=""width: 408px; height: 417px; margin-right: 200px;""><img src=""images/choice_trial_3.png"" style=""width: 408px; height: 417px;""></div></div>","f","delaylearn","learning","trial","5ee91ec1ef56832aa7947169","NGNuEau595V5JttzXFtsMnje45B2","3","images/choice_trial_16.png","images/choice_trial_3.png","images/pattern_6.png","j","f","750","16","3","5","0","35","1","0","16","230","","","","",""
"html-keyboard-response","195","670808","0.0-81.0-1.0","","null","<div style=""display: flex; flex-direction: column; align-items: center; margin-top: -40px;""><img src=""images/pattern_6.png"" style=""width: 234px; height: 230px; margin-top: -50px;""><div style=""display: flex; justify-content: space-between; margin-top: 33px;""><img src=""images/choice_trial_16.png"" style=""width: 408px; height: 417px; margin-right: 608px;""></div></div>","null","delaylearn","learning","display_response","5ee91ec1ef56832aa7947169","NGNuEau595V5JttzXFtsMnje45B2","","","","","","","","","","","","","","","","","chosen stimuli: images/choice_trial_16.png","","","",""
"html-keyboard-response","196","671562","0.0-81.0-2.0","","null","","null","delaylearn","learning","feedback_duration_window","5ee91ec1ef56832aa7947169","NGNuEau595V5JttzXFtsMnje45B2","","","","","","","","","","","","","","","","","","750","","",""
"html-keyboard-response","197","673067","0.0-81.0-3.0","","null","<div style='margin:auto;width: auto; font-size: 150%'><span style='font-weight: bold; font-size: 100px; color: red;'>0 points!</span><br><br></div>","null","delaylearn","learning","feedback_image_window","5ee91ec1ef56832aa7947169","NGNuEau595V5JttzXFtsMnje45B2","","","","","","","","","","","","","","","","","","","","",""
"html-keyboard-response","198","675434","0.0-82.0","","null","<div style=""font-size:100px;"">+</div>","null","delaylearn","learning","ITI","5ee91ec1ef56832aa7947169","NGNuEau595V5JttzXFtsMnje45B2","","","","","","","","","","","","","","","","","","","2366","",""
"html-keyboard-response","199","676487","0.0-83.0-0.0","","1049.800000000745","<div style=""display: flex; flex-direction: column; align-items: center; margin-top: -40px;""><img src=""images/pattern_3.png"" style=""width: 234px; height: 230px; margin-top: -50px;""><div style=""display: flex; justify-content: space-between; margin-top: 33px;""><img src=""images/choice_trial_10.png"" style=""width: 408px; height: 417px; margin-right: 200px;""><img src=""images/choice_trial_13.png"" style=""width: 408px; height: 417px;""></div></div>","f","delaylearn","learning","trial","5ee91ec1ef56832aa7947169","NGNuEau595V5JttzXFtsMnje45B2","3","images/choice_trial_10.png","images/choice_trial_13.png","images/pattern_3.png","j","j","7000","10","13","2","1","36","0","0","10","230","","","","",""
"html-keyboard-response","200","677499","0.0-83.0-1.0","","null","<div style=""display: flex; flex-direction: column; align-items: center; margin-top: -40px;""><img src=""images/pattern_3.png"" style=""width: 234px; height: 230px; margin-top: -50px;""><div style=""display: flex; justify-content: space-between; margin-top: 33px;""><img src=""images/choice_trial_10.png"" style=""width: 408px; height: 417px; margin-right: 608px;""></div></div>","null","delaylearn","learning","display_response","5ee91ec1ef56832aa7947169","NGNuEau595V5JttzXFtsMnje45B2","","","","","","","","","","","","","","","","","chosen stimuli: images/choice_trial_10.png","","","",""
"html-keyboard-response","201","684512","0.0-83.0-2.0","","null","","null","delaylearn","learning","feedback_duration_window","5ee91ec1ef56832aa7947169","NGNuEau595V5JttzXFtsMnje45B2","","","","","","","","","","","","","","","","","","7000","","",""
"html-keyboard-response","202","686020","0.0-83.0-3.0","","null","<div style='margin:auto;width: auto; font-size: 150%'><span style='font-weight: bold; font-size: 100px; color: red;'>0 points!</span><br><br></div>","null","delaylearn","learning","feedback_image_window","5ee91ec1ef56832aa7947169","NGNuEau595V5JttzXFtsMnje45B2","","","","","","","","","","","","","","","","","","","","",""
"html-keyboard-response","203","687710","0.0-84.0","","null","<div style=""font-size:100px;"">+</div>","null","delaylearn","learning","ITI","5ee91ec1ef56832aa7947169","NGNuEau595V5JttzXFtsMnje45B2","","","","","","","","","","","","","","","","","","","1686","",""
"html-keyboard-response","204","689460","0.0-85.0-0.0","","1743.4000000003725","<div style=""display: flex; flex-direction: column; align-items: center; margin-top: -40px;""><img src=""images/pattern_4.png"" style=""width: 234px; height: 230px; margin-top: -50px;""><div style=""display: flex; justify-content: space-between; margin-top: 33px;""><img src=""images/choice_trial_9.png"" style=""width: 408px; height: 417px; margin-right: 200px;""><img src=""images/choice_trial_15.png"" style=""width: 408px; height: 417px;""></div></div>","j","delaylearn","learning","trial","5ee91ec1ef56832aa7947169","NGNuEau595V5JttzXFtsMnje45B2","3","images/choice_trial_9.png","images/choice_trial_15.png","images/pattern_4.png","f","j","7000","9","15","3","1","37","1","0","15","230","","","","",""
"html-keyboard-response","205","690484","0.0-85.0-1.0","","null","<div style=""display: flex; flex-direction: column; align-items: center; margin-top: -40px;""><img src=""images/pattern_4.png"" style=""width: 234px; height: 230px; margin-top: -50px;""><div style=""display: flex; justify-content: space-between; margin-top: 33px;""><img src=""images/choice_trial_15.png"" style=""width: 408px; height: 417px; margin-left:608px;""></div></div>","null","delaylearn","learning","display_response","5ee91ec1ef56832aa7947169","NGNuEau595V5JttzXFtsMnje45B2","","","","","","","","","","","","","","","","","chosen stimuli: images/choice_trial_15.png","","","",""
"html-keyboard-response","206","697495","0.0-85.0-2.0","","null","","null","delaylearn","learning","feedback_duration_window","5ee91ec1ef56832aa7947169","NGNuEau595V5JttzXFtsMnje45B2","","","","","","","","","","","","","","","","","","7000","","",""
"html-keyboard-response","207","698999","0.0-85.0-3.0","","null","<div style='margin:auto;width: auto; font-size: 150%'><span style='font-weight: bold; font-size: 100px; color: red;'>0 points!</span><br><br></div>","null","delaylearn","learning","feedback_image_window","5ee91ec1ef56832aa7947169","NGNuEau595V5JttzXFtsMnje45B2","","","","","","","","","","","","","","","","","","","","",""
"html-keyboard-response","208","700672","0.0-86.0","","null","<div style=""font-size:100px;"">+</div>","null","delaylearn","learning","ITI","5ee91ec1ef56832aa7947169","NGNuEau595V5JttzXFtsMnje45B2","","","","","","","","","","","","","","","","","","","1659","",""
"html-keyboard-response","209","701886","0.0-87.0-0.0","","1210.8999999994412","<div style=""display: flex; flex-direction: column; align-items: center; margin-top: -40px;""><img src=""images/pattern_7.png"" style=""width: 234px; height: 230px; margin-top: -50px;""><div style=""display: flex; justify-content: space-between; margin-top: 33px;""><img src=""images/choice_trial_6.png"" style=""width: 408px; height: 417px; margin-right: 200px;""><img src=""images/choice_trial_12.png"" style=""width: 408px; height: 417px;""></div></div>","f","delaylearn","learning","trial","5ee91ec1ef56832aa7947169","NGNuEau595V5JttzXFtsMnje45B2","3","images/choice_trial_6.png","images/choice_trial_12.png","images/pattern_7.png","f","f","750","6","12","6","0","38","1","1","6","240","","","","",""
"html-keyboard-response","210","702889","0.0-87.0-1.0","","null","<div style=""display: flex; flex-direction: column; align-items: center; margin-top: -40px;""><img src=""images/pattern_7.png"" style=""width: 234px; height: 230px; margin-top: -50px;""><div style=""display: flex; justify-content: space-between; margin-top: 33px;""><img src=""images/choice_trial_6.png"" style=""width: 408px; height: 417px; margin-right: 608px;""></div></div>","null","delaylearn","learning","display_response","5ee91ec1ef56832aa7947169","NGNuEau595V5JttzXFtsMnje45B2","","","","","","","","","","","","","","","","","chosen stimuli: images/choice_trial_6.png","","","",""
"html-keyboard-response","211","703655","0.0-87.0-2.0","","null","","null","delaylearn","learning","feedback_duration_window","5ee91ec1ef56832aa7947169","NGNuEau595V5JttzXFtsMnje45B2","","","","","","","","","","","","","","","","","","750","","",""
"html-keyboard-response","212","705170","0.0-87.0-3.0","","null","<div style='margin:auto;width: auto; font-size: 150%'><span style='font-weight: bold; font-size: 100px; color: green;'>+10 points!</span><br><br></div>","null","delaylearn","learning","feedback_image_window","5ee91ec1ef56832aa7947169","NGNuEau595V5JttzXFtsMnje45B2","","","","","","","","","","","","","","","","","","","","",""
"html-keyboard-response","213","706920","0.0-88.0","","null","<div style=""font-size:100px;"">+</div>","null","delaylearn","learning","ITI","5ee91ec1ef56832aa7947169","NGNuEau595V5JttzXFtsMnje45B2","","","","","","","","","","","","","","","","","","","1740","",""
"html-keyboard-response","214","709381","0.0-89.0-0.0","","2456.7999999998137","<div style=""display: flex; flex-direction: column; align-items: center; margin-top: -40px;""><img src=""images/pattern_1.png"" style=""width: 234px; height: 230px; margin-top: -50px;""><div style=""display: flex; justify-content: space-between; margin-top: 33px;""><img src=""images/choice_trial_14.png"" style=""width: 408px; height: 417px; margin-right: 200px;""><img src=""images/choice_trial_8.png"" style=""width: 408px; height: 417px;""></div></div>","j","delaylearn","learning","trial","5ee91ec1ef56832aa7947169","NGNuEau595V5JttzXFtsMnje45B2","3","images/choice_trial_14.png","images/choice_trial_8.png","images/pattern_1.png","f","f","7000","14","8","1","0","39","0","0","8","240","","","","",""
"html-keyboard-response","215","710385","0.0-89.0-1.0","","null","<div style=""display: flex; flex-direction: column; align-items: center; margin-top: -40px;""><img src=""images/pattern_1.png"" style=""width: 234px; height: 230px; margin-top: -50px;""><div style=""display: flex; justify-content: space-between; margin-top: 33px;""><img src=""images/choice_trial_8.png"" style=""width: 408px; height: 417px; margin-left:608px;""></div></div>","null","delaylearn","learning","display_response","5ee91ec1ef56832aa7947169","NGNuEau595V5JttzXFtsMnje45B2","","","","","","","","","","","","","","","","","chosen stimuli: images/choice_trial_8.png","","","",""
"html-keyboard-response","216","717395","0.0-89.0-2.0","","null","","null","delaylearn","learning","feedback_duration_window","5ee91ec1ef56832aa7947169","NGNuEau595V5JttzXFtsMnje45B2","","","","","","","","","","","","","","","","","","7000","","",""
"html-keyboard-response","217","718907","0.0-89.0-3.0","","null","<div style='margin:auto;width: auto; font-size: 150%'><span style='font-weight: bold; font-size: 100px; color: red;'>0 points!</span><br><br></div>","null","delaylearn","learning","feedback_image_window","5ee91ec1ef56832aa7947169","NGNuEau595V5JttzXFtsMnje45B2","","","","","","","","","","","","","","","","","","","","",""
"html-keyboard-response","218","719423","0.0-90.0-0.0","","null","","null","","","mood_trial_fixation","","","","","","","","","","","","","","","","","","","","","","",""
"lmdlab-html-vas-response","219","724011","0.0-90.0-1.0","","3575","How happy are you right now?","0.27708333333333335","delaylearn","learning","mood_trial","5ee91ec1ef56832aa7947169","NGNuEau595V5JttzXFtsMnje45B2","","","","","","","","","","","","","","","","","","","","[""Very unhappy"",""Very happy""]",""
"html-keyboard-response","220","725935","0.0-91.0","","null","<div style=""font-size:100px;"">+</div>","null","delaylearn","learning","ITI","5ee91ec1ef56832aa7947169","NGNuEau595V5JttzXFtsMnje45B2","","","","","","","","","","","","","","","","","","","1917","",""
