"trial_type","trial_index","time_elapsed","internal_node_id","participant","rt","stimulus","response","exp_name","exp_stage","test_part","subjectID","databaseID","counterbal","choice_stimuli_1","choice_stimuli_2","pattern_stimuli","rewarded_answer","correct_answer","feedback_duration_times","stim_left","stim_right","pair","leftright_counter","trial","response_correct","response_rewarded","chosen_stim","counter","displayed_choice","feedback_durations","ITI_duration","labels","rest_warning"
"pavlovia","0","640","0.0-0.0","","","","","","","","","","","","","","","","","","","","","","","","","","","","","",""
"html-keyboard-response","1","3663","0.0-1.0","","null","<div style=""font-size:100px;"">+</div>","null","delaylearn","learning","pre_fixation","63ea445c759d5bf0e3f63739","","","","","","","","","","","","","","","","","","","","","",""
"html-keyboard-response","2","6188","0.0-2.0-0.0","","2514.4000005722046","<div style=""display: flex; flex-direction: column; align-items: center; margin-top: -40px;""><img src=""images/demo_images/pattern_1.png"" style=""width: 234px; height: 230px; margin-top: -50px;""><div style=""display: flex; justify-content: space-between; margin-top: 33px;""><img src=""images/demo_images/choice_trial_2.png"" style=""width: 408px; height: 417px; margin-right: 200px;""><img src=""images/demo_images/choice_trial_1.png"" style=""width: 408px; height: 417px;""></div></div>","f","delaylearn","learning","trial","63ea445c759d5bf0e3f63739","IkpEBPxBOLZS47tHjswLbHRCnX62","3","images/demo_images/choice_trial_2.png","images/demo_images/choice_trial_1.png","images/demo_images/pattern_1.png","j","j","3000","2","1","20","1","1","0","0","2","0","","","","",""
"html-keyboard-response","3","7215","0.0-2.0-1.0","","null","<div style=""display: flex; flex-direction: column; align-items: center; margin-top: -40px;""><img src=""images/demo_images/pattern_1.png"" style=""width: 234px; height: 230px; margin-top: -50px;""><div style=""display: flex; justify-content: space-between; margin-top: 33px;""><img src=""images/demo_images/choice_trial_2.png"" style=""width: 408px; height: 417px; margin-right: 608px;""></div></div>","null","delaylearn","learning","display_response","63ea445c759d5bf0e3f63739","IkpEBPxBOLZS47tHjswLbHRCnX62","","","","","","","","","","","","","","","","","chosen stimuli: images/demo_images/choice_trial_2.png","","","",""
"html-keyboard-response","4","10228","0.0-2.0-2.0","","null","","null","delaylearn","learning","feedback_duration_window","63ea445c759d5bf0e3f63739","IkpEBPxBOLZS47tHjswLbHRCnX62","","","","","","","","","","","","","","","","","","3000","","",""
"html-keyboard-response","5","11740","0.0-2.0-3.0","","null","<div style='margin:auto;width: auto; font-size: 150%'><span style='font-weight: bold; font-size: 100px; color: red;'>0 points!</span><br><br></div>","null","delaylearn","learning","feedback_image_window","63ea445c759d5bf0e3f63739","IkpEBPxBOLZS47tHjswLbHRCnX62","","","","","","","","","","","","","","","","","","","","",""
"html-keyboard-response","6","13777","0.0-3.0","","null","<div style=""font-size:100px;"">+</div>","null","delaylearn","learning","ITI","63ea445c759d5bf0e3f63739","IkpEBPxBOLZS47tHjswLbHRCnX62","","","","","","","","","","","","","","","","","","","2022","",""
"html-keyboard-response","7","14629","0.0-4.0-0.0","","842.3000001907349","<div style=""display: flex; flex-direction: column; align-items: center; margin-top: -40px;""><img src=""images/demo_images/pattern_1.png"" style=""width: 234px; height: 230px; margin-top: -50px;""><div style=""display: flex; justify-content: space-between; margin-top: 33px;""><img src=""images/demo_images/choice_trial_2.png"" style=""width: 408px; height: 417px; margin-right: 200px;""><img src=""images/demo_images/choice_trial_1.png"" style=""width: 408px; height: 417px;""></div></div>","j","delaylearn","learning","trial","63ea445c759d5bf0e3f63739","IkpEBPxBOLZS47tHjswLbHRCnX62","3","images/demo_images/choice_trial_2.png","images/demo_images/choice_trial_1.png","images/demo_images/pattern_1.png","j","j","3000","2","1","20","1","2","1","1","1","10","","","","",""
"html-keyboard-response","8","15643","0.0-4.0-1.0","","null","<div style=""display: flex; flex-direction: column; align-items: center; margin-top: -40px;""><img src=""images/demo_images/pattern_1.png"" style=""width: 234px; height: 230px; margin-top: -50px;""><div style=""display: flex; justify-content: space-between; margin-top: 33px;""><img src=""images/demo_images/choice_trial_1.png"" style=""width: 408px; height: 417px; margin-left:608px;""></div></div>","null","delaylearn","learning","display_response","63ea445c759d5bf0e3f63739","IkpEBPxBOLZS47tHjswLbHRCnX62","","","","","","","","","","","","","","","","","chosen stimuli: images/demo_images/choice_trial_1.png","","","",""
"html-keyboard-response","9","18667","0.0-4.0-2.0","","null","","null","delaylearn","learning","feedback_duration_window","63ea445c759d5bf0e3f63739","IkpEBPxBOLZS47tHjswLbHRCnX62","","","","","","","","","","","","","","","","","","3000","","",""
"html-keyboard-response","10","20179","0.0-4.0-3.0","","null","<div style='margin:auto;width: auto; font-size: 150%'><span style='font-weight: bold; font-size: 100px; color: green;'>+10 points!</span><br><br></div>","null","delaylearn","learning","feedback_image_window","63ea445c759d5bf0e3f63739","IkpEBPxBOLZS47tHjswLbHRCnX62","","","","","","","","","","","","","","","","","","","","",""
"html-keyboard-response","11","22336","0.0-5.0","","null","<div style=""font-size:100px;"">+</div>","null","delaylearn","learning","ITI","63ea445c759d5bf0e3f63739","IkpEBPxBOLZS47tHjswLbHRCnX62","","","","","","","","","","","","","","","","","","","2128","",""
"html-keyboard-response","12","24838","0.0-6.0-0.0","","2493.199999809265","<div style=""display: flex; flex-direction: column; align-items: center; margin-top: -40px;""><img src=""images/demo_images/pattern_1.png"" style=""width: 234px; height: 230px; margin-top: -50px;""><div style=""display: flex; justify-content: space-between; margin-top: 33px;""><img src=""images/demo_images/choice_trial_1.png"" style=""width: 408px; height: 417px; margin-right: 200px;""><img src=""images/demo_images/choice_trial_2.png"" style=""width: 408px; height: 417px;""></div></div>","f","delaylearn","learning","trial","63ea445c759d5bf0e3f63739","IkpEBPxBOLZS47tHjswLbHRCnX62","3","images/demo_images/choice_trial_1.png","images/demo_images/choice_trial_2.png","images/demo_images/pattern_1.png","j","f","3000","1","2","20","0","3","1","0","1","10","","","","",""
"html-keyboard-response","13","25861","0.0-6.0-1.0","","null","<div style=""display: flex; flex-direction: column; align-items: center; margin-top: -40px;""><img src=""images/demo_images/pattern_1.png"" style=""width: 234px; height: 230px; margin-top: -50px;""><div style=""display: flex; justify-content: space-between; margin-top: 33px;""><img src=""images/demo_images/choice_trial_1.png"" style=""width: 408px; height: 417px; margin-right: 608px;""></div></div>","null","delaylearn","learning","display_response","63ea445c759d5bf0e3f63739","IkpEBPxBOLZS47tHjswLbHRCnX62","","","","","","","","","","","","","","","","","chosen stimuli: images/demo_images/choice_trial_1.png","","","",""
"html-keyboard-response","14","28888","0.0-6.0-2.0","","null","","null","delaylearn","learning","feedback_duration_window","63ea445c759d5bf0e3f63739","IkpEBPxBOLZS47tHjswLbHRCnX62","","","","","","","","","","","","","","","","","","3000","","",""
"html-keyboard-response","15","30414","0.0-6.0-3.0","","null","<div style='margin:auto;width: auto; font-size: 150%'><span style='font-weight: bold; font-size: 100px; color: red;'>0 points!</span><br><br></div>","null","delaylearn","learning","feedback_image_window","63ea445c759d5bf0e3f63739","IkpEBPxBOLZS47tHjswLbHRCnX62","","","","","","","","","","","","","","","","","","","","",""
"html-keyboard-response","16","32160","0.0-7.0","","null","<div style=""font-size:100px;"">+</div>","null","delaylearn","learning","ITI","63ea445c759d5bf0e3f63739","IkpEBPxBOLZS47tHjswLbHRCnX62","","","","","","","","","","","","","","","","","","","1741","",""
"html-keyboard-response","17","34780","0.0-8.0-0.0","","2615.0999994277954","<div style=""display: flex; flex-direction: column; align-items: center; margin-top: -40px;""><img src=""images/demo_images/pattern_1.png"" style=""width: 234px; height: 230px; margin-top: -50px;""><div style=""display: flex; justify-content: space-between; margin-top: 33px;""><img src=""images/demo_images/choice_trial_1.png"" style=""width: 408px; height: 417px; margin-right: 200px;""><img src=""images/demo_images/choice_trial_2.png"" style=""width: 408px; height: 417px;""></div></div>","f","delaylearn","learning","trial","63ea445c759d5bf0e3f63739","IkpEBPxBOLZS47tHjswLbHRCnX62","3","images/demo_images/choice_trial_1.png","images/demo_images/choice_trial_2.png","images/demo_images/pattern_1.png","f","f","3000","1","2","20","0","4","1","1","1","20","","","","",""
"html-keyboard-response","18","35795","0.0-8.0-1.0","","null","<div style=""display: flex; flex-direction: column; align-items: center; margin-top: -40px;""><img src=""images/demo_images/pattern_1.png"" style=""width: 234px; height: 230px; margin-top: -50px;""><div style=""display: flex; justify-content: space-between; margin-top: 33px;""><img src=""images/demo_images/choice_trial_1.png"" style=""width: 408px; height: 417px; margin-right: 608px;""></div></div>","null","delaylearn","learning","display_response","63ea445c759d5bf0e3f63739","IkpEBPxBOLZS47tHjswLbHRCnX62","","","","","","","","","","","","","","","","","chosen stimuli: images/demo_images/choice_trial_1.png","","","",""
"html-keyboard-response","19","38813","0.0-8.0-2.0","","null","","null","delaylearn","learning","feedback_duration_window","63ea445c759d5bf0e3f63739","IkpEBPxBOLZS47tHjswLbHRCnX62","","","","","","","","","","","","","","","","","","3000","","",""
"html-keyboard-response","20","40331","0.0-8.0-3.0","","null","<div style='margin:auto;width: auto; font-size: 150%'><span style='font-weight: bold; font-size: 100px; color: green;'>+10 points!</span><br><br></div>","null","delaylearn","learning","feedback_image_window","63ea445c759d5bf0e3f63739","IkpEBPxBOLZS47tHjswLbHRCnX62","","","","","","","","","","","","","","","","","","","","",""
"html-keyboard-response","21","40842","0.0-9.0-0.0","","null","","null","","","mood_trial_fixation","","","","","","","","","","","","","","","","","","","","","","",""
"lmdlab-html-vas-response","22","45603","0.0-9.0-1.0","","3719","How happy are you right now?","0.6345664779085145","delaylearn","learning","mood_trial","63ea445c759d5bf0e3f63739","IkpEBPxBOLZS47tHjswLbHRCnX62","","","","","","","","","","","","","","","","","","","","[""Very unhappy"",""Very happy""]",""
"html-keyboard-response","23","47830","0.0-10.0","","null","<div style=""font-size:100px;"">+</div>","null","delaylearn","learning","ITI","63ea445c759d5bf0e3f63739","IkpEBPxBOLZS47tHjswLbHRCnX62","","","","","","","","","","","","","","","","","","","2207","",""
"html-keyboard-response","24","49597","0.0-11.0-0.0","","1760","<div style=""display: flex; flex-direction: column; align-items: center; margin-top: -40px;""><img src=""images/demo_images/pattern_1.png"" style=""width: 234px; height: 230px; margin-top: -50px;""><div style=""display: flex; justify-content: space-between; margin-top: 33px;""><img src=""images/demo_images/choice_trial_2.png"" style=""width: 408px; height: 417px; margin-right: 200px;""><img src=""images/demo_images/choice_trial_1.png"" style=""width: 408px; height: 417px;""></div></div>","j","delaylearn","learning","trial","63ea445c759d5bf0e3f63739","IkpEBPxBOLZS47tHjswLbHRCnX62","3","images/demo_images/choice_trial_2.png","images/demo_images/choice_trial_1.png","images/demo_images/pattern_1.png","j","j","3000","2","1","20","1","5","1","1","1","30","","","","",""
"html-keyboard-response","25","50624","0.0-11.0-1.0","","null","<div style=""display: flex; flex-direction: column; align-items: center; margin-top: -40px;""><img src=""images/demo_images/pattern_1.png"" style=""width: 234px; height: 230px; margin-top: -50px;""><div style=""display: flex; justify-content: space-between; margin-top: 33px;""><img src=""images/demo_images/choice_trial_1.png"" style=""width: 408px; height: 417px; margin-left:608px;""></div></div>","null","delaylearn","learning","display_response","63ea445c759d5bf0e3f63739","IkpEBPxBOLZS47tHjswLbHRCnX62","","","","","","","","","","","","","","","","","chosen stimuli: images/demo_images/choice_trial_1.png","","","",""
"html-keyboard-response","26","53638","0.0-11.0-2.0","","null","","null","delaylearn","learning","feedback_duration_window","63ea445c759d5bf0e3f63739","IkpEBPxBOLZS47tHjswLbHRCnX62","","","","","","","","","","","","","","","","","","3000","","",""
"html-keyboard-response","27","55157","0.0-11.0-3.0","","null","<div style='margin:auto;width: auto; font-size: 150%'><span style='font-weight: bold; font-size: 100px; color: green;'>+10 points!</span><br><br></div>","null","delaylearn","learning","feedback_image_window","63ea445c759d5bf0e3f63739","IkpEBPxBOLZS47tHjswLbHRCnX62","","","","","","","","","","","","","","","","","","","","",""
"html-keyboard-response","28","57195","0.0-12.0","","null","<div style=""font-size:100px;"">+</div>","null","delaylearn","learning","ITI","63ea445c759d5bf0e3f63739","IkpEBPxBOLZS47tHjswLbHRCnX62","","","","","","","","","","","","","","","","","","","2022","",""
"html-keyboard-response","29","59259","0.0-13.0-0.0","","2053.8999996185303","<div style=""display: flex; flex-direction: column; align-items: center; margin-top: -40px;""><img src=""images/demo_images/pattern_1.png"" style=""width: 234px; height: 230px; margin-top: -50px;""><div style=""display: flex; justify-content: space-between; margin-top: 33px;""><img src=""images/demo_images/choice_trial_1.png"" style=""width: 408px; height: 417px; margin-right: 200px;""><img src=""images/demo_images/choice_trial_2.png"" style=""width: 408px; height: 417px;""></div></div>","f","delaylearn","learning","trial","63ea445c759d5bf0e3f63739","IkpEBPxBOLZS47tHjswLbHRCnX62","3","images/demo_images/choice_trial_1.png","images/demo_images/choice_trial_2.png","images/demo_images/pattern_1.png","f","f","3000","1","2","20","0","6","1","1","1","40","","","","",""
"html-keyboard-response","30","60285","0.0-13.0-1.0","","null","<div style=""display: flex; flex-direction: column; align-items: center; margin-top: -40px;""><img src=""images/demo_images/pattern_1.png"" style=""width: 234px; height: 230px; margin-top: -50px;""><div style=""display: flex; justify-content: space-between; margin-top: 33px;""><img src=""images/demo_images/choice_trial_1.png"" style=""width: 408px; height: 417px; margin-right: 608px;""></div></div>","null","delaylearn","learning","display_response","63ea445c759d5bf0e3f63739","IkpEBPxBOLZS47tHjswLbHRCnX62","","","","","","","","","","","","","","","","","chosen stimuli: images/demo_images/choice_trial_1.png","","","",""
"html-keyboard-response","31","63297","0.0-13.0-2.0","","null","","null","delaylearn","learning","feedback_duration_window","63ea445c759d5bf0e3f63739","IkpEBPxBOLZS47tHjswLbHRCnX62","","","","","","","","","","","","","","","","","","3000","","",""
"html-keyboard-response","32","64803","0.0-13.0-3.0","","null","<div style='margin:auto;width: auto; font-size: 150%'><span style='font-weight: bold; font-size: 100px; color: green;'>+10 points!</span><br><br></div>","null","delaylearn","learning","feedback_image_window","63ea445c759d5bf0e3f63739","IkpEBPxBOLZS47tHjswLbHRCnX62","","","","","","","","","","","","","","","","","","","","",""
"html-keyboard-response","33","66483","0.0-14.0","","null","<div style=""font-size:100px;"">+</div>","null","delaylearn","learning","ITI","63ea445c759d5bf0e3f63739","IkpEBPxBOLZS47tHjswLbHRCnX62","","","","","","","","","","","","","","","","","","","1671","",""
"html-keyboard-response","34","69365","0.0-15.0-0.0","","2874.4000005722046","<div style=""display: flex; flex-direction: column; align-items: center; margin-top: -40px;""><img src=""images/demo_images/pattern_1.png"" style=""width: 234px; height: 230px; margin-top: -50px;""><div style=""display: flex; justify-content: space-between; margin-top: 33px;""><img src=""images/demo_images/choice_trial_2.png"" style=""width: 408px; height: 417px; margin-right: 200px;""><img src=""images/demo_images/choice_trial_1.png"" style=""width: 408px; height: 417px;""></div></div>","j","delaylearn","learning","trial","63ea445c759d5bf0e3f63739","IkpEBPxBOLZS47tHjswLbHRCnX62","3","images/demo_images/choice_trial_2.png","images/demo_images/choice_trial_1.png","images/demo_images/pattern_1.png","j","j","3000","2","1","20","1","7","1","1","1","50","","","","",""
"html-keyboard-response","35","70392","0.0-15.0-1.0","","null","<div style=""display: flex; flex-direction: column; align-items: center; margin-top: -40px;""><img src=""images/demo_images/pattern_1.png"" style=""width: 234px; height: 230px; margin-top: -50px;""><div style=""display: flex; justify-content: space-between; margin-top: 33px;""><img src=""images/demo_images/choice_trial_1.png"" style=""width: 408px; height: 417px; margin-left:608px;""></div></div>","null","delaylearn","learning","display_response","63ea445c759d5bf0e3f63739","IkpEBPxBOLZS47tHjswLbHRCnX62","","","","","","","","","","","","","","","","","chosen stimuli: images/demo_images/choice_trial_1.png","","","",""
"html-keyboard-response","36","73406","0.0-15.0-2.0","","null","","null","delaylearn","learning","feedback_duration_window","63ea445c759d5bf0e3f63739","IkpEBPxBOLZS47tHjswLbHRCnX62","","","","","","","","","","","","","","","","","","3000","","",""
"html-keyboard-response","37","74924","0.0-15.0-3.0","","null","<div style='margin:auto;width: auto; font-size: 150%'><span style='font-weight: bold; font-size: 100px; color: green;'>+10 points!</span><br><br></div>","null","delaylearn","learning","feedback_image_window","63ea445c759d5bf0e3f63739","IkpEBPxBOLZS47tHjswLbHRCnX62","","","","","","","","","","","","","","","","","","","","",""
"html-keyboard-response","38","76836","0.0-16.0","","null","<div style=""font-size:100px;"">+</div>","null","delaylearn","learning","ITI","63ea445c759d5bf0e3f63739","IkpEBPxBOLZS47tHjswLbHRCnX62","","","","","","","","","","","","","","","","","","","1892","",""
"html-keyboard-response","39","78386","0.0-17.0-0.0","","1542.6999998092651","<div style=""display: flex; flex-direction: column; align-items: center; margin-top: -40px;""><img src=""images/demo_images/pattern_1.png"" style=""width: 234px; height: 230px; margin-top: -50px;""><div style=""display: flex; justify-content: space-between; margin-top: 33px;""><img src=""images/demo_images/choice_trial_1.png"" style=""width: 408px; height: 417px; margin-right: 200px;""><img src=""images/demo_images/choice_trial_2.png"" style=""width: 408px; height: 417px;""></div></div>","f","delaylearn","learning","trial","63ea445c759d5bf0e3f63739","IkpEBPxBOLZS47tHjswLbHRCnX62","3","images/demo_images/choice_trial_1.png","images/demo_images/choice_trial_2.png","images/demo_images/pattern_1.png","f","f","3000","1","2","20","0","8","1","1","1","60","","","","",""
"html-keyboard-response","40","79398","0.0-17.0-1.0","","null","<div style=""display: flex; flex-direction: column; align-items: center; margin-top: -40px;""><img src=""images/demo_images/pattern_1.png"" style=""width: 234px; height: 230px; margin-top: -50px;""><div style=""display: flex; justify-content: space-between; margin-top: 33px;""><img src=""images/demo_images/choice_trial_1.png"" style=""width: 408px; height: 417px; margin-right: 608px;""></div></div>","null","delaylearn","learning","display_response","63ea445c759d5bf0e3f63739","IkpEBPxBOLZS47tHjswLbHRCnX62","","","","","","","","","","","","","","","","","chosen stimuli: images/demo_images/choice_trial_1.png","","","",""
"html-keyboard-response","41","82419","0.0-17.0-2.0","","null","","null","delaylearn","learning","feedback_duration_window","63ea445c759d5bf0e3f63739","IkpEBPxBOLZS47tHjswLbHRCnX62","","","","","","","","","","","","","","","","","","3000","","",""
"html-keyboard-response","42","83941","0.0-17.0-3.0","","null","<div style='margin:auto;width: auto; font-size: 150%'><span style='font-weight: bold; font-size: 100px; color: green;'>+10 points!</span><br><br></div>","null","delaylearn","learning","feedback_image_window","63ea445c759d5bf0e3f63739","IkpEBPxBOLZS47tHjswLbHRCnX62","","","","","","","","","","","","","","","","","","","","",""
"html-button-response","43","88584","0.0-18.0","","4630.5","
  <div style=""display: flex; align-items: center; justify-content: center; height: 80vh;"">
  <div>
          <img src=""images/inst_demo_finish.png"" style=""width: 80vw; height:auto;"">
          <br><br>
      </div>
      <br><br>
  </div>","0","","","","","","","","","","","","","","","","","","","","","","","","","",""
"html-keyboard-response","44","91455","0.0-19.0","","2865.8999996185303","
  <div style=""display: flex; align-items: center; justify-content: center; height: 80vh;"">
  <div>
          <img src=""images/inst_6.png"" style=""width: 80vw; height:auto;"">
          <br><br>
      </div>
      <br><br>
  </div>","f","","","","","","","","","","","","","","","","","","","","","","","","","",""
"html-keyboard-response","45","94477","0.0-20.0","","null","<div style=""font-size:100px;"">+</div>","null","delaylearn","learning","pre_fixation","63ea445c759d5bf0e3f63739","","","","","","","","","","","","","","","","","","","","","",""
"html-keyboard-response","46","96686","0.0-21.0","","null","<div style=""font-size:100px;"">+</div>","null","delaylearn","learning","ITI","63ea445c759d5bf0e3f63739","IkpEBPxBOLZS47tHjswLbHRCnX62","","","","","","","","","","","","","","","","","","","2182","",""
"html-keyboard-response","47","99160","0.0-22.0-0.0","","2463.800000190735","<div style=""display: flex; flex-direction: column; align-items: center; margin-top: -40px;""><img src=""images/pattern_3.png"" style=""width: 234px; height: 230px; margin-top: -50px;""><div style=""display: flex; justify-content: space-between; margin-top: 33px;""><img src=""images/choice_trial_13.png"" style=""width: 408px; height: 417px; margin-right: 200px;""><img src=""images/choice_trial_10.png"" style=""width: 408px; height: 417px;""></div></div>","f","delaylearn","learning","trial","63ea445c759d5bf0e3f63739","IkpEBPxBOLZS47tHjswLbHRCnX62","3","images/choice_trial_13.png","images/choice_trial_10.png","images/pattern_3.png","f","f","7000","13","10","2","0","9","1","1","13","70","","","","",""
"html-keyboard-response","48","100171","0.0-22.0-1.0","","null","<div style=""display: flex; flex-direction: column; align-items: center; margin-top: -40px;""><img src=""images/pattern_3.png"" style=""width: 234px; height: 230px; margin-top: -50px;""><div style=""display: flex; justify-content: space-between; margin-top: 33px;""><img src=""images/choice_trial_13.png"" style=""width: 408px; height: 417px; margin-right: 608px;""></div></div>","null","delaylearn","learning","display_response","63ea445c759d5bf0e3f63739","IkpEBPxBOLZS47tHjswLbHRCnX62","","","","","","","","","","","","","","","","","chosen stimuli: images/choice_trial_13.png","","","",""
"html-keyboard-response","49","107180","0.0-22.0-2.0","","null","","null","delaylearn","learning","feedback_duration_window","63ea445c759d5bf0e3f63739","IkpEBPxBOLZS47tHjswLbHRCnX62","","","","","","","","","","","","","","","","","","7000","","",""
"html-keyboard-response","50","108691","0.0-22.0-3.0","","null","<div style='margin:auto;width: auto; font-size: 150%'><span style='font-weight: bold; font-size: 100px; color: green;'>+10 points!</span><br><br></div>","null","delaylearn","learning","feedback_image_window","63ea445c759d5bf0e3f63739","IkpEBPxBOLZS47tHjswLbHRCnX62","","","","","","","","","","","","","","","","","","","","",""
"html-keyboard-response","51","110432","0.0-23.0","","null","<div style=""font-size:100px;"">+</div>","null","delaylearn","learning","ITI","63ea445c759d5bf0e3f63739","IkpEBPxBOLZS47tHjswLbHRCnX62","","","","","","","","","","","","","","","","","","","1718","",""
"html-keyboard-response","52","113463","0.0-24.0-0.0","","null","<div style=""display: flex; flex-direction: column; align-items: center; margin-top: -40px;""><img src=""images/pattern_7.png"" style=""width: 234px; height: 230px; margin-top: -50px;""><div style=""display: flex; justify-content: space-between; margin-top: 33px;""><img src=""images/choice_trial_12.png"" style=""width: 408px; height: 417px; margin-right: 200px;""><img src=""images/choice_trial_6.png"" style=""width: 408px; height: 417px;""></div></div>","null","delaylearn","learning","trial","63ea445c759d5bf0e3f63739","IkpEBPxBOLZS47tHjswLbHRCnX62","3","images/choice_trial_12.png","images/choice_trial_6.png","images/pattern_7.png","j","j","750","12","6","6","1","10","0","0","0","70","","","","",""
"html-keyboard-response","53","114478","0.0-24.0-1.0","","null","<div style='font-weight: bold; font-size: 75px; color: red;'>Missed Trial <br><br><br><br> Please respond faster</div>","null","delaylearn","learning","display_response","63ea445c759d5bf0e3f63739","IkpEBPxBOLZS47tHjswLbHRCnX62","","","","","","","","","","","","","","","","","Missed trial","","","",""
"html-keyboard-response","54","114490","0.0-24.0-2.0","","null","","null","delaylearn","learning","feedback_duration_window","63ea445c759d5bf0e3f63739","IkpEBPxBOLZS47tHjswLbHRCnX62","","","","","","","","","","","","","","","","","","0","","",""
"html-keyboard-response","55","114497","0.0-24.0-3.0","","null","","null","delaylearn","learning","feedback_image_window","63ea445c759d5bf0e3f63739","IkpEBPxBOLZS47tHjswLbHRCnX62","","","","","","","","","","","","","","","","","","","","",""
"html-keyboard-response","56","116792","0.0-25.0","","null","<div style=""font-size:100px;"">+</div>","null","delaylearn","learning","ITI","63ea445c759d5bf0e3f63739","IkpEBPxBOLZS47tHjswLbHRCnX62","","","","","","","","","","","","","","","","","","","2274","",""
"html-keyboard-response","57","117806","0.0-26.0-0.0","","1002","<div style=""display: flex; flex-direction: column; align-items: center; margin-top: -40px;""><img src=""images/pattern_4.png"" style=""width: 234px; height: 230px; margin-top: -50px;""><div style=""display: flex; justify-content: space-between; margin-top: 33px;""><img src=""images/choice_trial_15.png"" style=""width: 408px; height: 417px; margin-right: 200px;""><img src=""images/choice_trial_9.png"" style=""width: 408px; height: 417px;""></div></div>","f","delaylearn","learning","trial","63ea445c759d5bf0e3f63739","IkpEBPxBOLZS47tHjswLbHRCnX62","3","images/choice_trial_15.png","images/choice_trial_9.png","images/pattern_4.png","f","f","7000","15","9","3","0","11","1","1","15","80","","","","",""
"html-keyboard-response","58","118818","0.0-26.0-1.0","","null","<div style=""display: flex; flex-direction: column; align-items: center; margin-top: -40px;""><img src=""images/pattern_4.png"" style=""width: 234px; height: 230px; margin-top: -50px;""><div style=""display: flex; justify-content: space-between; margin-top: 33px;""><img src=""images/choice_trial_15.png"" style=""width: 408px; height: 417px; margin-right: 608px;""></div></div>","null","delaylearn","learning","display_response","63ea445c759d5bf0e3f63739","IkpEBPxBOLZS47tHjswLbHRCnX62","","","","","","","","","","","","","","","","","chosen stimuli: images/choice_trial_15.png","","","",""
"html-keyboard-response","59","125830","0.0-26.0-2.0","","null","","null","delaylearn","learning","feedback_duration_window","63ea445c759d5bf0e3f63739","IkpEBPxBOLZS47tHjswLbHRCnX62","","","","","","","","","","","","","","","","","","7000","","",""
"html-keyboard-response","60","127342","0.0-26.0-3.0","","null","<div style='margin:auto;width: auto; font-size: 150%'><span style='font-weight: bold; font-size: 100px; color: green;'>+10 points!</span><br><br></div>","null","delaylearn","learning","feedback_image_window","63ea445c759d5bf0e3f63739","IkpEBPxBOLZS47tHjswLbHRCnX62","","","","","","","","","","","","","","","","","","","","",""
"html-keyboard-response","61","129739","0.0-27.0","","null","<div style=""font-size:100px;"">+</div>","null","delaylearn","learning","ITI","63ea445c759d5bf0e3f63739","IkpEBPxBOLZS47tHjswLbHRCnX62","","","","","","","","","","","","","","","","","","","2381","",""
"html-keyboard-response","62","131016","0.0-28.0-0.0","","1264.6000003814697","<div style=""display: flex; flex-direction: column; align-items: center; margin-top: -40px;""><img src=""images/pattern_5.png"" style=""width: 234px; height: 230px; margin-top: -50px;""><div style=""display: flex; justify-content: space-between; margin-top: 33px;""><img src=""images/choice_trial_2.png"" style=""width: 408px; height: 417px; margin-right: 200px;""><img src=""images/choice_trial_11.png"" style=""width: 408px; height: 417px;""></div></div>","f","delaylearn","learning","trial","63ea445c759d5bf0e3f63739","IkpEBPxBOLZS47tHjswLbHRCnX62","3","images/choice_trial_2.png","images/choice_trial_11.png","images/pattern_5.png","j","j","750","2","11","4","1","12","0","0","2","80","","","","",""
"html-keyboard-response","63","132024","0.0-28.0-1.0","","null","<div style=""display: flex; flex-direction: column; align-items: center; margin-top: -40px;""><img src=""images/pattern_5.png"" style=""width: 234px; height: 230px; margin-top: -50px;""><div style=""display: flex; justify-content: space-between; margin-top: 33px;""><img src=""images/choice_trial_2.png"" style=""width: 408px; height: 417px; margin-right: 608px;""></div></div>","null","delaylearn","learning","display_response","63ea445c759d5bf0e3f63739","IkpEBPxBOLZS47tHjswLbHRCnX62","","","","","","","","","","","","","","","","","chosen stimuli: images/choice_trial_2.png","","","",""
"html-keyboard-response","64","132790","0.0-28.0-2.0","","null","","null","delaylearn","learning","feedback_duration_window","63ea445c759d5bf0e3f63739","IkpEBPxBOLZS47tHjswLbHRCnX62","","","","","","","","","","","","","","","","","","750","","",""
"html-keyboard-response","65","134306","0.0-28.0-3.0","","null","<div style='margin:auto;width: auto; font-size: 150%'><span style='font-weight: bold; font-size: 100px; color: red;'>0 points!</span><br><br></div>","null","delaylearn","learning","feedback_image_window","63ea445c759d5bf0e3f63739","IkpEBPxBOLZS47tHjswLbHRCnX62","","","","","","","","","","","","","","","","","","","","",""
"html-keyboard-response","66","136494","0.0-29.0","","null","<div style=""font-size:100px;"">+</div>","null","delaylearn","learning","ITI","63ea445c759d5bf0e3f63739","IkpEBPxBOLZS47tHjswLbHRCnX62","","","","","","","","","","","","","","","","","","","2168","",""
"html-keyboard-response","67","137647","0.0-30.0-0.0","","1144.2000007629395","<div style=""display: flex; flex-direction: column; align-items: center; margin-top: -40px;""><img src=""images/pattern_6.png"" style=""width: 234px; height: 230px; margin-top: -50px;""><div style=""display: flex; justify-content: space-between; margin-top: 33px;""><img src=""images/choice_trial_16.png"" style=""width: 408px; height: 417px; margin-right: 200px;""><img src=""images/choice_trial_3.png"" style=""width: 408px; height: 417px;""></div></div>","j","delaylearn","learning","trial","63ea445c759d5bf0e3f63739","IkpEBPxBOLZS47tHjswLbHRCnX62","3","images/choice_trial_16.png","images/choice_trial_3.png","images/pattern_6.png","j","f","750","16","3","5","0","13","0","1","3","90","","","","",""
"html-keyboard-response","68","138667","0.0-30.0-1.0","","null","<div style=""display: flex; flex-direction: column; align-items: center; margin-top: -40px;""><img src=""images/pattern_6.png"" style=""width: 234px; height: 230px; margin-top: -50px;""><div style=""display: flex; justify-content: space-between; margin-top: 33px;""><img src=""images/choice_trial_3.png"" style=""width: 408px; height: 417px; margin-left:608px;""></div></div>","null","delaylearn","learning","display_response","63ea445c759d5bf0e3f63739","IkpEBPxBOLZS47tHjswLbHRCnX62","","","","","","","","","","","","","","","","","chosen stimuli: images/choice_trial_3.png","","","",""
"html-keyboard-response","69","139434","0.0-30.0-2.0","","null","","null","delaylearn","learning","feedback_duration_window","63ea445c759d5bf0e3f63739","IkpEBPxBOLZS47tHjswLbHRCnX62","","","","","","","","","","","","","","","","","","750","","",""
"html-keyboard-response","70","140951","0.0-30.0-3.0","","null","<div style='margin:auto;width: auto; font-size: 150%'><span style='font-weight: bold; font-size: 100px; color: green;'>+10 points!</span><br><br></div>","null","delaylearn","learning","feedback_image_window","63ea445c759d5bf0e3f63739","IkpEBPxBOLZS47tHjswLbHRCnX62","","","","","","","","","","","","","","","","","","","","",""
"html-keyboard-response","71","141471","0.0-31.0-0.0","","null","","null","","","mood_trial_fixation","","","","","","","","","","","","","","","","","","","","","","",""
"lmdlab-html-vas-response","72","145781","0.0-31.0-1.0","","3275","How happy are you right now?","0.6454172459394392","delaylearn","learning","mood_trial","63ea445c759d5bf0e3f63739","IkpEBPxBOLZS47tHjswLbHRCnX62","","","","","","","","","","","","","","","","","","","","[""Very unhappy"",""Very happy""]",""
"html-keyboard-response","73","147494","0.0-32.0","","null","<div style=""font-size:100px;"">+</div>","null","delaylearn","learning","ITI","63ea445c759d5bf0e3f63739","IkpEBPxBOLZS47tHjswLbHRCnX62","","","","","","","","","","","","","","","","","","","1691","",""
"html-keyboard-response","74","149322","0.0-33.0-0.0","","1819.1000003814697","<div style=""display: flex; flex-direction: column; align-items: center; margin-top: -40px;""><img src=""images/pattern_1.png"" style=""width: 234px; height: 230px; margin-top: -50px;""><div style=""display: flex; justify-content: space-between; margin-top: 33px;""><img src=""images/choice_trial_8.png"" style=""width: 408px; height: 417px; margin-right: 200px;""><img src=""images/choice_trial_14.png"" style=""width: 408px; height: 417px;""></div></div>","j","delaylearn","learning","trial","63ea445c759d5bf0e3f63739","IkpEBPxBOLZS47tHjswLbHRCnX62","3","images/choice_trial_8.png","images/choice_trial_14.png","images/pattern_1.png","j","j","7000","8","14","1","1","14","1","1","14","100","","","","",""
"html-keyboard-response","75","150348","0.0-33.0-1.0","","null","<div style=""display: flex; flex-direction: column; align-items: center; margin-top: -40px;""><img src=""images/pattern_1.png"" style=""width: 234px; height: 230px; margin-top: -50px;""><div style=""display: flex; justify-content: space-between; margin-top: 33px;""><img src=""images/choice_trial_14.png"" style=""width: 408px; height: 417px; margin-left:608px;""></div></div>","null","delaylearn","learning","display_response","63ea445c759d5bf0e3f63739","IkpEBPxBOLZS47tHjswLbHRCnX62","","","","","","","","","","","","","","","","","chosen stimuli: images/choice_trial_14.png","","","",""
"html-keyboard-response","76","157360","0.0-33.0-2.0","","null","","null","delaylearn","learning","feedback_duration_window","63ea445c759d5bf0e3f63739","IkpEBPxBOLZS47tHjswLbHRCnX62","","","","","","","","","","","","","","","","","","7000","","",""
"html-keyboard-response","77","158880","0.0-33.0-3.0","","null","<div style='margin:auto;width: auto; font-size: 150%'><span style='font-weight: bold; font-size: 100px; color: green;'>+10 points!</span><br><br></div>","null","delaylearn","learning","feedback_image_window","63ea445c759d5bf0e3f63739","IkpEBPxBOLZS47tHjswLbHRCnX62","","","","","","","","","","","","","","","","","","","","",""
"html-keyboard-response","78","161298","0.0-34.0","","null","<div style=""font-size:100px;"">+</div>","null","delaylearn","learning","ITI","63ea445c759d5bf0e3f63739","IkpEBPxBOLZS47tHjswLbHRCnX62","","","","","","","","","","","","","","","","","","","2403","",""
"html-keyboard-response","79","162766","0.0-35.0-0.0","","1459","<div style=""display: flex; flex-direction: column; align-items: center; margin-top: -40px;""><img src=""images/pattern_3.png"" style=""width: 234px; height: 230px; margin-top: -50px;""><div style=""display: flex; justify-content: space-between; margin-top: 33px;""><img src=""images/choice_trial_10.png"" style=""width: 408px; height: 417px; margin-right: 200px;""><img src=""images/choice_trial_13.png"" style=""width: 408px; height: 417px;""></div></div>","f","delaylearn","learning","trial","63ea445c759d5bf0e3f63739","IkpEBPxBOLZS47tHjswLbHRCnX62","3","images/choice_trial_10.png","images/choice_trial_13.png","images/pattern_3.png","f","j","7000","10","13","2","1","15","0","1","10","110","","","","",""
"html-keyboard-response","80","163780","0.0-35.0-1.0","","null","<div style=""display: flex; flex-direction: column; align-items: center; margin-top: -40px;""><img src=""images/pattern_3.png"" style=""width: 234px; height: 230px; margin-top: -50px;""><div style=""display: flex; justify-content: space-between; margin-top: 33px;""><img src=""images/choice_trial_10.png"" style=""width: 408px; height: 417px; margin-right: 608px;""></div></div>","null","delaylearn","learning","display_response","63ea445c759d5bf0e3f63739","IkpEBPxBOLZS47tHjswLbHRCnX62","","","","","","","","","","","","","","","","","chosen stimuli: images/choice_trial_10.png","","","",""
"html-keyboard-response","81","170796","0.0-35.0-2.0","","null","","null","delaylearn","learning","feedback_duration_window","63ea445c759d5bf0e3f63739","IkpEBPxBOLZS47tHjswLbHRCnX62","","","","","","","","","","","","","","","","","","7000","","",""
"html-keyboard-response","82","172315","0.0-35.0-3.0","","null","<div style='margin:auto;width: auto; font-size: 150%'><span style='font-weight: bold; font-size: 100px; color: green;'>+10 points!</span><br><br></div>","null","delaylearn","learning","feedback_image_window","63ea445c759d5bf0e3f63739","IkpEBPxBOLZS47tHjswLbHRCnX62","","","","","","","","","","","","","","","","","","","","",""
"html-keyboard-response","83","173870","0.0-36.0","","null","<div style=""font-size:100px;"">+</div>","null","delaylearn","learning","ITI","63ea445c759d5bf0e3f63739","IkpEBPxBOLZS47tHjswLbHRCnX62","","","","","","","","","","","","","","","","","","","1543","",""
"html-keyboard-response","84","175429","0.0-37.0-0.0","","1550.9000005722046","<div style=""display: flex; flex-direction: column; align-items: center; margin-top: -40px;""><img src=""images/pattern_5.png"" style=""width: 234px; height: 230px; margin-top: -50px;""><div style=""display: flex; justify-content: space-between; margin-top: 33px;""><img src=""images/choice_trial_11.png"" style=""width: 408px; height: 417px; margin-right: 200px;""><img src=""images/choice_trial_2.png"" style=""width: 408px; height: 417px;""></div></div>","f","delaylearn","learning","trial","63ea445c759d5bf0e3f63739","IkpEBPxBOLZS47tHjswLbHRCnX62","3","images/choice_trial_11.png","images/choice_trial_2.png","images/pattern_5.png","f","f","750","11","2","4","0","16","1","1","11","120","","","","",""
"html-keyboard-response","85","176454","0.0-37.0-1.0","","null","<div style=""display: flex; flex-direction: column; align-items: center; margin-top: -40px;""><img src=""images/pattern_5.png"" style=""width: 234px; height: 230px; margin-top: -50px;""><div style=""display: flex; justify-content: space-between; margin-top: 33px;""><img src=""images/choice_trial_11.png"" style=""width: 408px; height: 417px; margin-right: 608px;""></div></div>","null","delaylearn","learning","display_response","63ea445c759d5bf0e3f63739","IkpEBPxBOLZS47tHjswLbHRCnX62","","","","","","","","","","","","","","","","","chosen stimuli: images/choice_trial_11.png","","","",""
"html-keyboard-response","86","177233","0.0-37.0-2.0","","null","","null","delaylearn","learning","feedback_duration_window","63ea445c759d5bf0e3f63739","IkpEBPxBOLZS47tHjswLbHRCnX62","","","","","","","","","","","","","","","","","","750","","",""
"html-keyboard-response","87","178751","0.0-37.0-3.0","","null","<div style='margin:auto;width: auto; font-size: 150%'><span style='font-weight: bold; font-size: 100px; color: green;'>+10 points!</span><br><br></div>","null","delaylearn","learning","feedback_image_window","63ea445c759d5bf0e3f63739","IkpEBPxBOLZS47tHjswLbHRCnX62","","","","","","","","","","","","","","","","","","","","",""
"html-keyboard-response","88","179265","0.0-38.0-0.0","","null","","null","","","mood_trial_fixation","","","","","","","","","","","","","","","","","","","","","","",""
"lmdlab-html-vas-response","89","185455","0.0-38.0-1.0","","5163","How happy are you right now?","0.6714590892136584","delaylearn","learning","mood_trial","63ea445c759d5bf0e3f63739","IkpEBPxBOLZS47tHjswLbHRCnX62","","","","","","","","","","","","","","","","","","","","[""Very unhappy"",""Very happy""]",""
"html-keyboard-response","90","187263","0.0-39.0","","null","<div style=""font-size:100px;"">+</div>","null","delaylearn","learning","ITI","63ea445c759d5bf0e3f63739","IkpEBPxBOLZS47tHjswLbHRCnX62","","","","","","","","","","","","","","","","","","","1803","",""
"html-keyboard-response","91","189003","0.0-40.0-0.0","","1733.9000005722046","<div style=""display: flex; flex-direction: column; align-items: center; margin-top: -40px;""><img src=""images/pattern_6.png"" style=""width: 234px; height: 230px; margin-top: -50px;""><div style=""display: flex; justify-content: space-between; margin-top: 33px;""><img src=""images/choice_trial_16.png"" style=""width: 408px; height: 417px; margin-right: 200px;""><img src=""images/choice_trial_3.png"" style=""width: 408px; height: 417px;""></div></div>","j","delaylearn","learning","trial","63ea445c759d5bf0e3f63739","IkpEBPxBOLZS47tHjswLbHRCnX62","3","images/choice_trial_16.png","images/choice_trial_3.png","images/pattern_6.png","f","f","750","16","3","5","0","17","0","0","3","120","","","","",""
"html-keyboard-response","92","190031","0.0-40.0-1.0","","null","<div style=""display: flex; flex-direction: column; align-items: center; margin-top: -40px;""><img src=""images/pattern_6.png"" style=""width: 234px; height: 230px; margin-top: -50px;""><div style=""display: flex; justify-content: space-between; margin-top: 33px;""><img src=""images/choice_trial_3.png"" style=""width: 408px; height: 417px; margin-left:608px;""></div></div>","null","delaylearn","learning","display_response","63ea445c759d5bf0e3f63739","IkpEBPxBOLZS47tHjswLbHRCnX62","","","","","","","","","","","","","","","","","chosen stimuli: images/choice_trial_3.png","","","",""
"html-keyboard-response","93","190799","0.0-40.0-2.0","","null","","null","delaylearn","learning","feedback_duration_window","63ea445c759d5bf0e3f63739","IkpEBPxBOLZS47tHjswLbHRCnX62","","","","","","","","","","","","","","","","","","750","","",""
"html-keyboard-response","94","192309","0.0-40.0-3.0","","null","<div style='margin:auto;width: auto; font-size: 150%'><span style='font-weight: bold; font-size: 100px; color: red;'>0 points!</span><br><br></div>","null","delaylearn","learning","feedback_image_window","63ea445c759d5bf0e3f63739","IkpEBPxBOLZS47tHjswLbHRCnX62","","","","","","","","","","","","","","","","","","","","",""
"html-keyboard-response","95","194750","0.0-41.0","","null","<div style=""font-size:100px;"">+</div>","null","delaylearn","learning","ITI","63ea445c759d5bf0e3f63739","IkpEBPxBOLZS47tHjswLbHRCnX62","","","","","","","","","","","","","","","","","","","2430","",""
"html-keyboard-response","96","196013","0.0-42.0-0.0","","1254.5","<div style=""display: flex; flex-direction: column; align-items: center; margin-top: -40px;""><img src=""images/pattern_4.png"" style=""width: 234px; height: 230px; margin-top: -50px;""><div style=""display: flex; justify-content: space-between; margin-top: 33px;""><img src=""images/choice_trial_9.png"" style=""width: 408px; height: 417px; margin-right: 200px;""><img src=""images/choice_trial_15.png"" style=""width: 408px; height: 417px;""></div></div>","f","delaylearn","learning","trial","63ea445c759d5bf0e3f63739","IkpEBPxBOLZS47tHjswLbHRCnX62","3","images/choice_trial_9.png","images/choice_trial_15.png","images/pattern_4.png","j","j","7000","9","15","3","1","18","0","0","9","120","","","","",""
"html-keyboard-response","97","197032","0.0-42.0-1.0","","null","<div style=""display: flex; flex-direction: column; align-items: center; margin-top: -40px;""><img src=""images/pattern_4.png"" style=""width: 234px; height: 230px; margin-top: -50px;""><div style=""display: flex; justify-content: space-between; margin-top: 33px;""><img src=""images/choice_trial_9.png"" style=""width: 408px; height: 417px; margin-right: 608px;""></div></div>","null","delaylearn","learning","display_response","63ea445c759d5bf0e3f63739","IkpEBPxBOLZS47tHjswLbHRCnX62","","","","","","","","","","","","","","","","","chosen stimuli: images/choice_trial_9.png","","","",""
"html-keyboard-response","98","204045","0.0-42.0-2.0","","null","","null","delaylearn","learning","feedback_duration_window","63ea445c759d5bf0e3f63739","IkpEBPxBOLZS47tHjswLbHRCnX62","","","","","","","","","","","","","","","","","","7000","","",""
"html-keyboard-response","99","205559","0.0-42.0-3.0","","null","<div style='margin:auto;width: auto; font-size: 150%'><span style='font-weight: bold; font-size: 100px; color: red;'>0 points!</span><br><br></div>","null","delaylearn","learning","feedback_image_window","63ea445c759d5bf0e3f63739","IkpEBPxBOLZS47tHjswLbHRCnX62","","","","","","","","","","","","","","","","","","","","",""
"html-keyboard-response","100","207551","0.0-43.0","","null","<div style=""font-size:100px;"">+</div>","null","delaylearn","learning","ITI","63ea445c759d5bf0e3f63739","IkpEBPxBOLZS47tHjswLbHRCnX62","","","","","","","","","","","","","","","","","","","1979","",""
"html-keyboard-response","101","208723","0.0-44.0-0.0","","1160.1000003814697","<div style=""display: flex; flex-direction: column; align-items: center; margin-top: -40px;""><img src=""images/pattern_7.png"" style=""width: 234px; height: 230px; margin-top: -50px;""><div style=""display: flex; justify-content: space-between; margin-top: 33px;""><img src=""images/choice_trial_6.png"" style=""width: 408px; height: 417px; margin-right: 200px;""><img src=""images/choice_trial_12.png"" style=""width: 408px; height: 417px;""></div></div>","f","delaylearn","learning","trial","63ea445c759d5bf0e3f63739","IkpEBPxBOLZS47tHjswLbHRCnX62","3","images/choice_trial_6.png","images/choice_trial_12.png","images/pattern_7.png","j","f","750","6","12","6","0","19","1","0","6","120","","","","",""
"html-keyboard-response","102","209739","0.0-44.0-1.0","","null","<div style=""display: flex; flex-direction: column; align-items: center; margin-top: -40px;""><img src=""images/pattern_7.png"" style=""width: 234px; height: 230px; margin-top: -50px;""><div style=""display: flex; justify-content: space-between; margin-top: 33px;""><img src=""images/choice_trial_6.png"" style=""width: 408px; height: 417px; margin-right: 608px;""></div></div>","null","delaylearn","learning","display_response","63ea445c759d5bf0e3f63739","IkpEBPxBOLZS47tHjswLbHRCnX62","","","","","","","","","","","","","","","","","chosen stimuli: images/choice_trial_6.png","","","",""
"html-keyboard-response","103","210497","0.0-44.0-2.0","","null","","null","delaylearn","learning","feedback_duration_window","63ea445c759d5bf0e3f63739","IkpEBPxBOLZS47tHjswLbHRCnX62","","","","","","","","","","","","","","","","","","750","","",""
"html-keyboard-response","104","212022","0.0-44.0-3.0","","null","<div style='margin:auto;width: auto; font-size: 150%'><span style='font-weight: bold; font-size: 100px; color: red;'>0 points!</span><br><br></div>","null","delaylearn","learning","feedback_image_window","63ea445c759d5bf0e3f63739","IkpEBPxBOLZS47tHjswLbHRCnX62","","","","","","","","","","","","","","","","","","","","",""
"html-keyboard-response","105","213661","0.0-45.0","","null","<div style=""font-size:100px;"">+</div>","null","delaylearn","learning","ITI","63ea445c759d5bf0e3f63739","IkpEBPxBOLZS47tHjswLbHRCnX62","","","","","","","","","","","","","","","","","","","1614","",""
"html-keyboard-response","106","215917","0.0-46.0-0.0","","2244.5999994277954","<div style=""display: flex; flex-direction: column; align-items: center; margin-top: -40px;""><img src=""images/pattern_1.png"" style=""width: 234px; height: 230px; margin-top: -50px;""><div style=""display: flex; justify-content: space-between; margin-top: 33px;""><img src=""images/choice_trial_14.png"" style=""width: 408px; height: 417px; margin-right: 200px;""><img src=""images/choice_trial_8.png"" style=""width: 408px; height: 417px;""></div></div>","f","delaylearn","learning","trial","63ea445c759d5bf0e3f63739","IkpEBPxBOLZS47tHjswLbHRCnX62","3","images/choice_trial_14.png","images/choice_trial_8.png","images/pattern_1.png","f","f","7000","14","8","1","0","20","1","1","14","130","","","","",""
"html-keyboard-response","107","216937","0.0-46.0-1.0","","null","<div style=""display: flex; flex-direction: column; align-items: center; margin-top: -40px;""><img src=""images/pattern_1.png"" style=""width: 234px; height: 230px; margin-top: -50px;""><div style=""display: flex; justify-content: space-between; margin-top: 33px;""><img src=""images/choice_trial_14.png"" style=""width: 408px; height: 417px; margin-right: 608px;""></div></div>","null","delaylearn","learning","display_response","63ea445c759d5bf0e3f63739","IkpEBPxBOLZS47tHjswLbHRCnX62","","","","","","","","","","","","","","","","","chosen stimuli: images/choice_trial_14.png","","","",""
"html-keyboard-response","108","223948","0.0-46.0-2.0","","null","","null","delaylearn","learning","feedback_duration_window","63ea445c759d5bf0e3f63739","IkpEBPxBOLZS47tHjswLbHRCnX62","","","","","","","","","","","","","","","","","","7000","","",""
"html-keyboard-response","109","225461","0.0-46.0-3.0","","null","<div style='margin:auto;width: auto; font-size: 150%'><span style='font-weight: bold; font-size: 100px; color: green;'>+10 points!</span><br><br></div>","null","delaylearn","learning","feedback_image_window","63ea445c759d5bf0e3f63739","IkpEBPxBOLZS47tHjswLbHRCnX62","","","","","","","","","","","","","","","","","","","","",""
"html-keyboard-response","110","227007","0.0-47.0","","null","<div style=""font-size:100px;"">+</div>","null","delaylearn","learning","ITI","63ea445c759d5bf0e3f63739","IkpEBPxBOLZS47tHjswLbHRCnX62","","","","","","","","","","","","","","","","","","","1542","",""
"html-keyboard-response","111","228827","0.0-48.0-0.0","","1810.5","<div style=""display: flex; flex-direction: column; align-items: center; margin-top: -40px;""><img src=""images/pattern_6.png"" style=""width: 234px; height: 230px; margin-top: -50px;""><div style=""display: flex; justify-content: space-between; margin-top: 33px;""><img src=""images/choice_trial_3.png"" style=""width: 408px; height: 417px; margin-right: 200px;""><img src=""images/choice_trial_16.png"" style=""width: 408px; height: 417px;""></div></div>","j","delaylearn","learning","trial","63ea445c759d5bf0e3f63739","IkpEBPxBOLZS47tHjswLbHRCnX62","3","images/choice_trial_3.png","images/choice_trial_16.png","images/pattern_6.png","j","j","750","3","16","5","1","21","1","1","16","140","","","","",""
"html-keyboard-response","112","229849","0.0-48.0-1.0","","null","<div style=""display: flex; flex-direction: column; align-items: center; margin-top: -40px;""><img src=""images/pattern_6.png"" style=""width: 234px; height: 230px; margin-top: -50px;""><div style=""display: flex; justify-content: space-between; margin-top: 33px;""><img src=""images/choice_trial_16.png"" style=""width: 408px; height: 417px; margin-left:608px;""></div></div>","null","delaylearn","learning","display_response","63ea445c759d5bf0e3f63739","IkpEBPxBOLZS47tHjswLbHRCnX62","","","","","","","","","","","","","","","","","chosen stimuli: images/choice_trial_16.png","","","",""
"html-keyboard-response","113","230611","0.0-48.0-2.0","","null","","null","delaylearn","learning","feedback_duration_window","63ea445c759d5bf0e3f63739","IkpEBPxBOLZS47tHjswLbHRCnX62","","","","","","","","","","","","","","","","","","750","","",""
"html-keyboard-response","114","232131","0.0-48.0-3.0","","null","<div style='margin:auto;width: auto; font-size: 150%'><span style='font-weight: bold; font-size: 100px; color: green;'>+10 points!</span><br><br></div>","null","delaylearn","learning","feedback_image_window","63ea445c759d5bf0e3f63739","IkpEBPxBOLZS47tHjswLbHRCnX62","","","","","","","","","","","","","","","","","","","","",""
"html-keyboard-response","115","234243","0.0-49.0","","null","<div style=""font-size:100px;"">+</div>","null","delaylearn","learning","ITI","63ea445c759d5bf0e3f63739","IkpEBPxBOLZS47tHjswLbHRCnX62","","","","","","","","","","","","","","","","","","","2089","",""
"html-keyboard-response","116","236277","0.0-50.0-0.0","","2018.3999996185303","<div style=""display: flex; flex-direction: column; align-items: center; margin-top: -40px;""><img src=""images/pattern_4.png"" style=""width: 234px; height: 230px; margin-top: -50px;""><div style=""display: flex; justify-content: space-between; margin-top: 33px;""><img src=""images/choice_trial_15.png"" style=""width: 408px; height: 417px; margin-right: 200px;""><img src=""images/choice_trial_9.png"" style=""width: 408px; height: 417px;""></div></div>","j","delaylearn","learning","trial","63ea445c759d5bf0e3f63739","IkpEBPxBOLZS47tHjswLbHRCnX62","3","images/choice_trial_15.png","images/choice_trial_9.png","images/pattern_4.png","f","f","7000","15","9","3","0","22","0","0","9","140","","","","",""
"html-keyboard-response","117","237292","0.0-50.0-1.0","","null","<div style=""display: flex; flex-direction: column; align-items: center; margin-top: -40px;""><img src=""images/pattern_4.png"" style=""width: 234px; height: 230px; margin-top: -50px;""><div style=""display: flex; justify-content: space-between; margin-top: 33px;""><img src=""images/choice_trial_9.png"" style=""width: 408px; height: 417px; margin-left:608px;""></div></div>","null","delaylearn","learning","display_response","63ea445c759d5bf0e3f63739","IkpEBPxBOLZS47tHjswLbHRCnX62","","","","","","","","","","","","","","","","","chosen stimuli: images/choice_trial_9.png","","","",""
"html-keyboard-response","118","244314","0.0-50.0-2.0","","null","","null","delaylearn","learning","feedback_duration_window","63ea445c759d5bf0e3f63739","IkpEBPxBOLZS47tHjswLbHRCnX62","","","","","","","","","","","","","","","","","","7000","","",""
"html-keyboard-response","119","245836","0.0-50.0-3.0","","null","<div style='margin:auto;width: auto; font-size: 150%'><span style='font-weight: bold; font-size: 100px; color: red;'>0 points!</span><br><br></div>","null","delaylearn","learning","feedback_image_window","63ea445c759d5bf0e3f63739","IkpEBPxBOLZS47tHjswLbHRCnX62","","","","","","","","","","","","","","","","","","","","",""
"html-keyboard-response","120","246357","0.0-51.0-0.0","","null","","null","","","mood_trial_fixation","","","","","","","","","","","","","","","","","","","","","","",""
"lmdlab-html-vas-response","121","250760","0.0-51.0-1.0","","3372","How happy are you right now?","0.6584381675765488","delaylearn","learning","mood_trial","63ea445c759d5bf0e3f63739","IkpEBPxBOLZS47tHjswLbHRCnX62","","","","","","","","","","","","","","","","","","","","[""Very unhappy"",""Very happy""]",""
"html-keyboard-response","122","252668","0.0-52.0","","null","<div style=""font-size:100px;"">+</div>","null","delaylearn","learning","ITI","63ea445c759d5bf0e3f63739","IkpEBPxBOLZS47tHjswLbHRCnX62","","","","","","","","","","","","","","","","","","","1896","",""
"html-keyboard-response","123","254499","0.0-53.0-0.0","","1819.6000003814697","<div style=""display: flex; flex-direction: column; align-items: center; margin-top: -40px;""><img src=""images/pattern_7.png"" style=""width: 234px; height: 230px; margin-top: -50px;""><div style=""display: flex; justify-content: space-between; margin-top: 33px;""><img src=""images/choice_trial_12.png"" style=""width: 408px; height: 417px; margin-right: 200px;""><img src=""images/choice_trial_6.png"" style=""width: 408px; height: 417px;""></div></div>","f","delaylearn","learning","trial","63ea445c759d5bf0e3f63739","IkpEBPxBOLZS47tHjswLbHRCnX62","3","images/choice_trial_12.png","images/choice_trial_6.png","images/pattern_7.png","j","j","750","12","6","6","1","23","0","0","12","140","","","","",""
"html-keyboard-response","124","255525","0.0-53.0-1.0","","null","<div style=""display: flex; flex-direction: column; align-items: center; margin-top: -40px;""><img src=""images/pattern_7.png"" style=""width: 234px; height: 230px; margin-top: -50px;""><div style=""display: flex; justify-content: space-between; margin-top: 33px;""><img src=""images/choice_trial_12.png"" style=""width: 408px; height: 417px; margin-right: 608px;""></div></div>","null","delaylearn","learning","display_response","63ea445c759d5bf0e3f63739","IkpEBPxBOLZS47tHjswLbHRCnX62","","","","","","","","","","","","","","","","","chosen stimuli: images/choice_trial_12.png","","","",""
"html-keyboard-response","125","256295","0.0-53.0-2.0","","null","","null","delaylearn","learning","feedback_duration_window","63ea445c759d5bf0e3f63739","IkpEBPxBOLZS47tHjswLbHRCnX62","","","","","","","","","","","","","","","","","","750","","",""
"html-keyboard-response","126","257809","0.0-53.0-3.0","","null","<div style='margin:auto;width: auto; font-size: 150%'><span style='font-weight: bold; font-size: 100px; color: red;'>0 points!</span><br><br></div>","null","delaylearn","learning","feedback_image_window","63ea445c759d5bf0e3f63739","IkpEBPxBOLZS47tHjswLbHRCnX62","","","","","","","","","","","","","","","","","","","","",""
"html-keyboard-response","127","259448","0.0-54.0","","null","<div style=""font-size:100px;"">+</div>","null","delaylearn","learning","ITI","63ea445c759d5bf0e3f63739","IkpEBPxBOLZS47tHjswLbHRCnX62","","","","","","","","","","","","","","","","","","","1628","",""
"html-keyboard-response","128","262476","0.0-55.0-0.0","","null","<div style=""display: flex; flex-direction: column; align-items: center; margin-top: -40px;""><img src=""images/pattern_1.png"" style=""width: 234px; height: 230px; margin-top: -50px;""><div style=""display: flex; justify-content: space-between; margin-top: 33px;""><img src=""images/choice_trial_8.png"" style=""width: 408px; height: 417px; margin-right: 200px;""><img src=""images/choice_trial_14.png"" style=""width: 408px; height: 417px;""></div></div>","null","delaylearn","learning","trial","63ea445c759d5bf0e3f63739","IkpEBPxBOLZS47tHjswLbHRCnX62","3","images/choice_trial_8.png","images/choice_trial_14.png","images/pattern_1.png","f","j","7000","8","14","1","1","24","0","0","0","140","","","","",""
"html-keyboard-response","129","263492","0.0-55.0-1.0","","null","<div style='font-weight: bold; font-size: 75px; color: red;'>Missed Trial <br><br><br><br> Please respond faster</div>","null","delaylearn","learning","display_response","63ea445c759d5bf0e3f63739","IkpEBPxBOLZS47tHjswLbHRCnX62","","","","","","","","","","","","","","","","","Missed trial","","","",""
"html-keyboard-response","130","263500","0.0-55.0-2.0","","null","","null","delaylearn","learning","feedback_duration_window","63ea445c759d5bf0e3f63739","IkpEBPxBOLZS47tHjswLbHRCnX62","","","","","","","","","","","","","","","","","","0","","",""
"html-keyboard-response","131","263508","0.0-55.0-3.0","","null","","null","delaylearn","learning","feedback_image_window","63ea445c759d5bf0e3f63739","IkpEBPxBOLZS47tHjswLbHRCnX62","","","","","","","","","","","","","","","","","","","","",""
"html-keyboard-response","132","265147","0.0-56.0","","null","<div style=""font-size:100px;"">+</div>","null","delaylearn","learning","ITI","63ea445c759d5bf0e3f63739","IkpEBPxBOLZS47tHjswLbHRCnX62","","","","","","","","","","","","","","","","","","","1628","",""
"html-keyboard-response","133","266664","0.0-57.0-0.0","","1507.6999998092651","<div style=""display: flex; flex-direction: column; align-items: center; margin-top: -40px;""><img src=""images/pattern_5.png"" style=""width: 234px; height: 230px; margin-top: -50px;""><div style=""display: flex; justify-content: space-between; margin-top: 33px;""><img src=""images/choice_trial_2.png"" style=""width: 408px; height: 417px; margin-right: 200px;""><img src=""images/choice_trial_11.png"" style=""width: 408px; height: 417px;""></div></div>","f","delaylearn","learning","trial","63ea445c759d5bf0e3f63739","IkpEBPxBOLZS47tHjswLbHRCnX62","3","images/choice_trial_2.png","images/choice_trial_11.png","images/pattern_5.png","j","j","750","2","11","4","1","25","0","0","2","140","","","","",""
"html-keyboard-response","134","267673","0.0-57.0-1.0","","null","<div style=""display: flex; flex-direction: column; align-items: center; margin-top: -40px;""><img src=""images/pattern_5.png"" style=""width: 234px; height: 230px; margin-top: -50px;""><div style=""display: flex; justify-content: space-between; margin-top: 33px;""><img src=""images/choice_trial_2.png"" style=""width: 408px; height: 417px; margin-right: 608px;""></div></div>","null","delaylearn","learning","display_response","63ea445c759d5bf0e3f63739","IkpEBPxBOLZS47tHjswLbHRCnX62","","","","","","","","","","","","","","","","","chosen stimuli: images/choice_trial_2.png","","","",""
"html-keyboard-response","135","268442","0.0-57.0-2.0","","null","","null","delaylearn","learning","feedback_duration_window","63ea445c759d5bf0e3f63739","IkpEBPxBOLZS47tHjswLbHRCnX62","","","","","","","","","","","","","","","","","","750","","",""
"html-keyboard-response","136","269962","0.0-57.0-3.0","","null","<div style='margin:auto;width: auto; font-size: 150%'><span style='font-weight: bold; font-size: 100px; color: red;'>0 points!</span><br><br></div>","null","delaylearn","learning","feedback_image_window","63ea445c759d5bf0e3f63739","IkpEBPxBOLZS47tHjswLbHRCnX62","","","","","","","","","","","","","","","","","","","","",""
"html-keyboard-response","137","272169","0.0-58.0","","null","<div style=""font-size:100px;"">+</div>","null","delaylearn","learning","ITI","63ea445c759d5bf0e3f63739","IkpEBPxBOLZS47tHjswLbHRCnX62","","","","","","","","","","","","","","","","","","","2186","",""
"html-keyboard-response","138","273711","0.0-59.0-0.0","","1530.5","<div style=""display: flex; flex-direction: column; align-items: center; margin-top: -40px;""><img src=""images/pattern_3.png"" style=""width: 234px; height: 230px; margin-top: -50px;""><div style=""display: flex; justify-content: space-between; margin-top: 33px;""><img src=""images/choice_trial_10.png"" style=""width: 408px; height: 417px; margin-right: 200px;""><img src=""images/choice_trial_13.png"" style=""width: 408px; height: 417px;""></div></div>","j","delaylearn","learning","trial","63ea445c759d5bf0e3f63739","IkpEBPxBOLZS47tHjswLbHRCnX62","3","images/choice_trial_10.png","images/choice_trial_13.png","images/pattern_3.png","j","j","7000","10","13","2","1","26","1","1","13","150","","","","",""
"html-keyboard-response","139","274731","0.0-59.0-1.0","","null","<div style=""display: flex; flex-direction: column; align-items: center; margin-top: -40px;""><img src=""images/pattern_3.png"" style=""width: 234px; height: 230px; margin-top: -50px;""><div style=""display: flex; justify-content: space-between; margin-top: 33px;""><img src=""images/choice_trial_13.png"" style=""width: 408px; height: 417px; margin-left:608px;""></div></div>","null","delaylearn","learning","display_response","63ea445c759d5bf0e3f63739","IkpEBPxBOLZS47tHjswLbHRCnX62","","","","","","","","","","","","","","","","","chosen stimuli: images/choice_trial_13.png","","","",""
"html-keyboard-response","140","281750","0.0-59.0-2.0","","null","","null","delaylearn","learning","feedback_duration_window","63ea445c759d5bf0e3f63739","IkpEBPxBOLZS47tHjswLbHRCnX62","","","","","","","","","","","","","","","","","","7000","","",""
"html-keyboard-response","141","283290","0.0-59.0-3.0","","null","<div style='margin:auto;width: auto; font-size: 150%'><span style='font-weight: bold; font-size: 100px; color: green;'>+10 points!</span><br><br></div>","null","delaylearn","learning","feedback_image_window","63ea445c759d5bf0e3f63739","IkpEBPxBOLZS47tHjswLbHRCnX62","","","","","","","","","","","","","","","","","","","","",""
"lmdlab-html-vas-response","142","289454","0.0-60.0-0.0","","4629","*How <b><u>confident</u></b> are you feeling about your answers at this moment?*","0.22440744633956122","rewlearn","rate_confidence","","63ea445c759d5bf0e3f63739","IkpEBPxBOLZS47tHjswLbHRCnX62","","","","","","","","","","","","","","","","","","","","[""No confidence"",""Complete confidence""]",""
"lmdlab-rest-trial-limit","143","510041","0.0-60.0-1.0","","219062.80000019073","<div style=""font-size:40px;""><b>Please take a break!</b><br><br><br><br><p>Great work: you earned 150 points.<br><br><br><p>You have completed part(s) 1 of 5.<br><br><br><br>When you are ready to continue<br><br><br>please click the button.</p><br><br>","0","delaylearn","learning","break","63ea445c759d5bf0e3f63739","IkpEBPxBOLZS47tHjswLbHRCnX62","","","","","","","","","","","","","","","","","","","","","0"
"html-keyboard-response","144","513060","0.0-60.0-2.0","","null","<div style=""font-size:100px;"">+</div>","null","delaylearn","learning","pre_fixation","63ea445c759d5bf0e3f63739","","","","","","","","","","","","","","","","","","","","","",""
"lmdlab-html-vas-response","145","516989","0.0-60.0-3.0-0.0","","2901","How happy are you right now?","0.6779695500322133","delaylearn","learning","mood_baseline","63ea445c759d5bf0e3f63739","IkpEBPxBOLZS47tHjswLbHRCnX62","","","","","","","","","","","","","","","","","","","","[""Very unhappy"",""Very happy""]",""
"html-keyboard-response","146","518507","0.0-60.0-3.0-1.0","","null","","null","","","mood_baseline_fixation","","","","","","","","","","","","","","","","","","","","","","",""
"html-keyboard-response","147","520324","0.0-61.0","","null","<div style=""font-size:100px;"">+</div>","null","delaylearn","learning","ITI","63ea445c759d5bf0e3f63739","IkpEBPxBOLZS47tHjswLbHRCnX62","","","","","","","","","","","","","","","","","","","1801","",""
"html-keyboard-response","148","521271","0.0-62.0-0.0","","929.5999994277954","<div style=""display: flex; flex-direction: column; align-items: center; margin-top: -40px;""><img src=""images/pattern_7.png"" style=""width: 234px; height: 230px; margin-top: -50px;""><div style=""display: flex; justify-content: space-between; margin-top: 33px;""><img src=""images/choice_trial_12.png"" style=""width: 408px; height: 417px; margin-right: 200px;""><img src=""images/choice_trial_6.png"" style=""width: 408px; height: 417px;""></div></div>","j","delaylearn","learning","trial","63ea445c759d5bf0e3f63739","IkpEBPxBOLZS47tHjswLbHRCnX62","3","images/choice_trial_12.png","images/choice_trial_6.png","images/pattern_7.png","j","j","750","12","6","6","1","27","1","1","6","160","","","","",""
"html-keyboard-response","149","522281","0.0-62.0-1.0","","null","<div style=""display: flex; flex-direction: column; align-items: center; margin-top: -40px;""><img src=""images/pattern_7.png"" style=""width: 234px; height: 230px; margin-top: -50px;""><div style=""display: flex; justify-content: space-between; margin-top: 33px;""><img src=""images/choice_trial_6.png"" style=""width: 408px; height: 417px; margin-left:608px;""></div></div>","null","delaylearn","learning","display_response","63ea445c759d5bf0e3f63739","IkpEBPxBOLZS47tHjswLbHRCnX62","","","","","","","","","","","","","","","","","chosen stimuli: images/choice_trial_6.png","","","",""
"html-keyboard-response","150","523042","0.0-62.0-2.0","","null","","null","delaylearn","learning","feedback_duration_window","63ea445c759d5bf0e3f63739","IkpEBPxBOLZS47tHjswLbHRCnX62","","","","","","","","","","","","","","","","","","750","","",""
"html-keyboard-response","151","524561","0.0-62.0-3.0","","null","<div style='margin:auto;width: auto; font-size: 150%'><span style='font-weight: bold; font-size: 100px; color: green;'>+10 points!</span><br><br></div>","null","delaylearn","learning","feedback_image_window","63ea445c759d5bf0e3f63739","IkpEBPxBOLZS47tHjswLbHRCnX62","","","","","","","","","","","","","","","","","","","","",""
"html-keyboard-response","152","525080","0.0-63.0-0.0","","null","","null","","","mood_trial_fixation","","","","","","","","","","","","","","","","","","","","","","",""
"lmdlab-html-vas-response","153","531561","0.0-63.0-1.0","","5451","How happy are you right now?","0.719202468549727","delaylearn","learning","mood_trial","63ea445c759d5bf0e3f63739","IkpEBPxBOLZS47tHjswLbHRCnX62","","","","","","","","","","","","","","","","","","","","[""Very unhappy"",""Very happy""]",""
"html-keyboard-response","154","533973","0.0-64.0","","null","<div style=""font-size:100px;"">+</div>","null","delaylearn","learning","ITI","63ea445c759d5bf0e3f63739","IkpEBPxBOLZS47tHjswLbHRCnX62","","","","","","","","","","","","","","","","","","","2402","",""
"html-keyboard-response","155","535916","0.0-65.0-0.0","","1933.3999996185303","<div style=""display: flex; flex-direction: column; align-items: center; margin-top: -40px;""><img src=""images/pattern_1.png"" style=""width: 234px; height: 230px; margin-top: -50px;""><div style=""display: flex; justify-content: space-between; margin-top: 33px;""><img src=""images/choice_trial_14.png"" style=""width: 408px; height: 417px; margin-right: 200px;""><img src=""images/choice_trial_8.png"" style=""width: 408px; height: 417px;""></div></div>","f","delaylearn","learning","trial","63ea445c759d5bf0e3f63739","IkpEBPxBOLZS47tHjswLbHRCnX62","3","images/choice_trial_14.png","images/choice_trial_8.png","images/pattern_1.png","f","f","7000","14","8","1","0","28","1","1","14","170","","","","",""
"html-keyboard-response","156","536929","0.0-65.0-1.0","","null","<div style=""display: flex; flex-direction: column; align-items: center; margin-top: -40px;""><img src=""images/pattern_1.png"" style=""width: 234px; height: 230px; margin-top: -50px;""><div style=""display: flex; justify-content: space-between; margin-top: 33px;""><img src=""images/choice_trial_14.png"" style=""width: 408px; height: 417px; margin-right: 608px;""></div></div>","null","delaylearn","learning","display_response","63ea445c759d5bf0e3f63739","IkpEBPxBOLZS47tHjswLbHRCnX62","","","","","","","","","","","","","","","","","chosen stimuli: images/choice_trial_14.png","","","",""
"html-keyboard-response","157","543953","0.0-65.0-2.0","","null","","null","delaylearn","learning","feedback_duration_window","63ea445c759d5bf0e3f63739","IkpEBPxBOLZS47tHjswLbHRCnX62","","","","","","","","","","","","","","","","","","7000","","",""
"html-keyboard-response","158","545470","0.0-65.0-3.0","","null","<div style='margin:auto;width: auto; font-size: 150%'><span style='font-weight: bold; font-size: 100px; color: green;'>+10 points!</span><br><br></div>","null","delaylearn","learning","feedback_image_window","63ea445c759d5bf0e3f63739","IkpEBPxBOLZS47tHjswLbHRCnX62","","","","","","","","","","","","","","","","","","","","",""
"html-keyboard-response","159","547785","0.0-66.0","","null","<div style=""font-size:100px;"">+</div>","null","delaylearn","learning","ITI","63ea445c759d5bf0e3f63739","IkpEBPxBOLZS47tHjswLbHRCnX62","","","","","","","","","","","","","","","","","","","2304","",""
"html-keyboard-response","160","549023","0.0-67.0-0.0","","1228","<div style=""display: flex; flex-direction: column; align-items: center; margin-top: -40px;""><img src=""images/pattern_5.png"" style=""width: 234px; height: 230px; margin-top: -50px;""><div style=""display: flex; justify-content: space-between; margin-top: 33px;""><img src=""images/choice_trial_11.png"" style=""width: 408px; height: 417px; margin-right: 200px;""><img src=""images/choice_trial_2.png"" style=""width: 408px; height: 417px;""></div></div>","j","delaylearn","learning","trial","63ea445c759d5bf0e3f63739","IkpEBPxBOLZS47tHjswLbHRCnX62","3","images/choice_trial_11.png","images/choice_trial_2.png","images/pattern_5.png","f","f","750","11","2","4","0","29","0","0","2","170","","","","",""
"html-keyboard-response","161","550046","0.0-67.0-1.0","","null","<div style=""display: flex; flex-direction: column; align-items: center; margin-top: -40px;""><img src=""images/pattern_5.png"" style=""width: 234px; height: 230px; margin-top: -50px;""><div style=""display: flex; justify-content: space-between; margin-top: 33px;""><img src=""images/choice_trial_2.png"" style=""width: 408px; height: 417px; margin-left:608px;""></div></div>","null","delaylearn","learning","display_response","63ea445c759d5bf0e3f63739","IkpEBPxBOLZS47tHjswLbHRCnX62","","","","","","","","","","","","","","","","","chosen stimuli: images/choice_trial_2.png","","","",""
"html-keyboard-response","162","550808","0.0-67.0-2.0","","null","","null","delaylearn","learning","feedback_duration_window","63ea445c759d5bf0e3f63739","IkpEBPxBOLZS47tHjswLbHRCnX62","","","","","","","","","","","","","","","","","","750","","",""
"html-keyboard-response","163","552326","0.0-67.0-3.0","","null","<div style='margin:auto;width: auto; font-size: 150%'><span style='font-weight: bold; font-size: 100px; color: red;'>0 points!</span><br><br></div>","null","delaylearn","learning","feedback_image_window","63ea445c759d5bf0e3f63739","IkpEBPxBOLZS47tHjswLbHRCnX62","","","","","","","","","","","","","","","","","","","","",""
"html-keyboard-response","164","554068","0.0-68.0","","null","<div style=""font-size:100px;"">+</div>","null","delaylearn","learning","ITI","63ea445c759d5bf0e3f63739","IkpEBPxBOLZS47tHjswLbHRCnX62","","","","","","","","","","","","","","","","","","","1734","",""
"html-keyboard-response","165","555737","0.0-69.0-0.0","","1654.9000005722046","<div style=""display: flex; flex-direction: column; align-items: center; margin-top: -40px;""><img src=""images/pattern_6.png"" style=""width: 234px; height: 230px; margin-top: -50px;""><div style=""display: flex; justify-content: space-between; margin-top: 33px;""><img src=""images/choice_trial_3.png"" style=""width: 408px; height: 417px; margin-right: 200px;""><img src=""images/choice_trial_16.png"" style=""width: 408px; height: 417px;""></div></div>","f","delaylearn","learning","trial","63ea445c759d5bf0e3f63739","IkpEBPxBOLZS47tHjswLbHRCnX62","3","images/choice_trial_3.png","images/choice_trial_16.png","images/pattern_6.png","j","j","750","3","16","5","1","30","0","0","3","170","","","","",""
"html-keyboard-response","166","556759","0.0-69.0-1.0","","null","<div style=""display: flex; flex-direction: column; align-items: center; margin-top: -40px;""><img src=""images/pattern_6.png"" style=""width: 234px; height: 230px; margin-top: -50px;""><div style=""display: flex; justify-content: space-between; margin-top: 33px;""><img src=""images/choice_trial_3.png"" style=""width: 408px; height: 417px; margin-right: 608px;""></div></div>","null","delaylearn","learning","display_response","63ea445c759d5bf0e3f63739","IkpEBPxBOLZS47tHjswLbHRCnX62","","","","","","","","","","","","","","","","","chosen stimuli: images/choice_trial_3.png","","","",""
"html-keyboard-response","167","557519","0.0-69.0-2.0","","null","","null","delaylearn","learning","feedback_duration_window","63ea445c759d5bf0e3f63739","IkpEBPxBOLZS47tHjswLbHRCnX62","","","","","","","","","","","","","","","","","","750","","",""
"html-keyboard-response","168","559045","0.0-69.0-3.0","","null","<div style='margin:auto;width: auto; font-size: 150%'><span style='font-weight: bold; font-size: 100px; color: red;'>0 points!</span><br><br></div>","null","delaylearn","learning","feedback_image_window","63ea445c759d5bf0e3f63739","IkpEBPxBOLZS47tHjswLbHRCnX62","","","","","","","","","","","","","","","","","","","","",""
"html-keyboard-response","169","559555","0.0-70.0-0.0","","null","","null","","","mood_trial_fixation","","","","","","","","","","","","","","","","","","","","","","",""
"lmdlab-html-vas-response","170","564852","0.0-70.0-1.0","","4274","How happy are you right now?","0.7300532365806517","delaylearn","learning","mood_trial","63ea445c759d5bf0e3f63739","IkpEBPxBOLZS47tHjswLbHRCnX62","","","","","","","","","","","","","","","","","","","","[""Very unhappy"",""Very happy""]",""
"html-keyboard-response","171","566987","0.0-71.0","","null","<div style=""font-size:100px;"">+</div>","null","delaylearn","learning","ITI","63ea445c759d5bf0e3f63739","IkpEBPxBOLZS47tHjswLbHRCnX62","","","","","","","","","","","","","","","","","","","2126","",""
"html-keyboard-response","172","569435","0.0-72.0-0.0","","2438","<div style=""display: flex; flex-direction: column; align-items: center; margin-top: -40px;""><img src=""images/pattern_4.png"" style=""width: 234px; height: 230px; margin-top: -50px;""><div style=""display: flex; justify-content: space-between; margin-top: 33px;""><img src=""images/choice_trial_9.png"" style=""width: 408px; height: 417px; margin-right: 200px;""><img src=""images/choice_trial_15.png"" style=""width: 408px; height: 417px;""></div></div>","j","delaylearn","learning","trial","63ea445c759d5bf0e3f63739","IkpEBPxBOLZS47tHjswLbHRCnX62","3","images/choice_trial_9.png","images/choice_trial_15.png","images/pattern_4.png","j","j","7000","9","15","3","1","31","1","1","15","180","","","","",""
"html-keyboard-response","173","570463","0.0-72.0-1.0","","null","<div style=""display: flex; flex-direction: column; align-items: center; margin-top: -40px;""><img src=""images/pattern_4.png"" style=""width: 234px; height: 230px; margin-top: -50px;""><div style=""display: flex; justify-content: space-between; margin-top: 33px;""><img src=""images/choice_trial_15.png"" style=""width: 408px; height: 417px; margin-left:608px;""></div></div>","null","delaylearn","learning","display_response","63ea445c759d5bf0e3f63739","IkpEBPxBOLZS47tHjswLbHRCnX62","","","","","","","","","","","","","","","","","chosen stimuli: images/choice_trial_15.png","","","",""
"html-keyboard-response","174","577481","0.0-72.0-2.0","","null","","null","delaylearn","learning","feedback_duration_window","63ea445c759d5bf0e3f63739","IkpEBPxBOLZS47tHjswLbHRCnX62","","","","","","","","","","","","","","","","","","7000","","",""
"html-keyboard-response","175","578999","0.0-72.0-3.0","","null","<div style='margin:auto;width: auto; font-size: 150%'><span style='font-weight: bold; font-size: 100px; color: green;'>+10 points!</span><br><br></div>","null","delaylearn","learning","feedback_image_window","63ea445c759d5bf0e3f63739","IkpEBPxBOLZS47tHjswLbHRCnX62","","","","","","","","","","","","","","","","","","","","",""
"html-keyboard-response","176","580754","0.0-73.0","","null","<div style=""font-size:100px;"">+</div>","null","delaylearn","learning","ITI","63ea445c759d5bf0e3f63739","IkpEBPxBOLZS47tHjswLbHRCnX62","","","","","","","","","","","","","","","","","","","1738","",""
"html-keyboard-response","177","582069","0.0-74.0-0.0","","1303.2999992370605","<div style=""display: flex; flex-direction: column; align-items: center; margin-top: -40px;""><img src=""images/pattern_3.png"" style=""width: 234px; height: 230px; margin-top: -50px;""><div style=""display: flex; justify-content: space-between; margin-top: 33px;""><img src=""images/choice_trial_10.png"" style=""width: 408px; height: 417px; margin-right: 200px;""><img src=""images/choice_trial_13.png"" style=""width: 408px; height: 417px;""></div></div>","f","delaylearn","learning","trial","63ea445c759d5bf0e3f63739","IkpEBPxBOLZS47tHjswLbHRCnX62","3","images/choice_trial_10.png","images/choice_trial_13.png","images/pattern_3.png","j","j","7000","10","13","2","1","32","0","0","10","180","","","","",""
"html-keyboard-response","178","583090","0.0-74.0-1.0","","null","<div style=""display: flex; flex-direction: column; align-items: center; margin-top: -40px;""><img src=""images/pattern_3.png"" style=""width: 234px; height: 230px; margin-top: -50px;""><div style=""display: flex; justify-content: space-between; margin-top: 33px;""><img src=""images/choice_trial_10.png"" style=""width: 408px; height: 417px; margin-right: 608px;""></div></div>","null","delaylearn","learning","display_response","63ea445c759d5bf0e3f63739","IkpEBPxBOLZS47tHjswLbHRCnX62","","","","","","","","","","","","","","","","","chosen stimuli: images/choice_trial_10.png","","","",""
"html-keyboard-response","179","590105","0.0-74.0-2.0","","null","","null","delaylearn","learning","feedback_duration_window","63ea445c759d5bf0e3f63739","IkpEBPxBOLZS47tHjswLbHRCnX62","","","","","","","","","","","","","","","","","","7000","","",""
"html-keyboard-response","180","591632","0.0-74.0-3.0","","null","<div style='margin:auto;width: auto; font-size: 150%'><span style='font-weight: bold; font-size: 100px; color: red;'>0 points!</span><br><br></div>","null","delaylearn","learning","feedback_image_window","63ea445c759d5bf0e3f63739","IkpEBPxBOLZS47tHjswLbHRCnX62","","","","","","","","","","","","","","","","","","","","",""
"html-keyboard-response","181","593785","0.0-75.0","","null","<div style=""font-size:100px;"">+</div>","null","delaylearn","learning","ITI","63ea445c759d5bf0e3f63739","IkpEBPxBOLZS47tHjswLbHRCnX62","","","","","","","","","","","","","","","","","","","2148","",""
"html-keyboard-response","182","594526","0.0-76.0-0.0","","730.2000007629395","<div style=""display: flex; flex-direction: column; align-items: center; margin-top: -40px;""><img src=""images/pattern_5.png"" style=""width: 234px; height: 230px; margin-top: -50px;""><div style=""display: flex; justify-content: space-between; margin-top: 33px;""><img src=""images/choice_trial_11.png"" style=""width: 408px; height: 417px; margin-right: 200px;""><img src=""images/choice_trial_2.png"" style=""width: 408px; height: 417px;""></div></div>","j","delaylearn","learning","trial","63ea445c759d5bf0e3f63739","IkpEBPxBOLZS47tHjswLbHRCnX62","3","images/choice_trial_11.png","images/choice_trial_2.png","images/pattern_5.png","j","f","750","11","2","4","0","33","0","1","2","190","","","","",""
"html-keyboard-response","183","595547","0.0-76.0-1.0","","null","<div style=""display: flex; flex-direction: column; align-items: center; margin-top: -40px;""><img src=""images/pattern_5.png"" style=""width: 234px; height: 230px; margin-top: -50px;""><div style=""display: flex; justify-content: space-between; margin-top: 33px;""><img src=""images/choice_trial_2.png"" style=""width: 408px; height: 417px; margin-left:608px;""></div></div>","null","delaylearn","learning","display_response","63ea445c759d5bf0e3f63739","IkpEBPxBOLZS47tHjswLbHRCnX62","","","","","","","","","","","","","","","","","chosen stimuli: images/choice_trial_2.png","","","",""
"html-keyboard-response","184","596307","0.0-76.0-2.0","","null","","null","delaylearn","learning","feedback_duration_window","63ea445c759d5bf0e3f63739","IkpEBPxBOLZS47tHjswLbHRCnX62","","","","","","","","","","","","","","","","","","750","","",""
"html-keyboard-response","185","597815","0.0-76.0-3.0","","null","<div style='margin:auto;width: auto; font-size: 150%'><span style='font-weight: bold; font-size: 100px; color: green;'>+10 points!</span><br><br></div>","null","delaylearn","learning","feedback_image_window","63ea445c759d5bf0e3f63739","IkpEBPxBOLZS47tHjswLbHRCnX62","","","","","","","","","","","","","","","","","","","","",""
"html-keyboard-response","186","599534","0.0-77.0","","null","<div style=""font-size:100px;"">+</div>","null","delaylearn","learning","ITI","63ea445c759d5bf0e3f63739","IkpEBPxBOLZS47tHjswLbHRCnX62","","","","","","","","","","","","","","","","","","","1710","",""
"html-keyboard-response","187","600858","0.0-78.0-0.0","","1310.8000001907349","<div style=""display: flex; flex-direction: column; align-items: center; margin-top: -40px;""><img src=""images/pattern_1.png"" style=""width: 234px; height: 230px; margin-top: -50px;""><div style=""display: flex; justify-content: space-between; margin-top: 33px;""><img src=""images/choice_trial_14.png"" style=""width: 408px; height: 417px; margin-right: 200px;""><img src=""images/choice_trial_8.png"" style=""width: 408px; height: 417px;""></div></div>","f","delaylearn","learning","trial","63ea445c759d5bf0e3f63739","IkpEBPxBOLZS47tHjswLbHRCnX62","3","images/choice_trial_14.png","images/choice_trial_8.png","images/pattern_1.png","f","f","7000","14","8","1","0","34","1","1","14","200","","","","",""
"html-keyboard-response","188","601868","0.0-78.0-1.0","","null","<div style=""display: flex; flex-direction: column; align-items: center; margin-top: -40px;""><img src=""images/pattern_1.png"" style=""width: 234px; height: 230px; margin-top: -50px;""><div style=""display: flex; justify-content: space-between; margin-top: 33px;""><img src=""images/choice_trial_14.png"" style=""width: 408px; height: 417px; margin-right: 608px;""></div></div>","null","delaylearn","learning","display_response","63ea445c759d5bf0e3f63739","IkpEBPxBOLZS47tHjswLbHRCnX62","","","","","","","","","","","","","","","","","chosen stimuli: images/choice_trial_14.png","","","",""
"html-keyboard-response","189","608887","0.0-78.0-2.0","","null","","null","delaylearn","learning","feedback_duration_window","63ea445c759d5bf0e3f63739","IkpEBPxBOLZS47tHjswLbHRCnX62","","","","","","","","","","","","","","","","","","7000","","",""
"html-keyboard-response","190","610394","0.0-78.0-3.0","","null","<div style='margin:auto;width: auto; font-size: 150%'><span style='font-weight: bold; font-size: 100px; color: green;'>+10 points!</span><br><br></div>","null","delaylearn","learning","feedback_image_window","63ea445c759d5bf0e3f63739","IkpEBPxBOLZS47tHjswLbHRCnX62","","","","","","","","","","","","","","","","","","","","",""
"html-keyboard-response","191","610911","0.0-79.0-0.0","","null","","null","","","mood_trial_fixation","","","","","","","","","","","","","","","","","","","","","","",""
"lmdlab-html-vas-response","192","616362","0.0-79.0-1.0","","4413","How happy are you right now?","0.7083517005188024","delaylearn","learning","mood_trial","63ea445c759d5bf0e3f63739","IkpEBPxBOLZS47tHjswLbHRCnX62","","","","","","","","","","","","","","","","","","","","[""Very unhappy"",""Very happy""]",""
"html-keyboard-response","193","617916","0.0-80.0","","null","<div style=""font-size:100px;"">+</div>","null","delaylearn","learning","ITI","63ea445c759d5bf0e3f63739","IkpEBPxBOLZS47tHjswLbHRCnX62","","","","","","","","","","","","","","","","","","","1529","",""
"html-keyboard-response","194","620936","0.0-81.0-0.0","","null","<div style=""display: flex; flex-direction: column; align-items: center; margin-top: -40px;""><img src=""images/pattern_6.png"" style=""width: 234px; height: 230px; margin-top: -50px;""><div style=""display: flex; justify-content: space-between; margin-top: 33px;""><img src=""images/choice_trial_16.png"" style=""width: 408px; height: 417px; margin-right: 200px;""><img src=""images/choice_trial_3.png"" style=""width: 408px; height: 417px;""></div></div>","null","delaylearn","learning","trial","63ea445c759d5bf0e3f63739","IkpEBPxBOLZS47tHjswLbHRCnX62","3","images/choice_trial_16.png","images/choice_trial_3.png","images/pattern_6.png","j","f","750","16","3","5","0","35","0","0","0","200","","","","",""
"html-keyboard-response","195","621956","0.0-81.0-1.0","","null","<div style='font-weight: bold; font-size: 75px; color: red;'>Missed Trial <br><br><br><br> Please respond faster</div>","null","delaylearn","learning","display_response","63ea445c759d5bf0e3f63739","IkpEBPxBOLZS47tHjswLbHRCnX62","","","","","","","","","","","","","","","","","Missed trial","","","",""
"html-keyboard-response","196","621972","0.0-81.0-2.0","","null","","null","delaylearn","learning","feedback_duration_window","63ea445c759d5bf0e3f63739","IkpEBPxBOLZS47tHjswLbHRCnX62","","","","","","","","","","","","","","","","","","0","","",""
"html-keyboard-response","197","621982","0.0-81.0-3.0","","null","","null","delaylearn","learning","feedback_image_window","63ea445c759d5bf0e3f63739","IkpEBPxBOLZS47tHjswLbHRCnX62","","","","","","","","","","","","","","","","","","","","",""
"html-keyboard-response","198","624325","0.0-82.0","","null","<div style=""font-size:100px;"">+</div>","null","delaylearn","learning","ITI","63ea445c759d5bf0e3f63739","IkpEBPxBOLZS47tHjswLbHRCnX62","","","","","","","","","","","","","","","","","","","2328","",""
"html-keyboard-response","199","625552","0.0-83.0-0.0","","1203.1000003814697","<div style=""display: flex; flex-direction: column; align-items: center; margin-top: -40px;""><img src=""images/pattern_3.png"" style=""width: 234px; height: 230px; margin-top: -50px;""><div style=""display: flex; justify-content: space-between; margin-top: 33px;""><img src=""images/choice_trial_10.png"" style=""width: 408px; height: 417px; margin-right: 200px;""><img src=""images/choice_trial_13.png"" style=""width: 408px; height: 417px;""></div></div>","f","delaylearn","learning","trial","63ea445c759d5bf0e3f63739","IkpEBPxBOLZS47tHjswLbHRCnX62","3","images/choice_trial_10.png","images/choice_trial_13.png","images/pattern_3.png","j","j","7000","10","13","2","1","36","0","0","10","200","","","","",""
"html-keyboard-response","200","626561","0.0-83.0-1.0","","null","<div style=""display: flex; flex-direction: column; align-items: center; margin-top: -40px;""><img src=""images/pattern_3.png"" style=""width: 234px; height: 230px; margin-top: -50px;""><div style=""display: flex; justify-content: space-between; margin-top: 33px;""><img src=""images/choice_trial_10.png"" style=""width: 408px; height: 417px; margin-right: 608px;""></div></div>","null","delaylearn","learning","display_response","63ea445c759d5bf0e3f63739","IkpEBPxBOLZS47tHjswLbHRCnX62","","","","","","","","","","","","","","","","","chosen stimuli: images/choice_trial_10.png","","","",""
"html-keyboard-response","201","633578","0.0-83.0-2.0","","null","","null","delaylearn","learning","feedback_duration_window","63ea445c759d5bf0e3f63739","IkpEBPxBOLZS47tHjswLbHRCnX62","","","","","","","","","","","","","","","","","","7000","","",""
"html-keyboard-response","202","635105","0.0-83.0-3.0","","null","<div style='margin:auto;width: auto; font-size: 150%'><span style='font-weight: bold; font-size: 100px; color: red;'>0 points!</span><br><br></div>","null","delaylearn","learning","feedback_image_window","63ea445c759d5bf0e3f63739","IkpEBPxBOLZS47tHjswLbHRCnX62","","","","","","","","","","","","","","","","","","","","",""
"html-keyboard-response","203","637188","0.0-84.0","","null","<div style=""font-size:100px;"">+</div>","null","delaylearn","learning","ITI","63ea445c759d5bf0e3f63739","IkpEBPxBOLZS47tHjswLbHRCnX62","","","","","","","","","","","","","","","","","","","2057","",""
"html-keyboard-response","204","638041","0.0-85.0-0.0","","841.5","<div style=""display: flex; flex-direction: column; align-items: center; margin-top: -40px;""><img src=""images/pattern_4.png"" style=""width: 234px; height: 230px; margin-top: -50px;""><div style=""display: flex; justify-content: space-between; margin-top: 33px;""><img src=""images/choice_trial_9.png"" style=""width: 408px; height: 417px; margin-right: 200px;""><img src=""images/choice_trial_15.png"" style=""width: 408px; height: 417px;""></div></div>","j","delaylearn","learning","trial","63ea445c759d5bf0e3f63739","IkpEBPxBOLZS47tHjswLbHRCnX62","3","images/choice_trial_9.png","images/choice_trial_15.png","images/pattern_4.png","f","j","7000","9","15","3","1","37","1","0","15","200","","","","",""
"html-keyboard-response","205","639059","0.0-85.0-1.0","","null","<div style=""display: flex; flex-direction: column; align-items: center; margin-top: -40px;""><img src=""images/pattern_4.png"" style=""width: 234px; height: 230px; margin-top: -50px;""><div style=""display: flex; justify-content: space-between; margin-top: 33px;""><img src=""images/choice_trial_15.png"" style=""width: 408px; height: 417px; margin-left:608px;""></div></div>","null","delaylearn","learning","display_response","63ea445c759d5bf0e3f63739","IkpEBPxBOLZS47tHjswLbHRCnX62","","","","","","","","","","","","","","","","","chosen stimuli: images/choice_trial_15.png","","","",""
"html-keyboard-response","206","646079","0.0-85.0-2.0","","null","","null","delaylearn","learning","feedback_duration_window","63ea445c759d5bf0e3f63739","IkpEBPxBOLZS47tHjswLbHRCnX62","","","","","","","","","","","","","","","","","","7000","","",""
"html-keyboard-response","207","647605","0.0-85.0-3.0","","null","<div style='margin:auto;width: auto; font-size: 150%'><span style='font-weight: bold; font-size: 100px; color: red;'>0 points!</span><br><br></div>","null","delaylearn","learning","feedback_image_window","63ea445c759d5bf0e3f63739","IkpEBPxBOLZS47tHjswLbHRCnX62","","","","","","","","","","","","","","","","","","","","",""
"html-keyboard-response","208","649657","0.0-86.0","","null","<div style=""font-size:100px;"">+</div>","null","delaylearn","learning","ITI","63ea445c759d5bf0e3f63739","IkpEBPxBOLZS47tHjswLbHRCnX62","","","","","","","","","","","","","","","","","","","2031","",""
"html-keyboard-response","209","651182","0.0-87.0-0.0","","1512.1000003814697","<div style=""display: flex; flex-direction: column; align-items: center; margin-top: -40px;""><img src=""images/pattern_7.png"" style=""width: 234px; height: 230px; margin-top: -50px;""><div style=""display: flex; justify-content: space-between; margin-top: 33px;""><img src=""images/choice_trial_6.png"" style=""width: 408px; height: 417px; margin-right: 200px;""><img src=""images/choice_trial_12.png"" style=""width: 408px; height: 417px;""></div></div>","j","delaylearn","learning","trial","63ea445c759d5bf0e3f63739","IkpEBPxBOLZS47tHjswLbHRCnX62","3","images/choice_trial_6.png","images/choice_trial_12.png","images/pattern_7.png","f","f","750","6","12","6","0","38","0","0","12","200","","","","",""
"html-keyboard-response","210","652195","0.0-87.0-1.0","","null","<div style=""display: flex; flex-direction: column; align-items: center; margin-top: -40px;""><img src=""images/pattern_7.png"" style=""width: 234px; height: 230px; margin-top: -50px;""><div style=""display: flex; justify-content: space-between; margin-top: 33px;""><img src=""images/choice_trial_12.png"" style=""width: 408px; height: 417px; margin-left:608px;""></div></div>","null","delaylearn","learning","display_response","63ea445c759d5bf0e3f63739","IkpEBPxBOLZS47tHjswLbHRCnX62","","","","","","","","","","","","","","","","","chosen stimuli: images/choice_trial_12.png","","","",""
"html-keyboard-response","211","652959","0.0-87.0-2.0","","null","","null","delaylearn","learning","feedback_duration_window","63ea445c759d5bf0e3f63739","IkpEBPxBOLZS47tHjswLbHRCnX62","","","","","","","","","","","","","","","","","","750","","",""
"html-keyboard-response","212","654471","0.0-87.0-3.0","","null","<div style='margin:auto;width: auto; font-size: 150%'><span style='font-weight: bold; font-size: 100px; color: red;'>0 points!</span><br><br></div>","null","delaylearn","learning","feedback_image_window","63ea445c759d5bf0e3f63739","IkpEBPxBOLZS47tHjswLbHRCnX62","","","","","","","","","","","","","","","","","","","","",""
"html-keyboard-response","213","656411","0.0-88.0","","null","<div style=""font-size:100px;"">+</div>","null","delaylearn","learning","ITI","63ea445c759d5bf0e3f63739","IkpEBPxBOLZS47tHjswLbHRCnX62","","","","","","","","","","","","","","","","","","","1931","",""
"html-keyboard-response","214","659430","0.0-89.0-0.0","","null","<div style=""display: flex; flex-direction: column; align-items: center; margin-top: -40px;""><img src=""images/pattern_1.png"" style=""width: 234px; height: 230px; margin-top: -50px;""><div style=""display: flex; justify-content: space-between; margin-top: 33px;""><img src=""images/choice_trial_14.png"" style=""width: 408px; height: 417px; margin-right: 200px;""><img src=""images/choice_trial_8.png"" style=""width: 408px; height: 417px;""></div></div>","null","delaylearn","learning","trial","63ea445c759d5bf0e3f63739","IkpEBPxBOLZS47tHjswLbHRCnX62","3","images/choice_trial_14.png","images/choice_trial_8.png","images/pattern_1.png","f","f","7000","14","8","1","0","39","0","0","0","200","","","","",""
"html-keyboard-response","215","660444","0.0-89.0-1.0","","null","<div style='font-weight: bold; font-size: 75px; color: red;'>Missed Trial <br><br><br><br> Please respond faster</div>","null","delaylearn","learning","display_response","63ea445c759d5bf0e3f63739","IkpEBPxBOLZS47tHjswLbHRCnX62","","","","","","","","","","","","","","","","","Missed trial","","","",""
"html-keyboard-response","216","660454","0.0-89.0-2.0","","null","","null","delaylearn","learning","feedback_duration_window","63ea445c759d5bf0e3f63739","IkpEBPxBOLZS47tHjswLbHRCnX62","","","","","","","","","","","","","","","","","","0","","",""
"html-keyboard-response","217","660469","0.0-89.0-3.0","","null","","null","delaylearn","learning","feedback_image_window","63ea445c759d5bf0e3f63739","IkpEBPxBOLZS47tHjswLbHRCnX62","","","","","","","","","","","","","","","","","","","","",""
"html-keyboard-response","218","660990","0.0-90.0-0.0","","null","","null","","","mood_trial_fixation","","","","","","","","","","","","","","","","","","","","","","",""
"lmdlab-html-vas-response","219","665257","0.0-90.0-1.0","","3239","How happy are you right now?","0.7495846190363161","delaylearn","learning","mood_trial","63ea445c759d5bf0e3f63739","IkpEBPxBOLZS47tHjswLbHRCnX62","","","","","","","","","","","","","","","","","","","","[""Very unhappy"",""Very happy""]",""
"html-keyboard-response","220","667722","0.0-91.0","","null","<div style=""font-size:100px;"">+</div>","null","delaylearn","learning","ITI","63ea445c759d5bf0e3f63739","IkpEBPxBOLZS47tHjswLbHRCnX62","","","","","","","","","","","","","","","","","","","2454","",""
"html-keyboard-response","221","668617","0.0-92.0-0.0","","855.2999992370605","<div style=""display: flex; flex-direction: column; align-items: center; margin-top: -40px;""><img src=""images/pattern_3.png"" style=""width: 234px; height: 230px; margin-top: -50px;""><div style=""display: flex; justify-content: space-between; margin-top: 33px;""><img src=""images/choice_trial_13.png"" style=""width: 408px; height: 417px; margin-right: 200px;""><img src=""images/choice_trial_10.png"" style=""width: 408px; height: 417px;""></div></div>","f","delaylearn","learning","trial","63ea445c759d5bf0e3f63739","IkpEBPxBOLZS47tHjswLbHRCnX62","3","images/choice_trial_13.png","images/choice_trial_10.png","images/pattern_3.png","j","f","7000","13","10","2","0","40","1","0","13","200","","","","",""
"html-keyboard-response","222","669640","0.0-92.0-1.0","","null","<div style=""display: flex; flex-direction: column; align-items: center; margin-top: -40px;""><img src=""images/pattern_3.png"" style=""width: 234px; height: 230px; margin-top: -50px;""><div style=""display: flex; justify-content: space-between; margin-top: 33px;""><img src=""images/choice_trial_13.png"" style=""width: 408px; height: 417px; margin-right: 608px;""></div></div>","null","delaylearn","learning","display_response","63ea445c759d5bf0e3f63739","IkpEBPxBOLZS47tHjswLbHRCnX62","","","","","","","","","","","","","","","","","chosen stimuli: images/choice_trial_13.png","","","",""
"html-keyboard-response","223","676663","0.0-92.0-2.0","","null","","null","delaylearn","learning","feedback_duration_window","63ea445c759d5bf0e3f63739","IkpEBPxBOLZS47tHjswLbHRCnX62","","","","","","","","","","","","","","","","","","7000","","",""
