"trial_type","trial_index","time_elapsed","internal_node_id","participant","rt","stimulus","response","exp_name","exp_stage","test_part","subjectID","databaseID","counterbal","choice_stimuli_1","choice_stimuli_2","pattern_stimuli","rewarded_answer","correct_answer","feedback_duration_times","stim_left","stim_right","pair","leftright_counter","trial","response_correct","response_rewarded","chosen_stim","counter","displayed_choice","feedback_durations","ITI_duration","labels","rest_warning"
"pavlovia","0","596","0.0-0.0","","","","","","","","","","","","","","","","","","","","","","","","","","","","","",""
"html-keyboard-response","1","3598","0.0-1.0","","null","<div style=""font-size:100px;"">+</div>","null","delaylearn","learning","pre_fixation","54258078fdf99b691fb3858e","","","","","","","","","","","","","","","","","","","","","",""
"html-keyboard-response","2","5005","0.0-2.0-0.0","","1404","<div style=""display: flex; flex-direction: column; align-items: center; margin-top: -40px;""><img src=""images/demo_images/pattern_1.png"" style=""width: 234px; height: 230px; margin-top: -50px;""><div style=""display: flex; justify-content: space-between; margin-top: 33px;""><img src=""images/demo_images/choice_trial_2.png"" style=""width: 408px; height: 417px; margin-right: 200px;""><img src=""images/demo_images/choice_trial_1.png"" style=""width: 408px; height: 417px;""></div></div>","j","delaylearn","learning","trial","54258078fdf99b691fb3858e","rZfoBUHPEqW0SAhMuvwGxV33D0o2","2","images/demo_images/choice_trial_2.png","images/demo_images/choice_trial_1.png","images/demo_images/pattern_1.png","j","j","3000","2","1","20","1","1","1","1","1","10","","","","",""
"html-keyboard-response","3","6011","0.0-2.0-1.0","","null","<div style=""display: flex; flex-direction: column; align-items: center; margin-top: -40px;""><img src=""images/demo_images/pattern_1.png"" style=""width: 234px; height: 230px; margin-top: -50px;""><div style=""display: flex; justify-content: space-between; margin-top: 33px;""><img src=""images/demo_images/choice_trial_1.png"" style=""width: 408px; height: 417px; margin-left:608px;""></div></div>","null","delaylearn","learning","display_response","54258078fdf99b691fb3858e","rZfoBUHPEqW0SAhMuvwGxV33D0o2","","","","","","","","","","","","","","","","","chosen stimuli: images/demo_images/choice_trial_1.png","","","",""
"html-keyboard-response","4","9013","0.0-2.0-2.0","","null","","null","delaylearn","learning","feedback_duration_window","54258078fdf99b691fb3858e","rZfoBUHPEqW0SAhMuvwGxV33D0o2","","","","","","","","","","","","","","","","","","3000","","",""
"html-keyboard-response","5","10516","0.0-2.0-3.0","","null","<div style='margin:auto;width: auto; font-size: 150%'><span style='font-weight: bold; font-size: 100px; color: green;'>+10 points!</span><br><br></div>","null","delaylearn","learning","feedback_image_window","54258078fdf99b691fb3858e","rZfoBUHPEqW0SAhMuvwGxV33D0o2","","","","","","","","","","","","","","","","","","","","",""
"html-keyboard-response","6","12094","0.0-3.0","","null","<div style=""font-size:100px;"">+</div>","null","delaylearn","learning","ITI","54258078fdf99b691fb3858e","rZfoBUHPEqW0SAhMuvwGxV33D0o2","","","","","","","","","","","","","","","","","","","1577","",""
"html-keyboard-response","7","12752","0.0-4.0-0.0","","653","<div style=""display: flex; flex-direction: column; align-items: center; margin-top: -40px;""><img src=""images/demo_images/pattern_1.png"" style=""width: 234px; height: 230px; margin-top: -50px;""><div style=""display: flex; justify-content: space-between; margin-top: 33px;""><img src=""images/demo_images/choice_trial_2.png"" style=""width: 408px; height: 417px; margin-right: 200px;""><img src=""images/demo_images/choice_trial_1.png"" style=""width: 408px; height: 417px;""></div></div>","j","delaylearn","learning","trial","54258078fdf99b691fb3858e","rZfoBUHPEqW0SAhMuvwGxV33D0o2","2","images/demo_images/choice_trial_2.png","images/demo_images/choice_trial_1.png","images/demo_images/pattern_1.png","j","j","3000","2","1","20","1","2","1","1","1","20","","","","",""
"html-keyboard-response","8","13755","0.0-4.0-1.0","","null","<div style=""display: flex; flex-direction: column; align-items: center; margin-top: -40px;""><img src=""images/demo_images/pattern_1.png"" style=""width: 234px; height: 230px; margin-top: -50px;""><div style=""display: flex; justify-content: space-between; margin-top: 33px;""><img src=""images/demo_images/choice_trial_1.png"" style=""width: 408px; height: 417px; margin-left:608px;""></div></div>","null","delaylearn","learning","display_response","54258078fdf99b691fb3858e","rZfoBUHPEqW0SAhMuvwGxV33D0o2","","","","","","","","","","","","","","","","","chosen stimuli: images/demo_images/choice_trial_1.png","","","",""
"html-keyboard-response","9","16756","0.0-4.0-2.0","","null","","null","delaylearn","learning","feedback_duration_window","54258078fdf99b691fb3858e","rZfoBUHPEqW0SAhMuvwGxV33D0o2","","","","","","","","","","","","","","","","","","3000","","",""
"html-keyboard-response","10","18259","0.0-4.0-3.0","","null","<div style='margin:auto;width: auto; font-size: 150%'><span style='font-weight: bold; font-size: 100px; color: green;'>+10 points!</span><br><br></div>","null","delaylearn","learning","feedback_image_window","54258078fdf99b691fb3858e","rZfoBUHPEqW0SAhMuvwGxV33D0o2","","","","","","","","","","","","","","","","","","","","",""
"html-keyboard-response","11","20725","0.0-5.0","","null","<div style=""font-size:100px;"">+</div>","null","delaylearn","learning","ITI","54258078fdf99b691fb3858e","rZfoBUHPEqW0SAhMuvwGxV33D0o2","","","","","","","","","","","","","","","","","","","2465","",""
"html-keyboard-response","12","21391","0.0-6.0-0.0","","662","<div style=""display: flex; flex-direction: column; align-items: center; margin-top: -40px;""><img src=""images/demo_images/pattern_1.png"" style=""width: 234px; height: 230px; margin-top: -50px;""><div style=""display: flex; justify-content: space-between; margin-top: 33px;""><img src=""images/demo_images/choice_trial_1.png"" style=""width: 408px; height: 417px; margin-right: 200px;""><img src=""images/demo_images/choice_trial_2.png"" style=""width: 408px; height: 417px;""></div></div>","f","delaylearn","learning","trial","54258078fdf99b691fb3858e","rZfoBUHPEqW0SAhMuvwGxV33D0o2","2","images/demo_images/choice_trial_1.png","images/demo_images/choice_trial_2.png","images/demo_images/pattern_1.png","j","f","3000","1","2","20","0","3","1","0","1","20","","","","",""
"html-keyboard-response","13","22394","0.0-6.0-1.0","","null","<div style=""display: flex; flex-direction: column; align-items: center; margin-top: -40px;""><img src=""images/demo_images/pattern_1.png"" style=""width: 234px; height: 230px; margin-top: -50px;""><div style=""display: flex; justify-content: space-between; margin-top: 33px;""><img src=""images/demo_images/choice_trial_1.png"" style=""width: 408px; height: 417px; margin-right: 608px;""></div></div>","null","delaylearn","learning","display_response","54258078fdf99b691fb3858e","rZfoBUHPEqW0SAhMuvwGxV33D0o2","","","","","","","","","","","","","","","","","chosen stimuli: images/demo_images/choice_trial_1.png","","","",""
"html-keyboard-response","14","25395","0.0-6.0-2.0","","null","","null","delaylearn","learning","feedback_duration_window","54258078fdf99b691fb3858e","rZfoBUHPEqW0SAhMuvwGxV33D0o2","","","","","","","","","","","","","","","","","","3000","","",""
"html-keyboard-response","15","26898","0.0-6.0-3.0","","null","<div style='margin:auto;width: auto; font-size: 150%'><span style='font-weight: bold; font-size: 100px; color: red;'>0 points!</span><br><br></div>","null","delaylearn","learning","feedback_image_window","54258078fdf99b691fb3858e","rZfoBUHPEqW0SAhMuvwGxV33D0o2","","","","","","","","","","","","","","","","","","","","",""
"html-keyboard-response","16","28792","0.0-7.0","","null","<div style=""font-size:100px;"">+</div>","null","delaylearn","learning","ITI","54258078fdf99b691fb3858e","rZfoBUHPEqW0SAhMuvwGxV33D0o2","","","","","","","","","","","","","","","","","","","1893","",""
"html-keyboard-response","17","29388","0.0-8.0-0.0","","592","<div style=""display: flex; flex-direction: column; align-items: center; margin-top: -40px;""><img src=""images/demo_images/pattern_1.png"" style=""width: 234px; height: 230px; margin-top: -50px;""><div style=""display: flex; justify-content: space-between; margin-top: 33px;""><img src=""images/demo_images/choice_trial_1.png"" style=""width: 408px; height: 417px; margin-right: 200px;""><img src=""images/demo_images/choice_trial_2.png"" style=""width: 408px; height: 417px;""></div></div>","f","delaylearn","learning","trial","54258078fdf99b691fb3858e","rZfoBUHPEqW0SAhMuvwGxV33D0o2","2","images/demo_images/choice_trial_1.png","images/demo_images/choice_trial_2.png","images/demo_images/pattern_1.png","f","f","3000","1","2","20","0","4","1","1","1","30","","","","",""
"html-keyboard-response","18","30391","0.0-8.0-1.0","","null","<div style=""display: flex; flex-direction: column; align-items: center; margin-top: -40px;""><img src=""images/demo_images/pattern_1.png"" style=""width: 234px; height: 230px; margin-top: -50px;""><div style=""display: flex; justify-content: space-between; margin-top: 33px;""><img src=""images/demo_images/choice_trial_1.png"" style=""width: 408px; height: 417px; margin-right: 608px;""></div></div>","null","delaylearn","learning","display_response","54258078fdf99b691fb3858e","rZfoBUHPEqW0SAhMuvwGxV33D0o2","","","","","","","","","","","","","","","","","chosen stimuli: images/demo_images/choice_trial_1.png","","","",""
"html-keyboard-response","19","33392","0.0-8.0-2.0","","null","","null","delaylearn","learning","feedback_duration_window","54258078fdf99b691fb3858e","rZfoBUHPEqW0SAhMuvwGxV33D0o2","","","","","","","","","","","","","","","","","","3000","","",""
"html-keyboard-response","20","34894","0.0-8.0-3.0","","null","<div style='margin:auto;width: auto; font-size: 150%'><span style='font-weight: bold; font-size: 100px; color: green;'>+10 points!</span><br><br></div>","null","delaylearn","learning","feedback_image_window","54258078fdf99b691fb3858e","rZfoBUHPEqW0SAhMuvwGxV33D0o2","","","","","","","","","","","","","","","","","","","","",""
"html-keyboard-response","21","35396","0.0-9.0-0.0","","null","","null","","","mood_trial_fixation","","","","","","","","","","","","","","","","","","","","","","",""
"lmdlab-html-vas-response","22","40377","0.0-9.0-1.0","","3956","How happy are you right now?","0.8000325520833333","delaylearn","learning","mood_trial","54258078fdf99b691fb3858e","rZfoBUHPEqW0SAhMuvwGxV33D0o2","","","","","","","","","","","","","","","","","","","","[""Very unhappy"",""Very happy""]",""
"html-keyboard-response","23","41986","0.0-10.0","","null","<div style=""font-size:100px;"">+</div>","null","delaylearn","learning","ITI","54258078fdf99b691fb3858e","rZfoBUHPEqW0SAhMuvwGxV33D0o2","","","","","","","","","","","","","","","","","","","1608","",""
"html-keyboard-response","24","42665","0.0-11.0-0.0","","675","<div style=""display: flex; flex-direction: column; align-items: center; margin-top: -40px;""><img src=""images/demo_images/pattern_1.png"" style=""width: 234px; height: 230px; margin-top: -50px;""><div style=""display: flex; justify-content: space-between; margin-top: 33px;""><img src=""images/demo_images/choice_trial_2.png"" style=""width: 408px; height: 417px; margin-right: 200px;""><img src=""images/demo_images/choice_trial_1.png"" style=""width: 408px; height: 417px;""></div></div>","j","delaylearn","learning","trial","54258078fdf99b691fb3858e","rZfoBUHPEqW0SAhMuvwGxV33D0o2","2","images/demo_images/choice_trial_2.png","images/demo_images/choice_trial_1.png","images/demo_images/pattern_1.png","j","j","3000","2","1","20","1","5","1","1","1","40","","","","",""
"html-keyboard-response","25","43667","0.0-11.0-1.0","","null","<div style=""display: flex; flex-direction: column; align-items: center; margin-top: -40px;""><img src=""images/demo_images/pattern_1.png"" style=""width: 234px; height: 230px; margin-top: -50px;""><div style=""display: flex; justify-content: space-between; margin-top: 33px;""><img src=""images/demo_images/choice_trial_1.png"" style=""width: 408px; height: 417px; margin-left:608px;""></div></div>","null","delaylearn","learning","display_response","54258078fdf99b691fb3858e","rZfoBUHPEqW0SAhMuvwGxV33D0o2","","","","","","","","","","","","","","","","","chosen stimuli: images/demo_images/choice_trial_1.png","","","",""
"html-keyboard-response","26","46668","0.0-11.0-2.0","","null","","null","delaylearn","learning","feedback_duration_window","54258078fdf99b691fb3858e","rZfoBUHPEqW0SAhMuvwGxV33D0o2","","","","","","","","","","","","","","","","","","3000","","",""
"html-keyboard-response","27","48170","0.0-11.0-3.0","","null","<div style='margin:auto;width: auto; font-size: 150%'><span style='font-weight: bold; font-size: 100px; color: green;'>+10 points!</span><br><br></div>","null","delaylearn","learning","feedback_image_window","54258078fdf99b691fb3858e","rZfoBUHPEqW0SAhMuvwGxV33D0o2","","","","","","","","","","","","","","","","","","","","",""
"html-keyboard-response","28","50631","0.0-12.0","","null","<div style=""font-size:100px;"">+</div>","null","delaylearn","learning","ITI","54258078fdf99b691fb3858e","rZfoBUHPEqW0SAhMuvwGxV33D0o2","","","","","","","","","","","","","","","","","","","2460","",""
"html-keyboard-response","29","51162","0.0-13.0-0.0","","526","<div style=""display: flex; flex-direction: column; align-items: center; margin-top: -40px;""><img src=""images/demo_images/pattern_1.png"" style=""width: 234px; height: 230px; margin-top: -50px;""><div style=""display: flex; justify-content: space-between; margin-top: 33px;""><img src=""images/demo_images/choice_trial_1.png"" style=""width: 408px; height: 417px; margin-right: 200px;""><img src=""images/demo_images/choice_trial_2.png"" style=""width: 408px; height: 417px;""></div></div>","f","delaylearn","learning","trial","54258078fdf99b691fb3858e","rZfoBUHPEqW0SAhMuvwGxV33D0o2","2","images/demo_images/choice_trial_1.png","images/demo_images/choice_trial_2.png","images/demo_images/pattern_1.png","f","f","3000","1","2","20","0","6","1","1","1","50","","","","",""
"html-keyboard-response","30","52164","0.0-13.0-1.0","","null","<div style=""display: flex; flex-direction: column; align-items: center; margin-top: -40px;""><img src=""images/demo_images/pattern_1.png"" style=""width: 234px; height: 230px; margin-top: -50px;""><div style=""display: flex; justify-content: space-between; margin-top: 33px;""><img src=""images/demo_images/choice_trial_1.png"" style=""width: 408px; height: 417px; margin-right: 608px;""></div></div>","null","delaylearn","learning","display_response","54258078fdf99b691fb3858e","rZfoBUHPEqW0SAhMuvwGxV33D0o2","","","","","","","","","","","","","","","","","chosen stimuli: images/demo_images/choice_trial_1.png","","","",""
"html-keyboard-response","31","55165","0.0-13.0-2.0","","null","","null","delaylearn","learning","feedback_duration_window","54258078fdf99b691fb3858e","rZfoBUHPEqW0SAhMuvwGxV33D0o2","","","","","","","","","","","","","","","","","","3000","","",""
"html-keyboard-response","32","56668","0.0-13.0-3.0","","null","<div style='margin:auto;width: auto; font-size: 150%'><span style='font-weight: bold; font-size: 100px; color: green;'>+10 points!</span><br><br></div>","null","delaylearn","learning","feedback_image_window","54258078fdf99b691fb3858e","rZfoBUHPEqW0SAhMuvwGxV33D0o2","","","","","","","","","","","","","","","","","","","","",""
"html-keyboard-response","33","58482","0.0-14.0","","null","<div style=""font-size:100px;"">+</div>","null","delaylearn","learning","ITI","54258078fdf99b691fb3858e","rZfoBUHPEqW0SAhMuvwGxV33D0o2","","","","","","","","","","","","","","","","","","","1814","",""
"html-keyboard-response","34","59007","0.0-15.0-0.0","","521","<div style=""display: flex; flex-direction: column; align-items: center; margin-top: -40px;""><img src=""images/demo_images/pattern_1.png"" style=""width: 234px; height: 230px; margin-top: -50px;""><div style=""display: flex; justify-content: space-between; margin-top: 33px;""><img src=""images/demo_images/choice_trial_2.png"" style=""width: 408px; height: 417px; margin-right: 200px;""><img src=""images/demo_images/choice_trial_1.png"" style=""width: 408px; height: 417px;""></div></div>","j","delaylearn","learning","trial","54258078fdf99b691fb3858e","rZfoBUHPEqW0SAhMuvwGxV33D0o2","2","images/demo_images/choice_trial_2.png","images/demo_images/choice_trial_1.png","images/demo_images/pattern_1.png","j","j","3000","2","1","20","1","7","1","1","1","60","","","","",""
"html-keyboard-response","35","60010","0.0-15.0-1.0","","null","<div style=""display: flex; flex-direction: column; align-items: center; margin-top: -40px;""><img src=""images/demo_images/pattern_1.png"" style=""width: 234px; height: 230px; margin-top: -50px;""><div style=""display: flex; justify-content: space-between; margin-top: 33px;""><img src=""images/demo_images/choice_trial_1.png"" style=""width: 408px; height: 417px; margin-left:608px;""></div></div>","null","delaylearn","learning","display_response","54258078fdf99b691fb3858e","rZfoBUHPEqW0SAhMuvwGxV33D0o2","","","","","","","","","","","","","","","","","chosen stimuli: images/demo_images/choice_trial_1.png","","","",""
"html-keyboard-response","36","63011","0.0-15.0-2.0","","null","","null","delaylearn","learning","feedback_duration_window","54258078fdf99b691fb3858e","rZfoBUHPEqW0SAhMuvwGxV33D0o2","","","","","","","","","","","","","","","","","","3000","","",""
"html-keyboard-response","37","64513","0.0-15.0-3.0","","null","<div style='margin:auto;width: auto; font-size: 150%'><span style='font-weight: bold; font-size: 100px; color: green;'>+10 points!</span><br><br></div>","null","delaylearn","learning","feedback_image_window","54258078fdf99b691fb3858e","rZfoBUHPEqW0SAhMuvwGxV33D0o2","","","","","","","","","","","","","","","","","","","","",""
"html-keyboard-response","38","66119","0.0-16.0","","null","<div style=""font-size:100px;"">+</div>","null","delaylearn","learning","ITI","54258078fdf99b691fb3858e","rZfoBUHPEqW0SAhMuvwGxV33D0o2","","","","","","","","","","","","","","","","","","","1605","",""
"html-keyboard-response","39","66657","0.0-17.0-0.0","","534","<div style=""display: flex; flex-direction: column; align-items: center; margin-top: -40px;""><img src=""images/demo_images/pattern_1.png"" style=""width: 234px; height: 230px; margin-top: -50px;""><div style=""display: flex; justify-content: space-between; margin-top: 33px;""><img src=""images/demo_images/choice_trial_1.png"" style=""width: 408px; height: 417px; margin-right: 200px;""><img src=""images/demo_images/choice_trial_2.png"" style=""width: 408px; height: 417px;""></div></div>","f","delaylearn","learning","trial","54258078fdf99b691fb3858e","rZfoBUHPEqW0SAhMuvwGxV33D0o2","2","images/demo_images/choice_trial_1.png","images/demo_images/choice_trial_2.png","images/demo_images/pattern_1.png","f","f","3000","1","2","20","0","8","1","1","1","70","","","","",""
"html-keyboard-response","40","67659","0.0-17.0-1.0","","null","<div style=""display: flex; flex-direction: column; align-items: center; margin-top: -40px;""><img src=""images/demo_images/pattern_1.png"" style=""width: 234px; height: 230px; margin-top: -50px;""><div style=""display: flex; justify-content: space-between; margin-top: 33px;""><img src=""images/demo_images/choice_trial_1.png"" style=""width: 408px; height: 417px; margin-right: 608px;""></div></div>","null","delaylearn","learning","display_response","54258078fdf99b691fb3858e","rZfoBUHPEqW0SAhMuvwGxV33D0o2","","","","","","","","","","","","","","","","","chosen stimuli: images/demo_images/choice_trial_1.png","","","",""
"html-keyboard-response","41","70660","0.0-17.0-2.0","","null","","null","delaylearn","learning","feedback_duration_window","54258078fdf99b691fb3858e","rZfoBUHPEqW0SAhMuvwGxV33D0o2","","","","","","","","","","","","","","","","","","3000","","",""
"html-keyboard-response","42","72162","0.0-17.0-3.0","","null","<div style='margin:auto;width: auto; font-size: 150%'><span style='font-weight: bold; font-size: 100px; color: green;'>+10 points!</span><br><br></div>","null","delaylearn","learning","feedback_image_window","54258078fdf99b691fb3858e","rZfoBUHPEqW0SAhMuvwGxV33D0o2","","","","","","","","","","","","","","","","","","","","",""
"html-button-response","43","115544","0.0-18.0","","43379","
  <div style=""display: flex; align-items: center; justify-content: center; height: 80vh;"">
  <div>
          <img src=""images/inst_demo_finish.png"" style=""width: 80vw; height:auto;"">
          <br><br>
      </div>
      <br><br>
  </div>","0","","","","","","","","","","","","","","","","","","","","","","","","","",""
"html-keyboard-response","44","120255","0.0-19.0","","4709","
  <div style=""display: flex; align-items: center; justify-content: center; height: 80vh;"">
  <div>
          <img src=""images/inst_6.png"" style=""width: 80vw; height:auto;"">
          <br><br>
      </div>
      <br><br>
  </div>","j","","","","","","","","","","","","","","","","","","","","","","","","","",""
"html-keyboard-response","45","123257","0.0-20.0","","null","<div style=""font-size:100px;"">+</div>","null","delaylearn","learning","pre_fixation","54258078fdf99b691fb3858e","","","","","","","","","","","","","","","","","","","","","",""
"html-keyboard-response","46","125759","0.0-21.0","","null","<div style=""font-size:100px;"">+</div>","null","delaylearn","learning","ITI","54258078fdf99b691fb3858e","rZfoBUHPEqW0SAhMuvwGxV33D0o2","","","","","","","","","","","","","","","","","","","2500","",""
"html-keyboard-response","47","126991","0.0-22.0-0.0","","1228","<div style=""display: flex; flex-direction: column; align-items: center; margin-top: -40px;""><img src=""images/pattern_3.png"" style=""width: 234px; height: 230px; margin-top: -50px;""><div style=""display: flex; justify-content: space-between; margin-top: 33px;""><img src=""images/choice_trial_12.png"" style=""width: 408px; height: 417px; margin-right: 200px;""><img src=""images/choice_trial_14.png"" style=""width: 408px; height: 417px;""></div></div>","j","delaylearn","learning","trial","54258078fdf99b691fb3858e","rZfoBUHPEqW0SAhMuvwGxV33D0o2","2","images/choice_trial_12.png","images/choice_trial_14.png","images/pattern_3.png","f","f","7000","12","14","2","0","9","0","0","14","70","","","","",""
"html-keyboard-response","48","127993","0.0-22.0-1.0","","null","<div style=""display: flex; flex-direction: column; align-items: center; margin-top: -40px;""><img src=""images/pattern_3.png"" style=""width: 234px; height: 230px; margin-top: -50px;""><div style=""display: flex; justify-content: space-between; margin-top: 33px;""><img src=""images/choice_trial_14.png"" style=""width: 408px; height: 417px; margin-left:608px;""></div></div>","null","delaylearn","learning","display_response","54258078fdf99b691fb3858e","rZfoBUHPEqW0SAhMuvwGxV33D0o2","","","","","","","","","","","","","","","","","chosen stimuli: images/choice_trial_14.png","","","",""
"html-keyboard-response","49","134995","0.0-22.0-2.0","","null","","null","delaylearn","learning","feedback_duration_window","54258078fdf99b691fb3858e","rZfoBUHPEqW0SAhMuvwGxV33D0o2","","","","","","","","","","","","","","","","","","7000","","",""
"html-keyboard-response","50","136497","0.0-22.0-3.0","","null","<div style='margin:auto;width: auto; font-size: 150%'><span style='font-weight: bold; font-size: 100px; color: red;'>0 points!</span><br><br></div>","null","delaylearn","learning","feedback_image_window","54258078fdf99b691fb3858e","rZfoBUHPEqW0SAhMuvwGxV33D0o2","","","","","","","","","","","","","","","","","","","","",""
"html-keyboard-response","51","138639","0.0-23.0","","null","<div style=""font-size:100px;"">+</div>","null","delaylearn","learning","ITI","54258078fdf99b691fb3858e","rZfoBUHPEqW0SAhMuvwGxV33D0o2","","","","","","","","","","","","","","","","","","","2141","",""
"html-keyboard-response","52","139828","0.0-24.0-0.0","","1185","<div style=""display: flex; flex-direction: column; align-items: center; margin-top: -40px;""><img src=""images/pattern_7.png"" style=""width: 234px; height: 230px; margin-top: -50px;""><div style=""display: flex; justify-content: space-between; margin-top: 33px;""><img src=""images/choice_trial_15.png"" style=""width: 408px; height: 417px; margin-right: 200px;""><img src=""images/choice_trial_8.png"" style=""width: 408px; height: 417px;""></div></div>","f","delaylearn","learning","trial","54258078fdf99b691fb3858e","rZfoBUHPEqW0SAhMuvwGxV33D0o2","2","images/choice_trial_15.png","images/choice_trial_8.png","images/pattern_7.png","j","j","750","15","8","6","1","10","0","0","15","70","","","","",""
"html-keyboard-response","53","140830","0.0-24.0-1.0","","null","<div style=""display: flex; flex-direction: column; align-items: center; margin-top: -40px;""><img src=""images/pattern_7.png"" style=""width: 234px; height: 230px; margin-top: -50px;""><div style=""display: flex; justify-content: space-between; margin-top: 33px;""><img src=""images/choice_trial_15.png"" style=""width: 408px; height: 417px; margin-right: 608px;""></div></div>","null","delaylearn","learning","display_response","54258078fdf99b691fb3858e","rZfoBUHPEqW0SAhMuvwGxV33D0o2","","","","","","","","","","","","","","","","","chosen stimuli: images/choice_trial_15.png","","","",""
"html-keyboard-response","54","141581","0.0-24.0-2.0","","null","","null","delaylearn","learning","feedback_duration_window","54258078fdf99b691fb3858e","rZfoBUHPEqW0SAhMuvwGxV33D0o2","","","","","","","","","","","","","","","","","","750","","",""
"html-keyboard-response","55","143083","0.0-24.0-3.0","","null","<div style='margin:auto;width: auto; font-size: 150%'><span style='font-weight: bold; font-size: 100px; color: red;'>0 points!</span><br><br></div>","null","delaylearn","learning","feedback_image_window","54258078fdf99b691fb3858e","rZfoBUHPEqW0SAhMuvwGxV33D0o2","","","","","","","","","","","","","","","","","","","","",""
"html-keyboard-response","56","144808","0.0-25.0","","null","<div style=""font-size:100px;"">+</div>","null","delaylearn","learning","ITI","54258078fdf99b691fb3858e","rZfoBUHPEqW0SAhMuvwGxV33D0o2","","","","","","","","","","","","","","","","","","","1724","",""
"html-keyboard-response","57","146187","0.0-26.0-0.0","","1375","<div style=""display: flex; flex-direction: column; align-items: center; margin-top: -40px;""><img src=""images/pattern_4.png"" style=""width: 234px; height: 230px; margin-top: -50px;""><div style=""display: flex; justify-content: space-between; margin-top: 33px;""><img src=""images/choice_trial_4.png"" style=""width: 408px; height: 417px; margin-right: 200px;""><img src=""images/choice_trial_16.png"" style=""width: 408px; height: 417px;""></div></div>","f","delaylearn","learning","trial","54258078fdf99b691fb3858e","rZfoBUHPEqW0SAhMuvwGxV33D0o2","2","images/choice_trial_4.png","images/choice_trial_16.png","images/pattern_4.png","f","f","7000","4","16","3","0","11","1","1","4","80","","","","",""
"html-keyboard-response","58","147189","0.0-26.0-1.0","","null","<div style=""display: flex; flex-direction: column; align-items: center; margin-top: -40px;""><img src=""images/pattern_4.png"" style=""width: 234px; height: 230px; margin-top: -50px;""><div style=""display: flex; justify-content: space-between; margin-top: 33px;""><img src=""images/choice_trial_4.png"" style=""width: 408px; height: 417px; margin-right: 608px;""></div></div>","null","delaylearn","learning","display_response","54258078fdf99b691fb3858e","rZfoBUHPEqW0SAhMuvwGxV33D0o2","","","","","","","","","","","","","","","","","chosen stimuli: images/choice_trial_4.png","","","",""
"html-keyboard-response","59","154191","0.0-26.0-2.0","","null","","null","delaylearn","learning","feedback_duration_window","54258078fdf99b691fb3858e","rZfoBUHPEqW0SAhMuvwGxV33D0o2","","","","","","","","","","","","","","","","","","7000","","",""
"html-keyboard-response","60","155694","0.0-26.0-3.0","","null","<div style='margin:auto;width: auto; font-size: 150%'><span style='font-weight: bold; font-size: 100px; color: green;'>+10 points!</span><br><br></div>","null","delaylearn","learning","feedback_image_window","54258078fdf99b691fb3858e","rZfoBUHPEqW0SAhMuvwGxV33D0o2","","","","","","","","","","","","","","","","","","","","",""
"html-keyboard-response","61","157807","0.0-27.0","","null","<div style=""font-size:100px;"">+</div>","null","delaylearn","learning","ITI","54258078fdf99b691fb3858e","rZfoBUHPEqW0SAhMuvwGxV33D0o2","","","","","","","","","","","","","","","","","","","2110","",""
"html-keyboard-response","62","159298","0.0-28.0-0.0","","1487","<div style=""display: flex; flex-direction: column; align-items: center; margin-top: -40px;""><img src=""images/pattern_5.png"" style=""width: 234px; height: 230px; margin-top: -50px;""><div style=""display: flex; justify-content: space-between; margin-top: 33px;""><img src=""images/choice_trial_9.png"" style=""width: 408px; height: 417px; margin-right: 200px;""><img src=""images/choice_trial_2.png"" style=""width: 408px; height: 417px;""></div></div>","f","delaylearn","learning","trial","54258078fdf99b691fb3858e","rZfoBUHPEqW0SAhMuvwGxV33D0o2","2","images/choice_trial_9.png","images/choice_trial_2.png","images/pattern_5.png","j","j","750","9","2","4","1","12","0","0","9","80","","","","",""
"html-keyboard-response","63","160300","0.0-28.0-1.0","","null","<div style=""display: flex; flex-direction: column; align-items: center; margin-top: -40px;""><img src=""images/pattern_5.png"" style=""width: 234px; height: 230px; margin-top: -50px;""><div style=""display: flex; justify-content: space-between; margin-top: 33px;""><img src=""images/choice_trial_9.png"" style=""width: 408px; height: 417px; margin-right: 608px;""></div></div>","null","delaylearn","learning","display_response","54258078fdf99b691fb3858e","rZfoBUHPEqW0SAhMuvwGxV33D0o2","","","","","","","","","","","","","","","","","chosen stimuli: images/choice_trial_9.png","","","",""
"html-keyboard-response","64","161052","0.0-28.0-2.0","","null","","null","delaylearn","learning","feedback_duration_window","54258078fdf99b691fb3858e","rZfoBUHPEqW0SAhMuvwGxV33D0o2","","","","","","","","","","","","","","","","","","750","","",""
"html-keyboard-response","65","162554","0.0-28.0-3.0","","null","<div style='margin:auto;width: auto; font-size: 150%'><span style='font-weight: bold; font-size: 100px; color: red;'>0 points!</span><br><br></div>","null","delaylearn","learning","feedback_image_window","54258078fdf99b691fb3858e","rZfoBUHPEqW0SAhMuvwGxV33D0o2","","","","","","","","","","","","","","","","","","","","",""
"html-keyboard-response","66","164156","0.0-29.0","","null","<div style=""font-size:100px;"">+</div>","null","delaylearn","learning","ITI","54258078fdf99b691fb3858e","rZfoBUHPEqW0SAhMuvwGxV33D0o2","","","","","","","","","","","","","","","","","","","1602","",""
"html-keyboard-response","67","165502","0.0-30.0-0.0","","1342","<div style=""display: flex; flex-direction: column; align-items: center; margin-top: -40px;""><img src=""images/pattern_6.png"" style=""width: 234px; height: 230px; margin-top: -50px;""><div style=""display: flex; justify-content: space-between; margin-top: 33px;""><img src=""images/choice_trial_11.png"" style=""width: 408px; height: 417px; margin-right: 200px;""><img src=""images/choice_trial_5.png"" style=""width: 408px; height: 417px;""></div></div>","j","delaylearn","learning","trial","54258078fdf99b691fb3858e","rZfoBUHPEqW0SAhMuvwGxV33D0o2","2","images/choice_trial_11.png","images/choice_trial_5.png","images/pattern_6.png","j","f","750","11","5","5","0","13","0","1","5","90","","","","",""
"html-keyboard-response","68","166504","0.0-30.0-1.0","","null","<div style=""display: flex; flex-direction: column; align-items: center; margin-top: -40px;""><img src=""images/pattern_6.png"" style=""width: 234px; height: 230px; margin-top: -50px;""><div style=""display: flex; justify-content: space-between; margin-top: 33px;""><img src=""images/choice_trial_5.png"" style=""width: 408px; height: 417px; margin-left:608px;""></div></div>","null","delaylearn","learning","display_response","54258078fdf99b691fb3858e","rZfoBUHPEqW0SAhMuvwGxV33D0o2","","","","","","","","","","","","","","","","","chosen stimuli: images/choice_trial_5.png","","","",""
"html-keyboard-response","69","167255","0.0-30.0-2.0","","null","","null","delaylearn","learning","feedback_duration_window","54258078fdf99b691fb3858e","rZfoBUHPEqW0SAhMuvwGxV33D0o2","","","","","","","","","","","","","","","","","","750","","",""
"html-keyboard-response","70","168757","0.0-30.0-3.0","","null","<div style='margin:auto;width: auto; font-size: 150%'><span style='font-weight: bold; font-size: 100px; color: green;'>+10 points!</span><br><br></div>","null","delaylearn","learning","feedback_image_window","54258078fdf99b691fb3858e","rZfoBUHPEqW0SAhMuvwGxV33D0o2","","","","","","","","","","","","","","","","","","","","",""
"html-keyboard-response","71","169258","0.0-31.0-0.0","","null","","null","","","mood_trial_fixation","","","","","","","","","","","","","","","","","","","","","","",""
"lmdlab-html-vas-response","72","173286","0.0-31.0-1.0","","3022","How happy are you right now?","0.4633658854166667","delaylearn","learning","mood_trial","54258078fdf99b691fb3858e","rZfoBUHPEqW0SAhMuvwGxV33D0o2","","","","","","","","","","","","","","","","","","","","[""Very unhappy"",""Very happy""]",""
"html-keyboard-response","73","174942","0.0-32.0","","null","<div style=""font-size:100px;"">+</div>","null","delaylearn","learning","ITI","54258078fdf99b691fb3858e","rZfoBUHPEqW0SAhMuvwGxV33D0o2","","","","","","","","","","","","","","","","","","","1655","",""
"html-keyboard-response","74","176449","0.0-33.0-0.0","","1503","<div style=""display: flex; flex-direction: column; align-items: center; margin-top: -40px;""><img src=""images/pattern_1.png"" style=""width: 234px; height: 230px; margin-top: -50px;""><div style=""display: flex; justify-content: space-between; margin-top: 33px;""><img src=""images/choice_trial_10.png"" style=""width: 408px; height: 417px; margin-right: 200px;""><img src=""images/choice_trial_3.png"" style=""width: 408px; height: 417px;""></div></div>","j","delaylearn","learning","trial","54258078fdf99b691fb3858e","rZfoBUHPEqW0SAhMuvwGxV33D0o2","2","images/choice_trial_10.png","images/choice_trial_3.png","images/pattern_1.png","j","j","7000","10","3","1","1","14","1","1","3","100","","","","",""
"html-keyboard-response","75","177452","0.0-33.0-1.0","","null","<div style=""display: flex; flex-direction: column; align-items: center; margin-top: -40px;""><img src=""images/pattern_1.png"" style=""width: 234px; height: 230px; margin-top: -50px;""><div style=""display: flex; justify-content: space-between; margin-top: 33px;""><img src=""images/choice_trial_3.png"" style=""width: 408px; height: 417px; margin-left:608px;""></div></div>","null","delaylearn","learning","display_response","54258078fdf99b691fb3858e","rZfoBUHPEqW0SAhMuvwGxV33D0o2","","","","","","","","","","","","","","","","","chosen stimuli: images/choice_trial_3.png","","","",""
"html-keyboard-response","76","184454","0.0-33.0-2.0","","null","","null","delaylearn","learning","feedback_duration_window","54258078fdf99b691fb3858e","rZfoBUHPEqW0SAhMuvwGxV33D0o2","","","","","","","","","","","","","","","","","","7000","","",""
"html-keyboard-response","77","185956","0.0-33.0-3.0","","null","<div style='margin:auto;width: auto; font-size: 150%'><span style='font-weight: bold; font-size: 100px; color: green;'>+10 points!</span><br><br></div>","null","delaylearn","learning","feedback_image_window","54258078fdf99b691fb3858e","rZfoBUHPEqW0SAhMuvwGxV33D0o2","","","","","","","","","","","","","","","","","","","","",""
"html-keyboard-response","78","187563","0.0-34.0","","null","<div style=""font-size:100px;"">+</div>","null","delaylearn","learning","ITI","54258078fdf99b691fb3858e","rZfoBUHPEqW0SAhMuvwGxV33D0o2","","","","","","","","","","","","","","","","","","","1606","",""
"html-keyboard-response","79","188863","0.0-35.0-0.0","","1296","<div style=""display: flex; flex-direction: column; align-items: center; margin-top: -40px;""><img src=""images/pattern_3.png"" style=""width: 234px; height: 230px; margin-top: -50px;""><div style=""display: flex; justify-content: space-between; margin-top: 33px;""><img src=""images/choice_trial_14.png"" style=""width: 408px; height: 417px; margin-right: 200px;""><img src=""images/choice_trial_12.png"" style=""width: 408px; height: 417px;""></div></div>","f","delaylearn","learning","trial","54258078fdf99b691fb3858e","rZfoBUHPEqW0SAhMuvwGxV33D0o2","2","images/choice_trial_14.png","images/choice_trial_12.png","images/pattern_3.png","f","j","7000","14","12","2","1","15","0","1","14","110","","","","",""
"html-keyboard-response","80","189866","0.0-35.0-1.0","","null","<div style=""display: flex; flex-direction: column; align-items: center; margin-top: -40px;""><img src=""images/pattern_3.png"" style=""width: 234px; height: 230px; margin-top: -50px;""><div style=""display: flex; justify-content: space-between; margin-top: 33px;""><img src=""images/choice_trial_14.png"" style=""width: 408px; height: 417px; margin-right: 608px;""></div></div>","null","delaylearn","learning","display_response","54258078fdf99b691fb3858e","rZfoBUHPEqW0SAhMuvwGxV33D0o2","","","","","","","","","","","","","","","","","chosen stimuli: images/choice_trial_14.png","","","",""
"html-keyboard-response","81","196867","0.0-35.0-2.0","","null","","null","delaylearn","learning","feedback_duration_window","54258078fdf99b691fb3858e","rZfoBUHPEqW0SAhMuvwGxV33D0o2","","","","","","","","","","","","","","","","","","7000","","",""
"html-keyboard-response","82","198369","0.0-35.0-3.0","","null","<div style='margin:auto;width: auto; font-size: 150%'><span style='font-weight: bold; font-size: 100px; color: green;'>+10 points!</span><br><br></div>","null","delaylearn","learning","feedback_image_window","54258078fdf99b691fb3858e","rZfoBUHPEqW0SAhMuvwGxV33D0o2","","","","","","","","","","","","","","","","","","","","",""
"html-keyboard-response","83","200857","0.0-36.0","","null","<div style=""font-size:100px;"">+</div>","null","delaylearn","learning","ITI","54258078fdf99b691fb3858e","rZfoBUHPEqW0SAhMuvwGxV33D0o2","","","","","","","","","","","","","","","","","","","2485","",""
"html-keyboard-response","84","201718","0.0-37.0-0.0","","856","<div style=""display: flex; flex-direction: column; align-items: center; margin-top: -40px;""><img src=""images/pattern_5.png"" style=""width: 234px; height: 230px; margin-top: -50px;""><div style=""display: flex; justify-content: space-between; margin-top: 33px;""><img src=""images/choice_trial_2.png"" style=""width: 408px; height: 417px; margin-right: 200px;""><img src=""images/choice_trial_9.png"" style=""width: 408px; height: 417px;""></div></div>","j","delaylearn","learning","trial","54258078fdf99b691fb3858e","rZfoBUHPEqW0SAhMuvwGxV33D0o2","2","images/choice_trial_2.png","images/choice_trial_9.png","images/pattern_5.png","f","f","750","2","9","4","0","16","0","0","9","110","","","","",""
"html-keyboard-response","85","202720","0.0-37.0-1.0","","null","<div style=""display: flex; flex-direction: column; align-items: center; margin-top: -40px;""><img src=""images/pattern_5.png"" style=""width: 234px; height: 230px; margin-top: -50px;""><div style=""display: flex; justify-content: space-between; margin-top: 33px;""><img src=""images/choice_trial_9.png"" style=""width: 408px; height: 417px; margin-left:608px;""></div></div>","null","delaylearn","learning","display_response","54258078fdf99b691fb3858e","rZfoBUHPEqW0SAhMuvwGxV33D0o2","","","","","","","","","","","","","","","","","chosen stimuli: images/choice_trial_9.png","","","",""
"html-keyboard-response","86","203471","0.0-37.0-2.0","","null","","null","delaylearn","learning","feedback_duration_window","54258078fdf99b691fb3858e","rZfoBUHPEqW0SAhMuvwGxV33D0o2","","","","","","","","","","","","","","","","","","750","","",""
"html-keyboard-response","87","204974","0.0-37.0-3.0","","null","<div style='margin:auto;width: auto; font-size: 150%'><span style='font-weight: bold; font-size: 100px; color: red;'>0 points!</span><br><br></div>","null","delaylearn","learning","feedback_image_window","54258078fdf99b691fb3858e","rZfoBUHPEqW0SAhMuvwGxV33D0o2","","","","","","","","","","","","","","","","","","","","",""
"html-keyboard-response","88","205475","0.0-38.0-0.0","","null","","null","","","mood_trial_fixation","","","","","","","","","","","","","","","","","","","","","","",""
"lmdlab-html-vas-response","89","210304","0.0-38.0-1.0","","3823","How happy are you right now?","0.45336588541666667","delaylearn","learning","mood_trial","54258078fdf99b691fb3858e","rZfoBUHPEqW0SAhMuvwGxV33D0o2","","","","","","","","","","","","","","","","","","","","[""Very unhappy"",""Very happy""]",""
"html-keyboard-response","90","212566","0.0-39.0","","null","<div style=""font-size:100px;"">+</div>","null","delaylearn","learning","ITI","54258078fdf99b691fb3858e","rZfoBUHPEqW0SAhMuvwGxV33D0o2","","","","","","","","","","","","","","","","","","","2261","",""
"html-keyboard-response","91","213539","0.0-40.0-0.0","","968","<div style=""display: flex; flex-direction: column; align-items: center; margin-top: -40px;""><img src=""images/pattern_6.png"" style=""width: 234px; height: 230px; margin-top: -50px;""><div style=""display: flex; justify-content: space-between; margin-top: 33px;""><img src=""images/choice_trial_11.png"" style=""width: 408px; height: 417px; margin-right: 200px;""><img src=""images/choice_trial_5.png"" style=""width: 408px; height: 417px;""></div></div>","j","delaylearn","learning","trial","54258078fdf99b691fb3858e","rZfoBUHPEqW0SAhMuvwGxV33D0o2","2","images/choice_trial_11.png","images/choice_trial_5.png","images/pattern_6.png","f","f","750","11","5","5","0","17","0","0","5","110","","","","",""
"html-keyboard-response","92","214541","0.0-40.0-1.0","","null","<div style=""display: flex; flex-direction: column; align-items: center; margin-top: -40px;""><img src=""images/pattern_6.png"" style=""width: 234px; height: 230px; margin-top: -50px;""><div style=""display: flex; justify-content: space-between; margin-top: 33px;""><img src=""images/choice_trial_5.png"" style=""width: 408px; height: 417px; margin-left:608px;""></div></div>","null","delaylearn","learning","display_response","54258078fdf99b691fb3858e","rZfoBUHPEqW0SAhMuvwGxV33D0o2","","","","","","","","","","","","","","","","","chosen stimuli: images/choice_trial_5.png","","","",""
"html-keyboard-response","93","215292","0.0-40.0-2.0","","null","","null","delaylearn","learning","feedback_duration_window","54258078fdf99b691fb3858e","rZfoBUHPEqW0SAhMuvwGxV33D0o2","","","","","","","","","","","","","","","","","","750","","",""
"html-keyboard-response","94","216794","0.0-40.0-3.0","","null","<div style='margin:auto;width: auto; font-size: 150%'><span style='font-weight: bold; font-size: 100px; color: red;'>0 points!</span><br><br></div>","null","delaylearn","learning","feedback_image_window","54258078fdf99b691fb3858e","rZfoBUHPEqW0SAhMuvwGxV33D0o2","","","","","","","","","","","","","","","","","","","","",""
"html-keyboard-response","95","218357","0.0-41.0","","null","<div style=""font-size:100px;"">+</div>","null","delaylearn","learning","ITI","54258078fdf99b691fb3858e","rZfoBUHPEqW0SAhMuvwGxV33D0o2","","","","","","","","","","","","","","","","","","","1562","",""
"html-keyboard-response","96","219231","0.0-42.0-0.0","","870","<div style=""display: flex; flex-direction: column; align-items: center; margin-top: -40px;""><img src=""images/pattern_4.png"" style=""width: 234px; height: 230px; margin-top: -50px;""><div style=""display: flex; justify-content: space-between; margin-top: 33px;""><img src=""images/choice_trial_16.png"" style=""width: 408px; height: 417px; margin-right: 200px;""><img src=""images/choice_trial_4.png"" style=""width: 408px; height: 417px;""></div></div>","j","delaylearn","learning","trial","54258078fdf99b691fb3858e","rZfoBUHPEqW0SAhMuvwGxV33D0o2","2","images/choice_trial_16.png","images/choice_trial_4.png","images/pattern_4.png","j","j","7000","16","4","3","1","18","1","1","4","120","","","","",""
"html-keyboard-response","97","220235","0.0-42.0-1.0","","null","<div style=""display: flex; flex-direction: column; align-items: center; margin-top: -40px;""><img src=""images/pattern_4.png"" style=""width: 234px; height: 230px; margin-top: -50px;""><div style=""display: flex; justify-content: space-between; margin-top: 33px;""><img src=""images/choice_trial_4.png"" style=""width: 408px; height: 417px; margin-left:608px;""></div></div>","null","delaylearn","learning","display_response","54258078fdf99b691fb3858e","rZfoBUHPEqW0SAhMuvwGxV33D0o2","","","","","","","","","","","","","","","","","chosen stimuli: images/choice_trial_4.png","","","",""
"html-keyboard-response","98","227236","0.0-42.0-2.0","","null","","null","delaylearn","learning","feedback_duration_window","54258078fdf99b691fb3858e","rZfoBUHPEqW0SAhMuvwGxV33D0o2","","","","","","","","","","","","","","","","","","7000","","",""
"html-keyboard-response","99","228738","0.0-42.0-3.0","","null","<div style='margin:auto;width: auto; font-size: 150%'><span style='font-weight: bold; font-size: 100px; color: green;'>+10 points!</span><br><br></div>","null","delaylearn","learning","feedback_image_window","54258078fdf99b691fb3858e","rZfoBUHPEqW0SAhMuvwGxV33D0o2","","","","","","","","","","","","","","","","","","","","",""
"html-keyboard-response","100","230955","0.0-43.0","","null","<div style=""font-size:100px;"">+</div>","null","delaylearn","learning","ITI","54258078fdf99b691fb3858e","rZfoBUHPEqW0SAhMuvwGxV33D0o2","","","","","","","","","","","","","","","","","","","2216","",""
"html-keyboard-response","101","232028","0.0-44.0-0.0","","1069","<div style=""display: flex; flex-direction: column; align-items: center; margin-top: -40px;""><img src=""images/pattern_7.png"" style=""width: 234px; height: 230px; margin-top: -50px;""><div style=""display: flex; justify-content: space-between; margin-top: 33px;""><img src=""images/choice_trial_8.png"" style=""width: 408px; height: 417px; margin-right: 200px;""><img src=""images/choice_trial_15.png"" style=""width: 408px; height: 417px;""></div></div>","j","delaylearn","learning","trial","54258078fdf99b691fb3858e","rZfoBUHPEqW0SAhMuvwGxV33D0o2","2","images/choice_trial_8.png","images/choice_trial_15.png","images/pattern_7.png","j","f","750","8","15","6","0","19","0","1","15","130","","","","",""
"html-keyboard-response","102","233030","0.0-44.0-1.0","","null","<div style=""display: flex; flex-direction: column; align-items: center; margin-top: -40px;""><img src=""images/pattern_7.png"" style=""width: 234px; height: 230px; margin-top: -50px;""><div style=""display: flex; justify-content: space-between; margin-top: 33px;""><img src=""images/choice_trial_15.png"" style=""width: 408px; height: 417px; margin-left:608px;""></div></div>","null","delaylearn","learning","display_response","54258078fdf99b691fb3858e","rZfoBUHPEqW0SAhMuvwGxV33D0o2","","","","","","","","","","","","","","","","","chosen stimuli: images/choice_trial_15.png","","","",""
"html-keyboard-response","103","233781","0.0-44.0-2.0","","null","","null","delaylearn","learning","feedback_duration_window","54258078fdf99b691fb3858e","rZfoBUHPEqW0SAhMuvwGxV33D0o2","","","","","","","","","","","","","","","","","","750","","",""
"html-keyboard-response","104","235283","0.0-44.0-3.0","","null","<div style='margin:auto;width: auto; font-size: 150%'><span style='font-weight: bold; font-size: 100px; color: green;'>+10 points!</span><br><br></div>","null","delaylearn","learning","feedback_image_window","54258078fdf99b691fb3858e","rZfoBUHPEqW0SAhMuvwGxV33D0o2","","","","","","","","","","","","","","","","","","","","",""
"html-keyboard-response","105","236992","0.0-45.0","","null","<div style=""font-size:100px;"">+</div>","null","delaylearn","learning","ITI","54258078fdf99b691fb3858e","rZfoBUHPEqW0SAhMuvwGxV33D0o2","","","","","","","","","","","","","","","","","","","1708","",""
"html-keyboard-response","106","238073","0.0-46.0-0.0","","1076","<div style=""display: flex; flex-direction: column; align-items: center; margin-top: -40px;""><img src=""images/pattern_1.png"" style=""width: 234px; height: 230px; margin-top: -50px;""><div style=""display: flex; justify-content: space-between; margin-top: 33px;""><img src=""images/choice_trial_3.png"" style=""width: 408px; height: 417px; margin-right: 200px;""><img src=""images/choice_trial_10.png"" style=""width: 408px; height: 417px;""></div></div>","f","delaylearn","learning","trial","54258078fdf99b691fb3858e","rZfoBUHPEqW0SAhMuvwGxV33D0o2","2","images/choice_trial_3.png","images/choice_trial_10.png","images/pattern_1.png","f","f","7000","3","10","1","0","20","1","1","3","140","","","","",""
"html-keyboard-response","107","239076","0.0-46.0-1.0","","null","<div style=""display: flex; flex-direction: column; align-items: center; margin-top: -40px;""><img src=""images/pattern_1.png"" style=""width: 234px; height: 230px; margin-top: -50px;""><div style=""display: flex; justify-content: space-between; margin-top: 33px;""><img src=""images/choice_trial_3.png"" style=""width: 408px; height: 417px; margin-right: 608px;""></div></div>","null","delaylearn","learning","display_response","54258078fdf99b691fb3858e","rZfoBUHPEqW0SAhMuvwGxV33D0o2","","","","","","","","","","","","","","","","","chosen stimuli: images/choice_trial_3.png","","","",""
"html-keyboard-response","108","246077","0.0-46.0-2.0","","null","","null","delaylearn","learning","feedback_duration_window","54258078fdf99b691fb3858e","rZfoBUHPEqW0SAhMuvwGxV33D0o2","","","","","","","","","","","","","","","","","","7000","","",""
"html-keyboard-response","109","247579","0.0-46.0-3.0","","null","<div style='margin:auto;width: auto; font-size: 150%'><span style='font-weight: bold; font-size: 100px; color: green;'>+10 points!</span><br><br></div>","null","delaylearn","learning","feedback_image_window","54258078fdf99b691fb3858e","rZfoBUHPEqW0SAhMuvwGxV33D0o2","","","","","","","","","","","","","","","","","","","","",""
"html-keyboard-response","110","249462","0.0-47.0","","null","<div style=""font-size:100px;"">+</div>","null","delaylearn","learning","ITI","54258078fdf99b691fb3858e","rZfoBUHPEqW0SAhMuvwGxV33D0o2","","","","","","","","","","","","","","","","","","","1882","",""
"html-keyboard-response","111","250437","0.0-48.0-0.0","","971","<div style=""display: flex; flex-direction: column; align-items: center; margin-top: -40px;""><img src=""images/pattern_6.png"" style=""width: 234px; height: 230px; margin-top: -50px;""><div style=""display: flex; justify-content: space-between; margin-top: 33px;""><img src=""images/choice_trial_5.png"" style=""width: 408px; height: 417px; margin-right: 200px;""><img src=""images/choice_trial_11.png"" style=""width: 408px; height: 417px;""></div></div>","f","delaylearn","learning","trial","54258078fdf99b691fb3858e","rZfoBUHPEqW0SAhMuvwGxV33D0o2","2","images/choice_trial_5.png","images/choice_trial_11.png","images/pattern_6.png","j","j","750","5","11","5","1","21","0","0","5","140","","","","",""
"html-keyboard-response","112","251440","0.0-48.0-1.0","","null","<div style=""display: flex; flex-direction: column; align-items: center; margin-top: -40px;""><img src=""images/pattern_6.png"" style=""width: 234px; height: 230px; margin-top: -50px;""><div style=""display: flex; justify-content: space-between; margin-top: 33px;""><img src=""images/choice_trial_5.png"" style=""width: 408px; height: 417px; margin-right: 608px;""></div></div>","null","delaylearn","learning","display_response","54258078fdf99b691fb3858e","rZfoBUHPEqW0SAhMuvwGxV33D0o2","","","","","","","","","","","","","","","","","chosen stimuli: images/choice_trial_5.png","","","",""
"html-keyboard-response","113","252191","0.0-48.0-2.0","","null","","null","delaylearn","learning","feedback_duration_window","54258078fdf99b691fb3858e","rZfoBUHPEqW0SAhMuvwGxV33D0o2","","","","","","","","","","","","","","","","","","750","","",""
"html-keyboard-response","114","253692","0.0-48.0-3.0","","null","<div style='margin:auto;width: auto; font-size: 150%'><span style='font-weight: bold; font-size: 100px; color: red;'>0 points!</span><br><br></div>","null","delaylearn","learning","feedback_image_window","54258078fdf99b691fb3858e","rZfoBUHPEqW0SAhMuvwGxV33D0o2","","","","","","","","","","","","","","","","","","","","",""
"html-keyboard-response","115","255288","0.0-49.0","","null","<div style=""font-size:100px;"">+</div>","null","delaylearn","learning","ITI","54258078fdf99b691fb3858e","rZfoBUHPEqW0SAhMuvwGxV33D0o2","","","","","","","","","","","","","","","","","","","1595","",""
"html-keyboard-response","116","256855","0.0-50.0-0.0","","1561","<div style=""display: flex; flex-direction: column; align-items: center; margin-top: -40px;""><img src=""images/pattern_4.png"" style=""width: 234px; height: 230px; margin-top: -50px;""><div style=""display: flex; justify-content: space-between; margin-top: 33px;""><img src=""images/choice_trial_4.png"" style=""width: 408px; height: 417px; margin-right: 200px;""><img src=""images/choice_trial_16.png"" style=""width: 408px; height: 417px;""></div></div>","f","delaylearn","learning","trial","54258078fdf99b691fb3858e","rZfoBUHPEqW0SAhMuvwGxV33D0o2","2","images/choice_trial_4.png","images/choice_trial_16.png","images/pattern_4.png","f","f","7000","4","16","3","0","22","1","1","4","150","","","","",""
"html-keyboard-response","117","257857","0.0-50.0-1.0","","null","<div style=""display: flex; flex-direction: column; align-items: center; margin-top: -40px;""><img src=""images/pattern_4.png"" style=""width: 234px; height: 230px; margin-top: -50px;""><div style=""display: flex; justify-content: space-between; margin-top: 33px;""><img src=""images/choice_trial_4.png"" style=""width: 408px; height: 417px; margin-right: 608px;""></div></div>","null","delaylearn","learning","display_response","54258078fdf99b691fb3858e","rZfoBUHPEqW0SAhMuvwGxV33D0o2","","","","","","","","","","","","","","","","","chosen stimuli: images/choice_trial_4.png","","","",""
"html-keyboard-response","118","264860","0.0-50.0-2.0","","null","","null","delaylearn","learning","feedback_duration_window","54258078fdf99b691fb3858e","rZfoBUHPEqW0SAhMuvwGxV33D0o2","","","","","","","","","","","","","","","","","","7000","","",""
"html-keyboard-response","119","266363","0.0-50.0-3.0","","null","<div style='margin:auto;width: auto; font-size: 150%'><span style='font-weight: bold; font-size: 100px; color: green;'>+10 points!</span><br><br></div>","null","delaylearn","learning","feedback_image_window","54258078fdf99b691fb3858e","rZfoBUHPEqW0SAhMuvwGxV33D0o2","","","","","","","","","","","","","","","","","","","","",""
"html-keyboard-response","120","266863","0.0-51.0-0.0","","null","","null","","","mood_trial_fixation","","","","","","","","","","","","","","","","","","","","","","",""
"lmdlab-html-vas-response","121","271761","0.0-51.0-1.0","","3891","How happy are you right now?","0.6250325520833333","delaylearn","learning","mood_trial","54258078fdf99b691fb3858e","rZfoBUHPEqW0SAhMuvwGxV33D0o2","","","","","","","","","","","","","","","","","","","","[""Very unhappy"",""Very happy""]",""
"html-keyboard-response","122","273876","0.0-52.0","","null","<div style=""font-size:100px;"">+</div>","null","delaylearn","learning","ITI","54258078fdf99b691fb3858e","rZfoBUHPEqW0SAhMuvwGxV33D0o2","","","","","","","","","","","","","","","","","","","2114","",""
"html-keyboard-response","123","275235","0.0-53.0-0.0","","1354","<div style=""display: flex; flex-direction: column; align-items: center; margin-top: -40px;""><img src=""images/pattern_7.png"" style=""width: 234px; height: 230px; margin-top: -50px;""><div style=""display: flex; justify-content: space-between; margin-top: 33px;""><img src=""images/choice_trial_15.png"" style=""width: 408px; height: 417px; margin-right: 200px;""><img src=""images/choice_trial_8.png"" style=""width: 408px; height: 417px;""></div></div>","j","delaylearn","learning","trial","54258078fdf99b691fb3858e","rZfoBUHPEqW0SAhMuvwGxV33D0o2","2","images/choice_trial_15.png","images/choice_trial_8.png","images/pattern_7.png","j","j","750","15","8","6","1","23","1","1","8","160","","","","",""
"html-keyboard-response","124","276238","0.0-53.0-1.0","","null","<div style=""display: flex; flex-direction: column; align-items: center; margin-top: -40px;""><img src=""images/pattern_7.png"" style=""width: 234px; height: 230px; margin-top: -50px;""><div style=""display: flex; justify-content: space-between; margin-top: 33px;""><img src=""images/choice_trial_8.png"" style=""width: 408px; height: 417px; margin-left:608px;""></div></div>","null","delaylearn","learning","display_response","54258078fdf99b691fb3858e","rZfoBUHPEqW0SAhMuvwGxV33D0o2","","","","","","","","","","","","","","","","","chosen stimuli: images/choice_trial_8.png","","","",""
"html-keyboard-response","125","276988","0.0-53.0-2.0","","null","","null","delaylearn","learning","feedback_duration_window","54258078fdf99b691fb3858e","rZfoBUHPEqW0SAhMuvwGxV33D0o2","","","","","","","","","","","","","","","","","","750","","",""
"html-keyboard-response","126","278490","0.0-53.0-3.0","","null","<div style='margin:auto;width: auto; font-size: 150%'><span style='font-weight: bold; font-size: 100px; color: green;'>+10 points!</span><br><br></div>","null","delaylearn","learning","feedback_image_window","54258078fdf99b691fb3858e","rZfoBUHPEqW0SAhMuvwGxV33D0o2","","","","","","","","","","","","","","","","","","","","",""
"html-keyboard-response","127","280589","0.0-54.0","","null","<div style=""font-size:100px;"">+</div>","null","delaylearn","learning","ITI","54258078fdf99b691fb3858e","rZfoBUHPEqW0SAhMuvwGxV33D0o2","","","","","","","","","","","","","","","","","","","2098","",""
"html-keyboard-response","128","281632","0.0-55.0-0.0","","1038","<div style=""display: flex; flex-direction: column; align-items: center; margin-top: -40px;""><img src=""images/pattern_1.png"" style=""width: 234px; height: 230px; margin-top: -50px;""><div style=""display: flex; justify-content: space-between; margin-top: 33px;""><img src=""images/choice_trial_10.png"" style=""width: 408px; height: 417px; margin-right: 200px;""><img src=""images/choice_trial_3.png"" style=""width: 408px; height: 417px;""></div></div>","j","delaylearn","learning","trial","54258078fdf99b691fb3858e","rZfoBUHPEqW0SAhMuvwGxV33D0o2","2","images/choice_trial_10.png","images/choice_trial_3.png","images/pattern_1.png","f","j","7000","10","3","1","1","24","1","0","3","160","","","","",""
"html-keyboard-response","129","282634","0.0-55.0-1.0","","null","<div style=""display: flex; flex-direction: column; align-items: center; margin-top: -40px;""><img src=""images/pattern_1.png"" style=""width: 234px; height: 230px; margin-top: -50px;""><div style=""display: flex; justify-content: space-between; margin-top: 33px;""><img src=""images/choice_trial_3.png"" style=""width: 408px; height: 417px; margin-left:608px;""></div></div>","null","delaylearn","learning","display_response","54258078fdf99b691fb3858e","rZfoBUHPEqW0SAhMuvwGxV33D0o2","","","","","","","","","","","","","","","","","chosen stimuli: images/choice_trial_3.png","","","",""
"html-keyboard-response","130","289636","0.0-55.0-2.0","","null","","null","delaylearn","learning","feedback_duration_window","54258078fdf99b691fb3858e","rZfoBUHPEqW0SAhMuvwGxV33D0o2","","","","","","","","","","","","","","","","","","7000","","",""
"html-keyboard-response","131","291138","0.0-55.0-3.0","","null","<div style='margin:auto;width: auto; font-size: 150%'><span style='font-weight: bold; font-size: 100px; color: red;'>0 points!</span><br><br></div>","null","delaylearn","learning","feedback_image_window","54258078fdf99b691fb3858e","rZfoBUHPEqW0SAhMuvwGxV33D0o2","","","","","","","","","","","","","","","","","","","","",""
"html-keyboard-response","132","292721","0.0-56.0","","null","<div style=""font-size:100px;"">+</div>","null","delaylearn","learning","ITI","54258078fdf99b691fb3858e","rZfoBUHPEqW0SAhMuvwGxV33D0o2","","","","","","","","","","","","","","","","","","","1582","",""
"html-keyboard-response","133","293840","0.0-57.0-0.0","","1114","<div style=""display: flex; flex-direction: column; align-items: center; margin-top: -40px;""><img src=""images/pattern_5.png"" style=""width: 234px; height: 230px; margin-top: -50px;""><div style=""display: flex; justify-content: space-between; margin-top: 33px;""><img src=""images/choice_trial_9.png"" style=""width: 408px; height: 417px; margin-right: 200px;""><img src=""images/choice_trial_2.png"" style=""width: 408px; height: 417px;""></div></div>","f","delaylearn","learning","trial","54258078fdf99b691fb3858e","rZfoBUHPEqW0SAhMuvwGxV33D0o2","2","images/choice_trial_9.png","images/choice_trial_2.png","images/pattern_5.png","j","j","750","9","2","4","1","25","0","0","9","160","","","","",""
"html-keyboard-response","134","294843","0.0-57.0-1.0","","null","<div style=""display: flex; flex-direction: column; align-items: center; margin-top: -40px;""><img src=""images/pattern_5.png"" style=""width: 234px; height: 230px; margin-top: -50px;""><div style=""display: flex; justify-content: space-between; margin-top: 33px;""><img src=""images/choice_trial_9.png"" style=""width: 408px; height: 417px; margin-right: 608px;""></div></div>","null","delaylearn","learning","display_response","54258078fdf99b691fb3858e","rZfoBUHPEqW0SAhMuvwGxV33D0o2","","","","","","","","","","","","","","","","","chosen stimuli: images/choice_trial_9.png","","","",""
"html-keyboard-response","135","295594","0.0-57.0-2.0","","null","","null","delaylearn","learning","feedback_duration_window","54258078fdf99b691fb3858e","rZfoBUHPEqW0SAhMuvwGxV33D0o2","","","","","","","","","","","","","","","","","","750","","",""
"html-keyboard-response","136","297097","0.0-57.0-3.0","","null","<div style='margin:auto;width: auto; font-size: 150%'><span style='font-weight: bold; font-size: 100px; color: red;'>0 points!</span><br><br></div>","null","delaylearn","learning","feedback_image_window","54258078fdf99b691fb3858e","rZfoBUHPEqW0SAhMuvwGxV33D0o2","","","","","","","","","","","","","","","","","","","","",""
"html-keyboard-response","137","299376","0.0-58.0","","null","<div style=""font-size:100px;"">+</div>","null","delaylearn","learning","ITI","54258078fdf99b691fb3858e","rZfoBUHPEqW0SAhMuvwGxV33D0o2","","","","","","","","","","","","","","","","","","","2276","",""
"html-keyboard-response","138","300487","0.0-59.0-0.0","","1107","<div style=""display: flex; flex-direction: column; align-items: center; margin-top: -40px;""><img src=""images/pattern_3.png"" style=""width: 234px; height: 230px; margin-top: -50px;""><div style=""display: flex; justify-content: space-between; margin-top: 33px;""><img src=""images/choice_trial_14.png"" style=""width: 408px; height: 417px; margin-right: 200px;""><img src=""images/choice_trial_12.png"" style=""width: 408px; height: 417px;""></div></div>","f","delaylearn","learning","trial","54258078fdf99b691fb3858e","rZfoBUHPEqW0SAhMuvwGxV33D0o2","2","images/choice_trial_14.png","images/choice_trial_12.png","images/pattern_3.png","j","j","7000","14","12","2","1","26","0","0","14","160","","","","",""
"html-keyboard-response","139","301489","0.0-59.0-1.0","","null","<div style=""display: flex; flex-direction: column; align-items: center; margin-top: -40px;""><img src=""images/pattern_3.png"" style=""width: 234px; height: 230px; margin-top: -50px;""><div style=""display: flex; justify-content: space-between; margin-top: 33px;""><img src=""images/choice_trial_14.png"" style=""width: 408px; height: 417px; margin-right: 608px;""></div></div>","null","delaylearn","learning","display_response","54258078fdf99b691fb3858e","rZfoBUHPEqW0SAhMuvwGxV33D0o2","","","","","","","","","","","","","","","","","chosen stimuli: images/choice_trial_14.png","","","",""
"html-keyboard-response","140","308490","0.0-59.0-2.0","","null","","null","delaylearn","learning","feedback_duration_window","54258078fdf99b691fb3858e","rZfoBUHPEqW0SAhMuvwGxV33D0o2","","","","","","","","","","","","","","","","","","7000","","",""
"html-keyboard-response","141","309993","0.0-59.0-3.0","","null","<div style='margin:auto;width: auto; font-size: 150%'><span style='font-weight: bold; font-size: 100px; color: red;'>0 points!</span><br><br></div>","null","delaylearn","learning","feedback_image_window","54258078fdf99b691fb3858e","rZfoBUHPEqW0SAhMuvwGxV33D0o2","","","","","","","","","","","","","","","","","","","","",""
"lmdlab-html-vas-response","142","315772","0.0-60.0-0.0","","4257","*How <b><u>confident</u></b> are you feeling about your answers at this moment?*","0.33666666666666667","rewlearn","rate_confidence","","54258078fdf99b691fb3858e","rZfoBUHPEqW0SAhMuvwGxV33D0o2","","","","","","","","","","","","","","","","","","","","[""No confidence"",""Complete confidence""]",""
"lmdlab-rest-trial-limit","143","326929","0.0-60.0-1.0","","9653","<div style=""font-size:40px;""><b>Please take a break!</b><br><br><br><br><p>Great work: you earned 160 points.<br><br><br><p>You have completed part(s) 1 of 5.<br><br><br><br>When you are ready to continue<br><br><br>please click the button.</p><br><br>","0","delaylearn","learning","break","54258078fdf99b691fb3858e","rZfoBUHPEqW0SAhMuvwGxV33D0o2","","","","","","","","","","","","","","","","","","","","","0"
"html-keyboard-response","144","329931","0.0-60.0-2.0","","null","<div style=""font-size:100px;"">+</div>","null","delaylearn","learning","pre_fixation","54258078fdf99b691fb3858e","","","","","","","","","","","","","","","","","","","","","",""
"lmdlab-html-vas-response","145","334620","0.0-60.0-3.0-0.0","","3684","How happy are you right now?","0.5200325520833333","delaylearn","learning","mood_baseline","54258078fdf99b691fb3858e","rZfoBUHPEqW0SAhMuvwGxV33D0o2","","","","","","","","","","","","","","","","","","","","[""Very unhappy"",""Very happy""]",""
"html-keyboard-response","146","336121","0.0-60.0-3.0-1.0","","null","","null","","","mood_baseline_fixation","","","","","","","","","","","","","","","","","","","","","","",""
"html-keyboard-response","147","338375","0.0-61.0","","null","<div style=""font-size:100px;"">+</div>","null","delaylearn","learning","ITI","54258078fdf99b691fb3858e","rZfoBUHPEqW0SAhMuvwGxV33D0o2","","","","","","","","","","","","","","","","","","","2254","",""
"html-keyboard-response","148","339641","0.0-62.0-0.0","","1260","<div style=""display: flex; flex-direction: column; align-items: center; margin-top: -40px;""><img src=""images/pattern_7.png"" style=""width: 234px; height: 230px; margin-top: -50px;""><div style=""display: flex; justify-content: space-between; margin-top: 33px;""><img src=""images/choice_trial_15.png"" style=""width: 408px; height: 417px; margin-right: 200px;""><img src=""images/choice_trial_8.png"" style=""width: 408px; height: 417px;""></div></div>","j","delaylearn","learning","trial","54258078fdf99b691fb3858e","rZfoBUHPEqW0SAhMuvwGxV33D0o2","2","images/choice_trial_15.png","images/choice_trial_8.png","images/pattern_7.png","j","j","750","15","8","6","1","27","1","1","8","170","","","","",""
"html-keyboard-response","149","340642","0.0-62.0-1.0","","null","<div style=""display: flex; flex-direction: column; align-items: center; margin-top: -40px;""><img src=""images/pattern_7.png"" style=""width: 234px; height: 230px; margin-top: -50px;""><div style=""display: flex; justify-content: space-between; margin-top: 33px;""><img src=""images/choice_trial_8.png"" style=""width: 408px; height: 417px; margin-left:608px;""></div></div>","null","delaylearn","learning","display_response","54258078fdf99b691fb3858e","rZfoBUHPEqW0SAhMuvwGxV33D0o2","","","","","","","","","","","","","","","","","chosen stimuli: images/choice_trial_8.png","","","",""
"html-keyboard-response","150","341394","0.0-62.0-2.0","","null","","null","delaylearn","learning","feedback_duration_window","54258078fdf99b691fb3858e","rZfoBUHPEqW0SAhMuvwGxV33D0o2","","","","","","","","","","","","","","","","","","750","","",""
"html-keyboard-response","151","342895","0.0-62.0-3.0","","null","<div style='margin:auto;width: auto; font-size: 150%'><span style='font-weight: bold; font-size: 100px; color: green;'>+10 points!</span><br><br></div>","null","delaylearn","learning","feedback_image_window","54258078fdf99b691fb3858e","rZfoBUHPEqW0SAhMuvwGxV33D0o2","","","","","","","","","","","","","","","","","","","","",""
"html-keyboard-response","152","343396","0.0-63.0-0.0","","null","","null","","","mood_trial_fixation","","","","","","","","","","","","","","","","","","","","","","",""
"lmdlab-html-vas-response","153","347617","0.0-63.0-1.0","","3215","How happy are you right now?","0.61669921875","delaylearn","learning","mood_trial","54258078fdf99b691fb3858e","rZfoBUHPEqW0SAhMuvwGxV33D0o2","","","","","","","","","","","","","","","","","","","","[""Very unhappy"",""Very happy""]",""
"html-keyboard-response","154","350115","0.0-64.0","","null","<div style=""font-size:100px;"">+</div>","null","delaylearn","learning","ITI","54258078fdf99b691fb3858e","rZfoBUHPEqW0SAhMuvwGxV33D0o2","","","","","","","","","","","","","","","","","","","2497","",""
"html-keyboard-response","155","351453","0.0-65.0-0.0","","1333","<div style=""display: flex; flex-direction: column; align-items: center; margin-top: -40px;""><img src=""images/pattern_1.png"" style=""width: 234px; height: 230px; margin-top: -50px;""><div style=""display: flex; justify-content: space-between; margin-top: 33px;""><img src=""images/choice_trial_3.png"" style=""width: 408px; height: 417px; margin-right: 200px;""><img src=""images/choice_trial_10.png"" style=""width: 408px; height: 417px;""></div></div>","f","delaylearn","learning","trial","54258078fdf99b691fb3858e","rZfoBUHPEqW0SAhMuvwGxV33D0o2","2","images/choice_trial_3.png","images/choice_trial_10.png","images/pattern_1.png","f","f","7000","3","10","1","0","28","1","1","3","180","","","","",""
"html-keyboard-response","156","352455","0.0-65.0-1.0","","null","<div style=""display: flex; flex-direction: column; align-items: center; margin-top: -40px;""><img src=""images/pattern_1.png"" style=""width: 234px; height: 230px; margin-top: -50px;""><div style=""display: flex; justify-content: space-between; margin-top: 33px;""><img src=""images/choice_trial_3.png"" style=""width: 408px; height: 417px; margin-right: 608px;""></div></div>","null","delaylearn","learning","display_response","54258078fdf99b691fb3858e","rZfoBUHPEqW0SAhMuvwGxV33D0o2","","","","","","","","","","","","","","","","","chosen stimuli: images/choice_trial_3.png","","","",""
"html-keyboard-response","157","359456","0.0-65.0-2.0","","null","","null","delaylearn","learning","feedback_duration_window","54258078fdf99b691fb3858e","rZfoBUHPEqW0SAhMuvwGxV33D0o2","","","","","","","","","","","","","","","","","","7000","","",""
"html-keyboard-response","158","360958","0.0-65.0-3.0","","null","<div style='margin:auto;width: auto; font-size: 150%'><span style='font-weight: bold; font-size: 100px; color: green;'>+10 points!</span><br><br></div>","null","delaylearn","learning","feedback_image_window","54258078fdf99b691fb3858e","rZfoBUHPEqW0SAhMuvwGxV33D0o2","","","","","","","","","","","","","","","","","","","","",""
"html-keyboard-response","159","363154","0.0-66.0","","null","<div style=""font-size:100px;"">+</div>","null","delaylearn","learning","ITI","54258078fdf99b691fb3858e","rZfoBUHPEqW0SAhMuvwGxV33D0o2","","","","","","","","","","","","","","","","","","","2195","",""
"html-keyboard-response","160","364297","0.0-67.0-0.0","","1138","<div style=""display: flex; flex-direction: column; align-items: center; margin-top: -40px;""><img src=""images/pattern_5.png"" style=""width: 234px; height: 230px; margin-top: -50px;""><div style=""display: flex; justify-content: space-between; margin-top: 33px;""><img src=""images/choice_trial_2.png"" style=""width: 408px; height: 417px; margin-right: 200px;""><img src=""images/choice_trial_9.png"" style=""width: 408px; height: 417px;""></div></div>","j","delaylearn","learning","trial","54258078fdf99b691fb3858e","rZfoBUHPEqW0SAhMuvwGxV33D0o2","2","images/choice_trial_2.png","images/choice_trial_9.png","images/pattern_5.png","f","f","750","2","9","4","0","29","0","0","9","180","","","","",""
"html-keyboard-response","161","365300","0.0-67.0-1.0","","null","<div style=""display: flex; flex-direction: column; align-items: center; margin-top: -40px;""><img src=""images/pattern_5.png"" style=""width: 234px; height: 230px; margin-top: -50px;""><div style=""display: flex; justify-content: space-between; margin-top: 33px;""><img src=""images/choice_trial_9.png"" style=""width: 408px; height: 417px; margin-left:608px;""></div></div>","null","delaylearn","learning","display_response","54258078fdf99b691fb3858e","rZfoBUHPEqW0SAhMuvwGxV33D0o2","","","","","","","","","","","","","","","","","chosen stimuli: images/choice_trial_9.png","","","",""
"html-keyboard-response","162","366050","0.0-67.0-2.0","","null","","null","delaylearn","learning","feedback_duration_window","54258078fdf99b691fb3858e","rZfoBUHPEqW0SAhMuvwGxV33D0o2","","","","","","","","","","","","","","","","","","750","","",""
"html-keyboard-response","163","367552","0.0-67.0-3.0","","null","<div style='margin:auto;width: auto; font-size: 150%'><span style='font-weight: bold; font-size: 100px; color: red;'>0 points!</span><br><br></div>","null","delaylearn","learning","feedback_image_window","54258078fdf99b691fb3858e","rZfoBUHPEqW0SAhMuvwGxV33D0o2","","","","","","","","","","","","","","","","","","","","",""
"html-keyboard-response","164","369666","0.0-68.0","","null","<div style=""font-size:100px;"">+</div>","null","delaylearn","learning","ITI","54258078fdf99b691fb3858e","rZfoBUHPEqW0SAhMuvwGxV33D0o2","","","","","","","","","","","","","","","","","","","2113","",""
"html-keyboard-response","165","370378","0.0-69.0-0.0","","707","<div style=""display: flex; flex-direction: column; align-items: center; margin-top: -40px;""><img src=""images/pattern_6.png"" style=""width: 234px; height: 230px; margin-top: -50px;""><div style=""display: flex; justify-content: space-between; margin-top: 33px;""><img src=""images/choice_trial_5.png"" style=""width: 408px; height: 417px; margin-right: 200px;""><img src=""images/choice_trial_11.png"" style=""width: 408px; height: 417px;""></div></div>","f","delaylearn","learning","trial","54258078fdf99b691fb3858e","rZfoBUHPEqW0SAhMuvwGxV33D0o2","2","images/choice_trial_5.png","images/choice_trial_11.png","images/pattern_6.png","j","j","750","5","11","5","1","30","0","0","5","180","","","","",""
"html-keyboard-response","166","371380","0.0-69.0-1.0","","null","<div style=""display: flex; flex-direction: column; align-items: center; margin-top: -40px;""><img src=""images/pattern_6.png"" style=""width: 234px; height: 230px; margin-top: -50px;""><div style=""display: flex; justify-content: space-between; margin-top: 33px;""><img src=""images/choice_trial_5.png"" style=""width: 408px; height: 417px; margin-right: 608px;""></div></div>","null","delaylearn","learning","display_response","54258078fdf99b691fb3858e","rZfoBUHPEqW0SAhMuvwGxV33D0o2","","","","","","","","","","","","","","","","","chosen stimuli: images/choice_trial_5.png","","","",""
"html-keyboard-response","167","372131","0.0-69.0-2.0","","null","","null","delaylearn","learning","feedback_duration_window","54258078fdf99b691fb3858e","rZfoBUHPEqW0SAhMuvwGxV33D0o2","","","","","","","","","","","","","","","","","","750","","",""
"html-keyboard-response","168","373631","0.0-69.0-3.0","","null","<div style='margin:auto;width: auto; font-size: 150%'><span style='font-weight: bold; font-size: 100px; color: red;'>0 points!</span><br><br></div>","null","delaylearn","learning","feedback_image_window","54258078fdf99b691fb3858e","rZfoBUHPEqW0SAhMuvwGxV33D0o2","","","","","","","","","","","","","","","","","","","","",""
"html-keyboard-response","169","374132","0.0-70.0-0.0","","null","","null","","","mood_trial_fixation","","","","","","","","","","","","","","","","","","","","","","",""
"lmdlab-html-vas-response","170","378291","0.0-70.0-1.0","","3153","How happy are you right now?","0.38836588541666667","delaylearn","learning","mood_trial","54258078fdf99b691fb3858e","rZfoBUHPEqW0SAhMuvwGxV33D0o2","","","","","","","","","","","","","","","","","","","","[""Very unhappy"",""Very happy""]",""
"html-keyboard-response","171","379856","0.0-71.0","","null","<div style=""font-size:100px;"">+</div>","null","delaylearn","learning","ITI","54258078fdf99b691fb3858e","rZfoBUHPEqW0SAhMuvwGxV33D0o2","","","","","","","","","","","","","","","","","","","1563","",""
"html-keyboard-response","172","382860","0.0-72.0-0.0","","null","<div style=""display: flex; flex-direction: column; align-items: center; margin-top: -40px;""><img src=""images/pattern_4.png"" style=""width: 234px; height: 230px; margin-top: -50px;""><div style=""display: flex; justify-content: space-between; margin-top: 33px;""><img src=""images/choice_trial_16.png"" style=""width: 408px; height: 417px; margin-right: 200px;""><img src=""images/choice_trial_4.png"" style=""width: 408px; height: 417px;""></div></div>","null","delaylearn","learning","trial","54258078fdf99b691fb3858e","rZfoBUHPEqW0SAhMuvwGxV33D0o2","2","images/choice_trial_16.png","images/choice_trial_4.png","images/pattern_4.png","j","j","7000","16","4","3","1","31","0","0","0","180","","","","",""
"html-keyboard-response","173","383862","0.0-72.0-1.0","","null","<div style='font-weight: bold; font-size: 75px; color: red;'>Missed Trial <br><br><br><br> Please respond faster</div>","null","delaylearn","learning","display_response","54258078fdf99b691fb3858e","rZfoBUHPEqW0SAhMuvwGxV33D0o2","","","","","","","","","","","","","","","","","Missed trial","","","",""
"html-keyboard-response","174","383868","0.0-72.0-2.0","","null","","null","delaylearn","learning","feedback_duration_window","54258078fdf99b691fb3858e","rZfoBUHPEqW0SAhMuvwGxV33D0o2","","","","","","","","","","","","","","","","","","0","","",""
"html-keyboard-response","175","383873","0.0-72.0-3.0","","null","","null","delaylearn","learning","feedback_image_window","54258078fdf99b691fb3858e","rZfoBUHPEqW0SAhMuvwGxV33D0o2","","","","","","","","","","","","","","","","","","","","",""
"html-keyboard-response","176","386287","0.0-73.0","","null","<div style=""font-size:100px;"">+</div>","null","delaylearn","learning","ITI","54258078fdf99b691fb3858e","rZfoBUHPEqW0SAhMuvwGxV33D0o2","","","","","","","","","","","","","","","","","","","2412","",""
"html-keyboard-response","177","388467","0.0-74.0-0.0","","2176","<div style=""display: flex; flex-direction: column; align-items: center; margin-top: -40px;""><img src=""images/pattern_3.png"" style=""width: 234px; height: 230px; margin-top: -50px;""><div style=""display: flex; justify-content: space-between; margin-top: 33px;""><img src=""images/choice_trial_14.png"" style=""width: 408px; height: 417px; margin-right: 200px;""><img src=""images/choice_trial_12.png"" style=""width: 408px; height: 417px;""></div></div>","f","delaylearn","learning","trial","54258078fdf99b691fb3858e","rZfoBUHPEqW0SAhMuvwGxV33D0o2","2","images/choice_trial_14.png","images/choice_trial_12.png","images/pattern_3.png","j","j","7000","14","12","2","1","32","0","0","14","180","","","","",""
"html-keyboard-response","178","389469","0.0-74.0-1.0","","null","<div style=""display: flex; flex-direction: column; align-items: center; margin-top: -40px;""><img src=""images/pattern_3.png"" style=""width: 234px; height: 230px; margin-top: -50px;""><div style=""display: flex; justify-content: space-between; margin-top: 33px;""><img src=""images/choice_trial_14.png"" style=""width: 408px; height: 417px; margin-right: 608px;""></div></div>","null","delaylearn","learning","display_response","54258078fdf99b691fb3858e","rZfoBUHPEqW0SAhMuvwGxV33D0o2","","","","","","","","","","","","","","","","","chosen stimuli: images/choice_trial_14.png","","","",""
"html-keyboard-response","179","396470","0.0-74.0-2.0","","null","","null","delaylearn","learning","feedback_duration_window","54258078fdf99b691fb3858e","rZfoBUHPEqW0SAhMuvwGxV33D0o2","","","","","","","","","","","","","","","","","","7000","","",""
"html-keyboard-response","180","397972","0.0-74.0-3.0","","null","<div style='margin:auto;width: auto; font-size: 150%'><span style='font-weight: bold; font-size: 100px; color: red;'>0 points!</span><br><br></div>","null","delaylearn","learning","feedback_image_window","54258078fdf99b691fb3858e","rZfoBUHPEqW0SAhMuvwGxV33D0o2","","","","","","","","","","","","","","","","","","","","",""
"html-keyboard-response","181","400136","0.0-75.0","","null","<div style=""font-size:100px;"">+</div>","null","delaylearn","learning","ITI","54258078fdf99b691fb3858e","rZfoBUHPEqW0SAhMuvwGxV33D0o2","","","","","","","","","","","","","","","","","","","2162","",""
"html-keyboard-response","182","401360","0.0-76.0-0.0","","1220","<div style=""display: flex; flex-direction: column; align-items: center; margin-top: -40px;""><img src=""images/pattern_5.png"" style=""width: 234px; height: 230px; margin-top: -50px;""><div style=""display: flex; justify-content: space-between; margin-top: 33px;""><img src=""images/choice_trial_2.png"" style=""width: 408px; height: 417px; margin-right: 200px;""><img src=""images/choice_trial_9.png"" style=""width: 408px; height: 417px;""></div></div>","j","delaylearn","learning","trial","54258078fdf99b691fb3858e","rZfoBUHPEqW0SAhMuvwGxV33D0o2","2","images/choice_trial_2.png","images/choice_trial_9.png","images/pattern_5.png","j","f","750","2","9","4","0","33","0","1","9","190","","","","",""
"html-keyboard-response","183","402362","0.0-76.0-1.0","","null","<div style=""display: flex; flex-direction: column; align-items: center; margin-top: -40px;""><img src=""images/pattern_5.png"" style=""width: 234px; height: 230px; margin-top: -50px;""><div style=""display: flex; justify-content: space-between; margin-top: 33px;""><img src=""images/choice_trial_9.png"" style=""width: 408px; height: 417px; margin-left:608px;""></div></div>","null","delaylearn","learning","display_response","54258078fdf99b691fb3858e","rZfoBUHPEqW0SAhMuvwGxV33D0o2","","","","","","","","","","","","","","","","","chosen stimuli: images/choice_trial_9.png","","","",""
"html-keyboard-response","184","403113","0.0-76.0-2.0","","null","","null","delaylearn","learning","feedback_duration_window","54258078fdf99b691fb3858e","rZfoBUHPEqW0SAhMuvwGxV33D0o2","","","","","","","","","","","","","","","","","","750","","",""
"html-keyboard-response","185","404616","0.0-76.0-3.0","","null","<div style='margin:auto;width: auto; font-size: 150%'><span style='font-weight: bold; font-size: 100px; color: green;'>+10 points!</span><br><br></div>","null","delaylearn","learning","feedback_image_window","54258078fdf99b691fb3858e","rZfoBUHPEqW0SAhMuvwGxV33D0o2","","","","","","","","","","","","","","","","","","","","",""
"html-keyboard-response","186","406900","0.0-77.0","","null","<div style=""font-size:100px;"">+</div>","null","delaylearn","learning","ITI","54258078fdf99b691fb3858e","rZfoBUHPEqW0SAhMuvwGxV33D0o2","","","","","","","","","","","","","","","","","","","2283","",""
"html-keyboard-response","187","407775","0.0-78.0-0.0","","870","<div style=""display: flex; flex-direction: column; align-items: center; margin-top: -40px;""><img src=""images/pattern_1.png"" style=""width: 234px; height: 230px; margin-top: -50px;""><div style=""display: flex; justify-content: space-between; margin-top: 33px;""><img src=""images/choice_trial_3.png"" style=""width: 408px; height: 417px; margin-right: 200px;""><img src=""images/choice_trial_10.png"" style=""width: 408px; height: 417px;""></div></div>","f","delaylearn","learning","trial","54258078fdf99b691fb3858e","rZfoBUHPEqW0SAhMuvwGxV33D0o2","2","images/choice_trial_3.png","images/choice_trial_10.png","images/pattern_1.png","f","f","7000","3","10","1","0","34","1","1","3","200","","","","",""
"html-keyboard-response","188","408778","0.0-78.0-1.0","","null","<div style=""display: flex; flex-direction: column; align-items: center; margin-top: -40px;""><img src=""images/pattern_1.png"" style=""width: 234px; height: 230px; margin-top: -50px;""><div style=""display: flex; justify-content: space-between; margin-top: 33px;""><img src=""images/choice_trial_3.png"" style=""width: 408px; height: 417px; margin-right: 608px;""></div></div>","null","delaylearn","learning","display_response","54258078fdf99b691fb3858e","rZfoBUHPEqW0SAhMuvwGxV33D0o2","","","","","","","","","","","","","","","","","chosen stimuli: images/choice_trial_3.png","","","",""
"html-keyboard-response","189","415779","0.0-78.0-2.0","","null","","null","delaylearn","learning","feedback_duration_window","54258078fdf99b691fb3858e","rZfoBUHPEqW0SAhMuvwGxV33D0o2","","","","","","","","","","","","","","","","","","7000","","",""
"html-keyboard-response","190","417281","0.0-78.0-3.0","","null","<div style='margin:auto;width: auto; font-size: 150%'><span style='font-weight: bold; font-size: 100px; color: green;'>+10 points!</span><br><br></div>","null","delaylearn","learning","feedback_image_window","54258078fdf99b691fb3858e","rZfoBUHPEqW0SAhMuvwGxV33D0o2","","","","","","","","","","","","","","","","","","","","",""
"html-keyboard-response","191","417782","0.0-79.0-0.0","","null","","null","","","mood_trial_fixation","","","","","","","","","","","","","","","","","","","","","","",""
"lmdlab-html-vas-response","192","422012","0.0-79.0-1.0","","3224","How happy are you right now?","0.39669921875","delaylearn","learning","mood_trial","54258078fdf99b691fb3858e","rZfoBUHPEqW0SAhMuvwGxV33D0o2","","","","","","","","","","","","","","","","","","","","[""Very unhappy"",""Very happy""]",""
"html-keyboard-response","193","424511","0.0-80.0","","null","<div style=""font-size:100px;"">+</div>","null","delaylearn","learning","ITI","54258078fdf99b691fb3858e","rZfoBUHPEqW0SAhMuvwGxV33D0o2","","","","","","","","","","","","","","","","","","","2497","",""
"html-keyboard-response","194","425200","0.0-81.0-0.0","","684","<div style=""display: flex; flex-direction: column; align-items: center; margin-top: -40px;""><img src=""images/pattern_6.png"" style=""width: 234px; height: 230px; margin-top: -50px;""><div style=""display: flex; justify-content: space-between; margin-top: 33px;""><img src=""images/choice_trial_11.png"" style=""width: 408px; height: 417px; margin-right: 200px;""><img src=""images/choice_trial_5.png"" style=""width: 408px; height: 417px;""></div></div>","j","delaylearn","learning","trial","54258078fdf99b691fb3858e","rZfoBUHPEqW0SAhMuvwGxV33D0o2","2","images/choice_trial_11.png","images/choice_trial_5.png","images/pattern_6.png","j","f","750","11","5","5","0","35","0","1","5","210","","","","",""
"html-keyboard-response","195","426202","0.0-81.0-1.0","","null","<div style=""display: flex; flex-direction: column; align-items: center; margin-top: -40px;""><img src=""images/pattern_6.png"" style=""width: 234px; height: 230px; margin-top: -50px;""><div style=""display: flex; justify-content: space-between; margin-top: 33px;""><img src=""images/choice_trial_5.png"" style=""width: 408px; height: 417px; margin-left:608px;""></div></div>","null","delaylearn","learning","display_response","54258078fdf99b691fb3858e","rZfoBUHPEqW0SAhMuvwGxV33D0o2","","","","","","","","","","","","","","","","","chosen stimuli: images/choice_trial_5.png","","","",""
"html-keyboard-response","196","426953","0.0-81.0-2.0","","null","","null","delaylearn","learning","feedback_duration_window","54258078fdf99b691fb3858e","rZfoBUHPEqW0SAhMuvwGxV33D0o2","","","","","","","","","","","","","","","","","","750","","",""
"html-keyboard-response","197","428455","0.0-81.0-3.0","","null","<div style='margin:auto;width: auto; font-size: 150%'><span style='font-weight: bold; font-size: 100px; color: green;'>+10 points!</span><br><br></div>","null","delaylearn","learning","feedback_image_window","54258078fdf99b691fb3858e","rZfoBUHPEqW0SAhMuvwGxV33D0o2","","","","","","","","","","","","","","","","","","","","",""
"html-keyboard-response","198","430550","0.0-82.0","","null","<div style=""font-size:100px;"">+</div>","null","delaylearn","learning","ITI","54258078fdf99b691fb3858e","rZfoBUHPEqW0SAhMuvwGxV33D0o2","","","","","","","","","","","","","","","","","","","2094","",""
"html-keyboard-response","199","431653","0.0-83.0-0.0","","1098","<div style=""display: flex; flex-direction: column; align-items: center; margin-top: -40px;""><img src=""images/pattern_3.png"" style=""width: 234px; height: 230px; margin-top: -50px;""><div style=""display: flex; justify-content: space-between; margin-top: 33px;""><img src=""images/choice_trial_14.png"" style=""width: 408px; height: 417px; margin-right: 200px;""><img src=""images/choice_trial_12.png"" style=""width: 408px; height: 417px;""></div></div>","f","delaylearn","learning","trial","54258078fdf99b691fb3858e","rZfoBUHPEqW0SAhMuvwGxV33D0o2","2","images/choice_trial_14.png","images/choice_trial_12.png","images/pattern_3.png","j","j","7000","14","12","2","1","36","0","0","14","210","","","","",""
"html-keyboard-response","200","432656","0.0-83.0-1.0","","null","<div style=""display: flex; flex-direction: column; align-items: center; margin-top: -40px;""><img src=""images/pattern_3.png"" style=""width: 234px; height: 230px; margin-top: -50px;""><div style=""display: flex; justify-content: space-between; margin-top: 33px;""><img src=""images/choice_trial_14.png"" style=""width: 408px; height: 417px; margin-right: 608px;""></div></div>","null","delaylearn","learning","display_response","54258078fdf99b691fb3858e","rZfoBUHPEqW0SAhMuvwGxV33D0o2","","","","","","","","","","","","","","","","","chosen stimuli: images/choice_trial_14.png","","","",""
"html-keyboard-response","201","439657","0.0-83.0-2.0","","null","","null","delaylearn","learning","feedback_duration_window","54258078fdf99b691fb3858e","rZfoBUHPEqW0SAhMuvwGxV33D0o2","","","","","","","","","","","","","","","","","","7000","","",""
"html-keyboard-response","202","441159","0.0-83.0-3.0","","null","<div style='margin:auto;width: auto; font-size: 150%'><span style='font-weight: bold; font-size: 100px; color: red;'>0 points!</span><br><br></div>","null","delaylearn","learning","feedback_image_window","54258078fdf99b691fb3858e","rZfoBUHPEqW0SAhMuvwGxV33D0o2","","","","","","","","","","","","","","","","","","","","",""
"html-keyboard-response","203","442773","0.0-84.0","","null","<div style=""font-size:100px;"">+</div>","null","delaylearn","learning","ITI","54258078fdf99b691fb3858e","rZfoBUHPEqW0SAhMuvwGxV33D0o2","","","","","","","","","","","","","","","","","","","1612","",""
"html-keyboard-response","204","444053","0.0-85.0-0.0","","1275","<div style=""display: flex; flex-direction: column; align-items: center; margin-top: -40px;""><img src=""images/pattern_4.png"" style=""width: 234px; height: 230px; margin-top: -50px;""><div style=""display: flex; justify-content: space-between; margin-top: 33px;""><img src=""images/choice_trial_16.png"" style=""width: 408px; height: 417px; margin-right: 200px;""><img src=""images/choice_trial_4.png"" style=""width: 408px; height: 417px;""></div></div>","j","delaylearn","learning","trial","54258078fdf99b691fb3858e","rZfoBUHPEqW0SAhMuvwGxV33D0o2","2","images/choice_trial_16.png","images/choice_trial_4.png","images/pattern_4.png","f","j","7000","16","4","3","1","37","1","0","4","210","","","","",""
"html-keyboard-response","205","445055","0.0-85.0-1.0","","null","<div style=""display: flex; flex-direction: column; align-items: center; margin-top: -40px;""><img src=""images/pattern_4.png"" style=""width: 234px; height: 230px; margin-top: -50px;""><div style=""display: flex; justify-content: space-between; margin-top: 33px;""><img src=""images/choice_trial_4.png"" style=""width: 408px; height: 417px; margin-left:608px;""></div></div>","null","delaylearn","learning","display_response","54258078fdf99b691fb3858e","rZfoBUHPEqW0SAhMuvwGxV33D0o2","","","","","","","","","","","","","","","","","chosen stimuli: images/choice_trial_4.png","","","",""
"html-keyboard-response","206","452056","0.0-85.0-2.0","","null","","null","delaylearn","learning","feedback_duration_window","54258078fdf99b691fb3858e","rZfoBUHPEqW0SAhMuvwGxV33D0o2","","","","","","","","","","","","","","","","","","7000","","",""
"html-keyboard-response","207","453559","0.0-85.0-3.0","","null","<div style='margin:auto;width: auto; font-size: 150%'><span style='font-weight: bold; font-size: 100px; color: red;'>0 points!</span><br><br></div>","null","delaylearn","learning","feedback_image_window","54258078fdf99b691fb3858e","rZfoBUHPEqW0SAhMuvwGxV33D0o2","","","","","","","","","","","","","","","","","","","","",""
"html-keyboard-response","208","456035","0.0-86.0","","null","<div style=""font-size:100px;"">+</div>","null","delaylearn","learning","ITI","54258078fdf99b691fb3858e","rZfoBUHPEqW0SAhMuvwGxV33D0o2","","","","","","","","","","","","","","","","","","","2475","",""
"html-keyboard-response","209","457071","0.0-87.0-0.0","","1031","<div style=""display: flex; flex-direction: column; align-items: center; margin-top: -40px;""><img src=""images/pattern_7.png"" style=""width: 234px; height: 230px; margin-top: -50px;""><div style=""display: flex; justify-content: space-between; margin-top: 33px;""><img src=""images/choice_trial_8.png"" style=""width: 408px; height: 417px; margin-right: 200px;""><img src=""images/choice_trial_15.png"" style=""width: 408px; height: 417px;""></div></div>","f","delaylearn","learning","trial","54258078fdf99b691fb3858e","rZfoBUHPEqW0SAhMuvwGxV33D0o2","2","images/choice_trial_8.png","images/choice_trial_15.png","images/pattern_7.png","f","f","750","8","15","6","0","38","1","1","8","220","","","","",""
"html-keyboard-response","210","458074","0.0-87.0-1.0","","null","<div style=""display: flex; flex-direction: column; align-items: center; margin-top: -40px;""><img src=""images/pattern_7.png"" style=""width: 234px; height: 230px; margin-top: -50px;""><div style=""display: flex; justify-content: space-between; margin-top: 33px;""><img src=""images/choice_trial_8.png"" style=""width: 408px; height: 417px; margin-right: 608px;""></div></div>","null","delaylearn","learning","display_response","54258078fdf99b691fb3858e","rZfoBUHPEqW0SAhMuvwGxV33D0o2","","","","","","","","","","","","","","","","","chosen stimuli: images/choice_trial_8.png","","","",""
"html-keyboard-response","211","458825","0.0-87.0-2.0","","null","","null","delaylearn","learning","feedback_duration_window","54258078fdf99b691fb3858e","rZfoBUHPEqW0SAhMuvwGxV33D0o2","","","","","","","","","","","","","","","","","","750","","",""
"html-keyboard-response","212","460327","0.0-87.0-3.0","","null","<div style='margin:auto;width: auto; font-size: 150%'><span style='font-weight: bold; font-size: 100px; color: green;'>+10 points!</span><br><br></div>","null","delaylearn","learning","feedback_image_window","54258078fdf99b691fb3858e","rZfoBUHPEqW0SAhMuvwGxV33D0o2","","","","","","","","","","","","","","","","","","","","",""
"html-keyboard-response","213","462373","0.0-88.0","","null","<div style=""font-size:100px;"">+</div>","null","delaylearn","learning","ITI","54258078fdf99b691fb3858e","rZfoBUHPEqW0SAhMuvwGxV33D0o2","","","","","","","","","","","","","","","","","","","2045","",""
"html-keyboard-response","214","463817","0.0-89.0-0.0","","1439","<div style=""display: flex; flex-direction: column; align-items: center; margin-top: -40px;""><img src=""images/pattern_1.png"" style=""width: 234px; height: 230px; margin-top: -50px;""><div style=""display: flex; justify-content: space-between; margin-top: 33px;""><img src=""images/choice_trial_3.png"" style=""width: 408px; height: 417px; margin-right: 200px;""><img src=""images/choice_trial_10.png"" style=""width: 408px; height: 417px;""></div></div>","j","delaylearn","learning","trial","54258078fdf99b691fb3858e","rZfoBUHPEqW0SAhMuvwGxV33D0o2","2","images/choice_trial_3.png","images/choice_trial_10.png","images/pattern_1.png","f","f","7000","3","10","1","0","39","0","0","10","220","","","","",""
"html-keyboard-response","215","464820","0.0-89.0-1.0","","null","<div style=""display: flex; flex-direction: column; align-items: center; margin-top: -40px;""><img src=""images/pattern_1.png"" style=""width: 234px; height: 230px; margin-top: -50px;""><div style=""display: flex; justify-content: space-between; margin-top: 33px;""><img src=""images/choice_trial_10.png"" style=""width: 408px; height: 417px; margin-left:608px;""></div></div>","null","delaylearn","learning","display_response","54258078fdf99b691fb3858e","rZfoBUHPEqW0SAhMuvwGxV33D0o2","","","","","","","","","","","","","","","","","chosen stimuli: images/choice_trial_10.png","","","",""
"html-keyboard-response","216","471822","0.0-89.0-2.0","","null","","null","delaylearn","learning","feedback_duration_window","54258078fdf99b691fb3858e","rZfoBUHPEqW0SAhMuvwGxV33D0o2","","","","","","","","","","","","","","","","","","7000","","",""
"html-keyboard-response","217","473325","0.0-89.0-3.0","","null","<div style='margin:auto;width: auto; font-size: 150%'><span style='font-weight: bold; font-size: 100px; color: red;'>0 points!</span><br><br></div>","null","delaylearn","learning","feedback_image_window","54258078fdf99b691fb3858e","rZfoBUHPEqW0SAhMuvwGxV33D0o2","","","","","","","","","","","","","","","","","","","","",""
"html-keyboard-response","218","473826","0.0-90.0-0.0","","null","","null","","","mood_trial_fixation","","","","","","","","","","","","","","","","","","","","","","",""
"lmdlab-html-vas-response","219","477984","0.0-90.0-1.0","","3152","How happy are you right now?","0.37503255208333336","delaylearn","learning","mood_trial","54258078fdf99b691fb3858e","rZfoBUHPEqW0SAhMuvwGxV33D0o2","","","","","","","","","","","","","","","","","","","","[""Very unhappy"",""Very happy""]",""
"html-keyboard-response","220","480444","0.0-91.0","","null","<div style=""font-size:100px;"">+</div>","null","delaylearn","learning","ITI","54258078fdf99b691fb3858e","rZfoBUHPEqW0SAhMuvwGxV33D0o2","","","","","","","","","","","","","","","","","","","2459","",""
"html-keyboard-response","221","481452","0.0-92.0-0.0","","1001","<div style=""display: flex; flex-direction: column; align-items: center; margin-top: -40px;""><img src=""images/pattern_3.png"" style=""width: 234px; height: 230px; margin-top: -50px;""><div style=""display: flex; justify-content: space-between; margin-top: 33px;""><img src=""images/choice_trial_12.png"" style=""width: 408px; height: 417px; margin-right: 200px;""><img src=""images/choice_trial_14.png"" style=""width: 408px; height: 417px;""></div></div>","f","delaylearn","learning","trial","54258078fdf99b691fb3858e","rZfoBUHPEqW0SAhMuvwGxV33D0o2","2","images/choice_trial_12.png","images/choice_trial_14.png","images/pattern_3.png","j","f","7000","12","14","2","0","40","1","0","12","220","","","","",""
