"trial_type","trial_index","time_elapsed","internal_node_id","participant","rt","stimulus","response","exp_name","exp_stage","test_part","subjectID","databaseID","counterbal","choice_stimuli_1","choice_stimuli_2","pattern_stimuli","rewarded_answer","correct_answer","feedback_duration_times","stim_left","stim_right","pair","leftright_counter","trial","response_correct","response_rewarded","chosen_stim","counter","displayed_choice","feedback_durations","ITI_duration","labels","rest_warning"
"pavlovia","0","664","0.0-0.0","","","","","","","","","","","","","","","","","","","","","","","","","","","","","",""
"html-keyboard-response","1","3669","0.0-1.0","","null","<div style=""font-size:100px;"">+</div>","null","delaylearn","learning","pre_fixation","65dcc7be05b80dc664537a59","","","","","","","","","","","","","","","","","","","","","",""
"html-keyboard-response","2","5625","0.0-2.0-0.0","","1951.2999999523163","<div style=""display: flex; flex-direction: column; align-items: center; margin-top: -40px;""><img src=""images/demo_images/pattern_1.png"" style=""width: 234px; height: 230px; margin-top: -50px;""><div style=""display: flex; justify-content: space-between; margin-top: 33px;""><img src=""images/demo_images/choice_trial_2.png"" style=""width: 408px; height: 417px; margin-right: 200px;""><img src=""images/demo_images/choice_trial_1.png"" style=""width: 408px; height: 417px;""></div></div>","f","delaylearn","learning","trial","65dcc7be05b80dc664537a59","FGQqAXvyLdd0PsPV1WIkhos0fyf1","3","images/demo_images/choice_trial_2.png","images/demo_images/choice_trial_1.png","images/demo_images/pattern_1.png","j","j","3000","2","1","20","1","1","0","0","2","0","","","","",""
"html-keyboard-response","3","6642","0.0-2.0-1.0","","null","<div style=""display: flex; flex-direction: column; align-items: center; margin-top: -40px;""><img src=""images/demo_images/pattern_1.png"" style=""width: 234px; height: 230px; margin-top: -50px;""><div style=""display: flex; justify-content: space-between; margin-top: 33px;""><img src=""images/demo_images/choice_trial_2.png"" style=""width: 408px; height: 417px; margin-right: 608px;""></div></div>","null","delaylearn","learning","display_response","65dcc7be05b80dc664537a59","FGQqAXvyLdd0PsPV1WIkhos0fyf1","","","","","","","","","","","","","","","","","chosen stimuli: images/demo_images/choice_trial_2.png","","","",""
"html-keyboard-response","4","9651","0.0-2.0-2.0","","null","","null","delaylearn","learning","feedback_duration_window","65dcc7be05b80dc664537a59","FGQqAXvyLdd0PsPV1WIkhos0fyf1","","","","","","","","","","","","","","","","","","3000","","",""
"html-keyboard-response","5","11155","0.0-2.0-3.0","","null","<div style='margin:auto;width: auto; font-size: 150%'><span style='font-weight: bold; font-size: 100px; color: red;'>0 points!</span><br><br></div>","null","delaylearn","learning","feedback_image_window","65dcc7be05b80dc664537a59","FGQqAXvyLdd0PsPV1WIkhos0fyf1","","","","","","","","","","","","","","","","","","","","",""
"html-keyboard-response","6","13381","0.0-3.0","","null","<div style=""font-size:100px;"">+</div>","null","delaylearn","learning","ITI","65dcc7be05b80dc664537a59","FGQqAXvyLdd0PsPV1WIkhos0fyf1","","","","","","","","","","","","","","","","","","","2218","",""
"html-keyboard-response","7","15175","0.0-4.0-0.0","","1789.5","<div style=""display: flex; flex-direction: column; align-items: center; margin-top: -40px;""><img src=""images/demo_images/pattern_1.png"" style=""width: 234px; height: 230px; margin-top: -50px;""><div style=""display: flex; justify-content: space-between; margin-top: 33px;""><img src=""images/demo_images/choice_trial_2.png"" style=""width: 408px; height: 417px; margin-right: 200px;""><img src=""images/demo_images/choice_trial_1.png"" style=""width: 408px; height: 417px;""></div></div>","j","delaylearn","learning","trial","65dcc7be05b80dc664537a59","FGQqAXvyLdd0PsPV1WIkhos0fyf1","3","images/demo_images/choice_trial_2.png","images/demo_images/choice_trial_1.png","images/demo_images/pattern_1.png","j","j","3000","2","1","20","1","2","1","1","1","10","","","","",""
"html-keyboard-response","8","16190","0.0-4.0-1.0","","null","<div style=""display: flex; flex-direction: column; align-items: center; margin-top: -40px;""><img src=""images/demo_images/pattern_1.png"" style=""width: 234px; height: 230px; margin-top: -50px;""><div style=""display: flex; justify-content: space-between; margin-top: 33px;""><img src=""images/demo_images/choice_trial_1.png"" style=""width: 408px; height: 417px; margin-left:608px;""></div></div>","null","delaylearn","learning","display_response","65dcc7be05b80dc664537a59","FGQqAXvyLdd0PsPV1WIkhos0fyf1","","","","","","","","","","","","","","","","","chosen stimuli: images/demo_images/choice_trial_1.png","","","",""
"html-keyboard-response","9","19193","0.0-4.0-2.0","","null","","null","delaylearn","learning","feedback_duration_window","65dcc7be05b80dc664537a59","FGQqAXvyLdd0PsPV1WIkhos0fyf1","","","","","","","","","","","","","","","","","","3000","","",""
"html-keyboard-response","10","20696","0.0-4.0-3.0","","null","<div style='margin:auto;width: auto; font-size: 150%'><span style='font-weight: bold; font-size: 100px; color: green;'>+10 points!</span><br><br></div>","null","delaylearn","learning","feedback_image_window","65dcc7be05b80dc664537a59","FGQqAXvyLdd0PsPV1WIkhos0fyf1","","","","","","","","","","","","","","","","","","","","",""
"html-keyboard-response","11","22453","0.0-5.0","","null","<div style=""font-size:100px;"">+</div>","null","delaylearn","learning","ITI","65dcc7be05b80dc664537a59","FGQqAXvyLdd0PsPV1WIkhos0fyf1","","","","","","","","","","","","","","","","","","","1752","",""
"html-keyboard-response","12","23394","0.0-6.0-0.0","","937.4000000953674","<div style=""display: flex; flex-direction: column; align-items: center; margin-top: -40px;""><img src=""images/demo_images/pattern_1.png"" style=""width: 234px; height: 230px; margin-top: -50px;""><div style=""display: flex; justify-content: space-between; margin-top: 33px;""><img src=""images/demo_images/choice_trial_1.png"" style=""width: 408px; height: 417px; margin-right: 200px;""><img src=""images/demo_images/choice_trial_2.png"" style=""width: 408px; height: 417px;""></div></div>","f","delaylearn","learning","trial","65dcc7be05b80dc664537a59","FGQqAXvyLdd0PsPV1WIkhos0fyf1","3","images/demo_images/choice_trial_1.png","images/demo_images/choice_trial_2.png","images/demo_images/pattern_1.png","j","f","3000","1","2","20","0","3","1","0","1","10","","","","",""
"html-keyboard-response","13","24405","0.0-6.0-1.0","","null","<div style=""display: flex; flex-direction: column; align-items: center; margin-top: -40px;""><img src=""images/demo_images/pattern_1.png"" style=""width: 234px; height: 230px; margin-top: -50px;""><div style=""display: flex; justify-content: space-between; margin-top: 33px;""><img src=""images/demo_images/choice_trial_1.png"" style=""width: 408px; height: 417px; margin-right: 608px;""></div></div>","null","delaylearn","learning","display_response","65dcc7be05b80dc664537a59","FGQqAXvyLdd0PsPV1WIkhos0fyf1","","","","","","","","","","","","","","","","","chosen stimuli: images/demo_images/choice_trial_1.png","","","",""
"html-keyboard-response","14","27409","0.0-6.0-2.0","","null","","null","delaylearn","learning","feedback_duration_window","65dcc7be05b80dc664537a59","FGQqAXvyLdd0PsPV1WIkhos0fyf1","","","","","","","","","","","","","","","","","","3000","","",""
"html-keyboard-response","15","28924","0.0-6.0-3.0","","null","<div style='margin:auto;width: auto; font-size: 150%'><span style='font-weight: bold; font-size: 100px; color: red;'>0 points!</span><br><br></div>","null","delaylearn","learning","feedback_image_window","65dcc7be05b80dc664537a59","FGQqAXvyLdd0PsPV1WIkhos0fyf1","","","","","","","","","","","","","","","","","","","","",""
"html-keyboard-response","16","31006","0.0-7.0","","null","<div style=""font-size:100px;"">+</div>","null","delaylearn","learning","ITI","65dcc7be05b80dc664537a59","FGQqAXvyLdd0PsPV1WIkhos0fyf1","","","","","","","","","","","","","","","","","","","2068","",""
"html-keyboard-response","17","32395","0.0-8.0-0.0","","1385.8999999761581","<div style=""display: flex; flex-direction: column; align-items: center; margin-top: -40px;""><img src=""images/demo_images/pattern_1.png"" style=""width: 234px; height: 230px; margin-top: -50px;""><div style=""display: flex; justify-content: space-between; margin-top: 33px;""><img src=""images/demo_images/choice_trial_1.png"" style=""width: 408px; height: 417px; margin-right: 200px;""><img src=""images/demo_images/choice_trial_2.png"" style=""width: 408px; height: 417px;""></div></div>","f","delaylearn","learning","trial","65dcc7be05b80dc664537a59","FGQqAXvyLdd0PsPV1WIkhos0fyf1","3","images/demo_images/choice_trial_1.png","images/demo_images/choice_trial_2.png","images/demo_images/pattern_1.png","f","f","3000","1","2","20","0","4","1","1","1","20","","","","",""
"html-keyboard-response","18","33408","0.0-8.0-1.0","","null","<div style=""display: flex; flex-direction: column; align-items: center; margin-top: -40px;""><img src=""images/demo_images/pattern_1.png"" style=""width: 234px; height: 230px; margin-top: -50px;""><div style=""display: flex; justify-content: space-between; margin-top: 33px;""><img src=""images/demo_images/choice_trial_1.png"" style=""width: 408px; height: 417px; margin-right: 608px;""></div></div>","null","delaylearn","learning","display_response","65dcc7be05b80dc664537a59","FGQqAXvyLdd0PsPV1WIkhos0fyf1","","","","","","","","","","","","","","","","","chosen stimuli: images/demo_images/choice_trial_1.png","","","",""
"html-keyboard-response","19","36420","0.0-8.0-2.0","","null","","null","delaylearn","learning","feedback_duration_window","65dcc7be05b80dc664537a59","FGQqAXvyLdd0PsPV1WIkhos0fyf1","","","","","","","","","","","","","","","","","","3000","","",""
"html-keyboard-response","20","37924","0.0-8.0-3.0","","null","<div style='margin:auto;width: auto; font-size: 150%'><span style='font-weight: bold; font-size: 100px; color: green;'>+10 points!</span><br><br></div>","null","delaylearn","learning","feedback_image_window","65dcc7be05b80dc664537a59","FGQqAXvyLdd0PsPV1WIkhos0fyf1","","","","","","","","","","","","","","","","","","","","",""
"html-keyboard-response","21","38430","0.0-9.0-0.0","","null","","null","","","mood_trial_fixation","","","","","","","","","","","","","","","","","","","","","","",""
"lmdlab-html-vas-response","22","46583","0.0-9.0-1.0","","7118","How happy are you right now?","0.9752805940795497","delaylearn","learning","mood_trial","65dcc7be05b80dc664537a59","FGQqAXvyLdd0PsPV1WIkhos0fyf1","","","","","","","","","","","","","","","","","","","","[""Very unhappy"",""Very happy""]",""
"html-keyboard-response","23","49016","0.0-10.0","","null","<div style=""font-size:100px;"">+</div>","null","delaylearn","learning","ITI","65dcc7be05b80dc664537a59","FGQqAXvyLdd0PsPV1WIkhos0fyf1","","","","","","","","","","","","","","","","","","","2427","",""
"html-keyboard-response","24","49745","0.0-11.0-0.0","","725.8999999761581","<div style=""display: flex; flex-direction: column; align-items: center; margin-top: -40px;""><img src=""images/demo_images/pattern_1.png"" style=""width: 234px; height: 230px; margin-top: -50px;""><div style=""display: flex; justify-content: space-between; margin-top: 33px;""><img src=""images/demo_images/choice_trial_2.png"" style=""width: 408px; height: 417px; margin-right: 200px;""><img src=""images/demo_images/choice_trial_1.png"" style=""width: 408px; height: 417px;""></div></div>","j","delaylearn","learning","trial","65dcc7be05b80dc664537a59","FGQqAXvyLdd0PsPV1WIkhos0fyf1","3","images/demo_images/choice_trial_2.png","images/demo_images/choice_trial_1.png","images/demo_images/pattern_1.png","j","j","3000","2","1","20","1","5","1","1","1","30","","","","",""
"html-keyboard-response","25","50749","0.0-11.0-1.0","","null","<div style=""display: flex; flex-direction: column; align-items: center; margin-top: -40px;""><img src=""images/demo_images/pattern_1.png"" style=""width: 234px; height: 230px; margin-top: -50px;""><div style=""display: flex; justify-content: space-between; margin-top: 33px;""><img src=""images/demo_images/choice_trial_1.png"" style=""width: 408px; height: 417px; margin-left:608px;""></div></div>","null","delaylearn","learning","display_response","65dcc7be05b80dc664537a59","FGQqAXvyLdd0PsPV1WIkhos0fyf1","","","","","","","","","","","","","","","","","chosen stimuli: images/demo_images/choice_trial_1.png","","","",""
"html-keyboard-response","26","53755","0.0-11.0-2.0","","null","","null","delaylearn","learning","feedback_duration_window","65dcc7be05b80dc664537a59","FGQqAXvyLdd0PsPV1WIkhos0fyf1","","","","","","","","","","","","","","","","","","3000","","",""
"html-keyboard-response","27","55275","0.0-11.0-3.0","","null","<div style='margin:auto;width: auto; font-size: 150%'><span style='font-weight: bold; font-size: 100px; color: green;'>+10 points!</span><br><br></div>","null","delaylearn","learning","feedback_image_window","65dcc7be05b80dc664537a59","FGQqAXvyLdd0PsPV1WIkhos0fyf1","","","","","","","","","","","","","","","","","","","","",""
"html-keyboard-response","28","57788","0.0-12.0","","null","<div style=""font-size:100px;"">+</div>","null","delaylearn","learning","ITI","65dcc7be05b80dc664537a59","FGQqAXvyLdd0PsPV1WIkhos0fyf1","","","","","","","","","","","","","","","","","","","2492","",""
"html-keyboard-response","29","58619","0.0-13.0-0.0","","827.5","<div style=""display: flex; flex-direction: column; align-items: center; margin-top: -40px;""><img src=""images/demo_images/pattern_1.png"" style=""width: 234px; height: 230px; margin-top: -50px;""><div style=""display: flex; justify-content: space-between; margin-top: 33px;""><img src=""images/demo_images/choice_trial_1.png"" style=""width: 408px; height: 417px; margin-right: 200px;""><img src=""images/demo_images/choice_trial_2.png"" style=""width: 408px; height: 417px;""></div></div>","f","delaylearn","learning","trial","65dcc7be05b80dc664537a59","FGQqAXvyLdd0PsPV1WIkhos0fyf1","3","images/demo_images/choice_trial_1.png","images/demo_images/choice_trial_2.png","images/demo_images/pattern_1.png","f","f","3000","1","2","20","0","6","1","1","1","40","","","","",""
"html-keyboard-response","30","59637","0.0-13.0-1.0","","null","<div style=""display: flex; flex-direction: column; align-items: center; margin-top: -40px;""><img src=""images/demo_images/pattern_1.png"" style=""width: 234px; height: 230px; margin-top: -50px;""><div style=""display: flex; justify-content: space-between; margin-top: 33px;""><img src=""images/demo_images/choice_trial_1.png"" style=""width: 408px; height: 417px; margin-right: 608px;""></div></div>","null","delaylearn","learning","display_response","65dcc7be05b80dc664537a59","FGQqAXvyLdd0PsPV1WIkhos0fyf1","","","","","","","","","","","","","","","","","chosen stimuli: images/demo_images/choice_trial_1.png","","","",""
"html-keyboard-response","31","62652","0.0-13.0-2.0","","null","","null","delaylearn","learning","feedback_duration_window","65dcc7be05b80dc664537a59","FGQqAXvyLdd0PsPV1WIkhos0fyf1","","","","","","","","","","","","","","","","","","3000","","",""
"html-keyboard-response","32","64159","0.0-13.0-3.0","","null","<div style='margin:auto;width: auto; font-size: 150%'><span style='font-weight: bold; font-size: 100px; color: green;'>+10 points!</span><br><br></div>","null","delaylearn","learning","feedback_image_window","65dcc7be05b80dc664537a59","FGQqAXvyLdd0PsPV1WIkhos0fyf1","","","","","","","","","","","","","","","","","","","","",""
"html-keyboard-response","33","66356","0.0-14.0","","null","<div style=""font-size:100px;"">+</div>","null","delaylearn","learning","ITI","65dcc7be05b80dc664537a59","FGQqAXvyLdd0PsPV1WIkhos0fyf1","","","","","","","","","","","","","","","","","","","2196","",""
"html-keyboard-response","34","67439","0.0-15.0-0.0","","1080","<div style=""display: flex; flex-direction: column; align-items: center; margin-top: -40px;""><img src=""images/demo_images/pattern_1.png"" style=""width: 234px; height: 230px; margin-top: -50px;""><div style=""display: flex; justify-content: space-between; margin-top: 33px;""><img src=""images/demo_images/choice_trial_2.png"" style=""width: 408px; height: 417px; margin-right: 200px;""><img src=""images/demo_images/choice_trial_1.png"" style=""width: 408px; height: 417px;""></div></div>","j","delaylearn","learning","trial","65dcc7be05b80dc664537a59","FGQqAXvyLdd0PsPV1WIkhos0fyf1","3","images/demo_images/choice_trial_2.png","images/demo_images/choice_trial_1.png","images/demo_images/pattern_1.png","j","j","3000","2","1","20","1","7","1","1","1","50","","","","",""
"html-keyboard-response","35","68457","0.0-15.0-1.0","","null","<div style=""display: flex; flex-direction: column; align-items: center; margin-top: -40px;""><img src=""images/demo_images/pattern_1.png"" style=""width: 234px; height: 230px; margin-top: -50px;""><div style=""display: flex; justify-content: space-between; margin-top: 33px;""><img src=""images/demo_images/choice_trial_1.png"" style=""width: 408px; height: 417px; margin-left:608px;""></div></div>","null","delaylearn","learning","display_response","65dcc7be05b80dc664537a59","FGQqAXvyLdd0PsPV1WIkhos0fyf1","","","","","","","","","","","","","","","","","chosen stimuli: images/demo_images/choice_trial_1.png","","","",""
"html-keyboard-response","36","71468","0.0-15.0-2.0","","null","","null","delaylearn","learning","feedback_duration_window","65dcc7be05b80dc664537a59","FGQqAXvyLdd0PsPV1WIkhos0fyf1","","","","","","","","","","","","","","","","","","3000","","",""
"html-keyboard-response","37","72989","0.0-15.0-3.0","","null","<div style='margin:auto;width: auto; font-size: 150%'><span style='font-weight: bold; font-size: 100px; color: green;'>+10 points!</span><br><br></div>","null","delaylearn","learning","feedback_image_window","65dcc7be05b80dc664537a59","FGQqAXvyLdd0PsPV1WIkhos0fyf1","","","","","","","","","","","","","","","","","","","","",""
"html-keyboard-response","38","74836","0.0-16.0","","null","<div style=""font-size:100px;"">+</div>","null","delaylearn","learning","ITI","65dcc7be05b80dc664537a59","FGQqAXvyLdd0PsPV1WIkhos0fyf1","","","","","","","","","","","","","","","","","","","1842","",""
"html-keyboard-response","39","75549","0.0-17.0-0.0","","709.7000000476837","<div style=""display: flex; flex-direction: column; align-items: center; margin-top: -40px;""><img src=""images/demo_images/pattern_1.png"" style=""width: 234px; height: 230px; margin-top: -50px;""><div style=""display: flex; justify-content: space-between; margin-top: 33px;""><img src=""images/demo_images/choice_trial_1.png"" style=""width: 408px; height: 417px; margin-right: 200px;""><img src=""images/demo_images/choice_trial_2.png"" style=""width: 408px; height: 417px;""></div></div>","f","delaylearn","learning","trial","65dcc7be05b80dc664537a59","FGQqAXvyLdd0PsPV1WIkhos0fyf1","3","images/demo_images/choice_trial_1.png","images/demo_images/choice_trial_2.png","images/demo_images/pattern_1.png","f","f","3000","1","2","20","0","8","1","1","1","60","","","","",""
"html-keyboard-response","40","76564","0.0-17.0-1.0","","null","<div style=""display: flex; flex-direction: column; align-items: center; margin-top: -40px;""><img src=""images/demo_images/pattern_1.png"" style=""width: 234px; height: 230px; margin-top: -50px;""><div style=""display: flex; justify-content: space-between; margin-top: 33px;""><img src=""images/demo_images/choice_trial_1.png"" style=""width: 408px; height: 417px; margin-right: 608px;""></div></div>","null","delaylearn","learning","display_response","65dcc7be05b80dc664537a59","FGQqAXvyLdd0PsPV1WIkhos0fyf1","","","","","","","","","","","","","","","","","chosen stimuli: images/demo_images/choice_trial_1.png","","","",""
"html-keyboard-response","41","79570","0.0-17.0-2.0","","null","","null","delaylearn","learning","feedback_duration_window","65dcc7be05b80dc664537a59","FGQqAXvyLdd0PsPV1WIkhos0fyf1","","","","","","","","","","","","","","","","","","3000","","",""
"html-keyboard-response","42","81076","0.0-17.0-3.0","","null","<div style='margin:auto;width: auto; font-size: 150%'><span style='font-weight: bold; font-size: 100px; color: green;'>+10 points!</span><br><br></div>","null","delaylearn","learning","feedback_image_window","65dcc7be05b80dc664537a59","FGQqAXvyLdd0PsPV1WIkhos0fyf1","","","","","","","","","","","","","","","","","","","","",""
"html-button-response","43","85248","0.0-18.0","","4168.5","
  <div style=""display: flex; align-items: center; justify-content: center; height: 80vh;"">
  <div>
          <img src=""images/inst_demo_finish.png"" style=""width: 80vw; height:auto;"">
          <br><br>
      </div>
      <br><br>
  </div>","0","","","","","","","","","","","","","","","","","","","","","","","","","",""
"html-keyboard-response","44","89996","0.0-19.0","","4746.200000047684","
  <div style=""display: flex; align-items: center; justify-content: center; height: 80vh;"">
  <div>
          <img src=""images/inst_6.png"" style=""width: 80vw; height:auto;"">
          <br><br>
      </div>
      <br><br>
  </div>","j","","","","","","","","","","","","","","","","","","","","","","","","","",""
"html-keyboard-response","45","93008","0.0-20.0","","null","<div style=""font-size:100px;"">+</div>","null","delaylearn","learning","pre_fixation","65dcc7be05b80dc664537a59","","","","","","","","","","","","","","","","","","","","","",""
"html-keyboard-response","46","94530","0.0-21.0","","null","<div style=""font-size:100px;"">+</div>","null","delaylearn","learning","ITI","65dcc7be05b80dc664537a59","FGQqAXvyLdd0PsPV1WIkhos0fyf1","","","","","","","","","","","","","","","","","","","1516","",""
"html-keyboard-response","47","96949","0.0-22.0-0.0","","2413.600000023842","<div style=""display: flex; flex-direction: column; align-items: center; margin-top: -40px;""><img src=""images/pattern_3.png"" style=""width: 234px; height: 230px; margin-top: -50px;""><div style=""display: flex; justify-content: space-between; margin-top: 33px;""><img src=""images/choice_trial_13.png"" style=""width: 408px; height: 417px; margin-right: 200px;""><img src=""images/choice_trial_10.png"" style=""width: 408px; height: 417px;""></div></div>","f","delaylearn","learning","trial","65dcc7be05b80dc664537a59","FGQqAXvyLdd0PsPV1WIkhos0fyf1","3","images/choice_trial_13.png","images/choice_trial_10.png","images/pattern_3.png","f","f","7000","13","10","2","0","9","1","1","13","70","","","","",""
"html-keyboard-response","48","97961","0.0-22.0-1.0","","null","<div style=""display: flex; flex-direction: column; align-items: center; margin-top: -40px;""><img src=""images/pattern_3.png"" style=""width: 234px; height: 230px; margin-top: -50px;""><div style=""display: flex; justify-content: space-between; margin-top: 33px;""><img src=""images/choice_trial_13.png"" style=""width: 408px; height: 417px; margin-right: 608px;""></div></div>","null","delaylearn","learning","display_response","65dcc7be05b80dc664537a59","FGQqAXvyLdd0PsPV1WIkhos0fyf1","","","","","","","","","","","","","","","","","chosen stimuli: images/choice_trial_13.png","","","",""
"html-keyboard-response","49","104980","0.0-22.0-2.0","","null","","null","delaylearn","learning","feedback_duration_window","65dcc7be05b80dc664537a59","FGQqAXvyLdd0PsPV1WIkhos0fyf1","","","","","","","","","","","","","","","","","","7000","","",""
"html-keyboard-response","50","106485","0.0-22.0-3.0","","null","<div style='margin:auto;width: auto; font-size: 150%'><span style='font-weight: bold; font-size: 100px; color: green;'>+10 points!</span><br><br></div>","null","delaylearn","learning","feedback_image_window","65dcc7be05b80dc664537a59","FGQqAXvyLdd0PsPV1WIkhos0fyf1","","","","","","","","","","","","","","","","","","","","",""
"html-keyboard-response","51","108083","0.0-23.0","","null","<div style=""font-size:100px;"">+</div>","null","delaylearn","learning","ITI","65dcc7be05b80dc664537a59","FGQqAXvyLdd0PsPV1WIkhos0fyf1","","","","","","","","","","","","","","","","","","","1584","",""
"html-keyboard-response","52","111089","0.0-24.0-0.0","","null","<div style=""display: flex; flex-direction: column; align-items: center; margin-top: -40px;""><img src=""images/pattern_7.png"" style=""width: 234px; height: 230px; margin-top: -50px;""><div style=""display: flex; justify-content: space-between; margin-top: 33px;""><img src=""images/choice_trial_12.png"" style=""width: 408px; height: 417px; margin-right: 200px;""><img src=""images/choice_trial_6.png"" style=""width: 408px; height: 417px;""></div></div>","null","delaylearn","learning","trial","65dcc7be05b80dc664537a59","FGQqAXvyLdd0PsPV1WIkhos0fyf1","3","images/choice_trial_12.png","images/choice_trial_6.png","images/pattern_7.png","j","j","750","12","6","6","1","10","0","0","0","70","","","","",""
"html-keyboard-response","53","112103","0.0-24.0-1.0","","null","<div style='font-weight: bold; font-size: 75px; color: red;'>Missed Trial <br><br><br><br> Please respond faster</div>","null","delaylearn","learning","display_response","65dcc7be05b80dc664537a59","FGQqAXvyLdd0PsPV1WIkhos0fyf1","","","","","","","","","","","","","","","","","Missed trial","","","",""
"html-keyboard-response","54","112111","0.0-24.0-2.0","","null","","null","delaylearn","learning","feedback_duration_window","65dcc7be05b80dc664537a59","FGQqAXvyLdd0PsPV1WIkhos0fyf1","","","","","","","","","","","","","","","","","","0","","",""
"html-keyboard-response","55","112119","0.0-24.0-3.0","","null","","null","delaylearn","learning","feedback_image_window","65dcc7be05b80dc664537a59","FGQqAXvyLdd0PsPV1WIkhos0fyf1","","","","","","","","","","","","","","","","","","","","",""
"html-keyboard-response","56","114440","0.0-25.0","","null","<div style=""font-size:100px;"">+</div>","null","delaylearn","learning","ITI","65dcc7be05b80dc664537a59","FGQqAXvyLdd0PsPV1WIkhos0fyf1","","","","","","","","","","","","","","","","","","","1792","",""
"html-keyboard-response","57","115398","0.0-26.0-0.0","","954.5999999046326","<div style=""display: flex; flex-direction: column; align-items: center; margin-top: -40px;""><img src=""images/pattern_4.png"" style=""width: 234px; height: 230px; margin-top: -50px;""><div style=""display: flex; justify-content: space-between; margin-top: 33px;""><img src=""images/choice_trial_15.png"" style=""width: 408px; height: 417px; margin-right: 200px;""><img src=""images/choice_trial_9.png"" style=""width: 408px; height: 417px;""></div></div>","f","delaylearn","learning","trial","65dcc7be05b80dc664537a59","FGQqAXvyLdd0PsPV1WIkhos0fyf1","3","images/choice_trial_15.png","images/choice_trial_9.png","images/pattern_4.png","f","f","7000","15","9","3","0","11","1","1","15","80","","","","",""
"html-keyboard-response","58","116412","0.0-26.0-1.0","","null","<div style=""display: flex; flex-direction: column; align-items: center; margin-top: -40px;""><img src=""images/pattern_4.png"" style=""width: 234px; height: 230px; margin-top: -50px;""><div style=""display: flex; justify-content: space-between; margin-top: 33px;""><img src=""images/choice_trial_15.png"" style=""width: 408px; height: 417px; margin-right: 608px;""></div></div>","null","delaylearn","learning","display_response","65dcc7be05b80dc664537a59","FGQqAXvyLdd0PsPV1WIkhos0fyf1","","","","","","","","","","","","","","","","","chosen stimuli: images/choice_trial_15.png","","","",""
"html-keyboard-response","59","123426","0.0-26.0-2.0","","null","","null","delaylearn","learning","feedback_duration_window","65dcc7be05b80dc664537a59","FGQqAXvyLdd0PsPV1WIkhos0fyf1","","","","","","","","","","","","","","","","","","7000","","",""
"html-keyboard-response","60","124931","0.0-26.0-3.0","","null","<div style='margin:auto;width: auto; font-size: 150%'><span style='font-weight: bold; font-size: 100px; color: green;'>+10 points!</span><br><br></div>","null","delaylearn","learning","feedback_image_window","65dcc7be05b80dc664537a59","FGQqAXvyLdd0PsPV1WIkhos0fyf1","","","","","","","","","","","","","","","","","","","","",""
"html-keyboard-response","61","127149","0.0-27.0","","null","<div style=""font-size:100px;"">+</div>","null","delaylearn","learning","ITI","65dcc7be05b80dc664537a59","FGQqAXvyLdd0PsPV1WIkhos0fyf1","","","","","","","","","","","","","","","","","","","2198","",""
"html-keyboard-response","62","127970","0.0-28.0-0.0","","817.3999999761581","<div style=""display: flex; flex-direction: column; align-items: center; margin-top: -40px;""><img src=""images/pattern_5.png"" style=""width: 234px; height: 230px; margin-top: -50px;""><div style=""display: flex; justify-content: space-between; margin-top: 33px;""><img src=""images/choice_trial_2.png"" style=""width: 408px; height: 417px; margin-right: 200px;""><img src=""images/choice_trial_11.png"" style=""width: 408px; height: 417px;""></div></div>","j","delaylearn","learning","trial","65dcc7be05b80dc664537a59","FGQqAXvyLdd0PsPV1WIkhos0fyf1","3","images/choice_trial_2.png","images/choice_trial_11.png","images/pattern_5.png","j","j","750","2","11","4","1","12","1","1","11","90","","","","",""
"html-keyboard-response","63","128987","0.0-28.0-1.0","","null","<div style=""display: flex; flex-direction: column; align-items: center; margin-top: -40px;""><img src=""images/pattern_5.png"" style=""width: 234px; height: 230px; margin-top: -50px;""><div style=""display: flex; justify-content: space-between; margin-top: 33px;""><img src=""images/choice_trial_11.png"" style=""width: 408px; height: 417px; margin-left:608px;""></div></div>","null","delaylearn","learning","display_response","65dcc7be05b80dc664537a59","FGQqAXvyLdd0PsPV1WIkhos0fyf1","","","","","","","","","","","","","","","","","chosen stimuli: images/choice_trial_11.png","","","",""
"html-keyboard-response","64","129766","0.0-28.0-2.0","","null","","null","delaylearn","learning","feedback_duration_window","65dcc7be05b80dc664537a59","FGQqAXvyLdd0PsPV1WIkhos0fyf1","","","","","","","","","","","","","","","","","","750","","",""
"html-keyboard-response","65","131271","0.0-28.0-3.0","","null","<div style='margin:auto;width: auto; font-size: 150%'><span style='font-weight: bold; font-size: 100px; color: green;'>+10 points!</span><br><br></div>","null","delaylearn","learning","feedback_image_window","65dcc7be05b80dc664537a59","FGQqAXvyLdd0PsPV1WIkhos0fyf1","","","","","","","","","","","","","","","","","","","","",""
"html-keyboard-response","66","133600","0.0-29.0","","null","<div style=""font-size:100px;"">+</div>","null","delaylearn","learning","ITI","65dcc7be05b80dc664537a59","FGQqAXvyLdd0PsPV1WIkhos0fyf1","","","","","","","","","","","","","","","","","","","2320","",""
"html-keyboard-response","67","134550","0.0-30.0-0.0","","945.7999999523163","<div style=""display: flex; flex-direction: column; align-items: center; margin-top: -40px;""><img src=""images/pattern_6.png"" style=""width: 234px; height: 230px; margin-top: -50px;""><div style=""display: flex; justify-content: space-between; margin-top: 33px;""><img src=""images/choice_trial_16.png"" style=""width: 408px; height: 417px; margin-right: 200px;""><img src=""images/choice_trial_3.png"" style=""width: 408px; height: 417px;""></div></div>","f","delaylearn","learning","trial","65dcc7be05b80dc664537a59","FGQqAXvyLdd0PsPV1WIkhos0fyf1","3","images/choice_trial_16.png","images/choice_trial_3.png","images/pattern_6.png","j","f","750","16","3","5","0","13","1","0","16","90","","","","",""
"html-keyboard-response","68","135554","0.0-30.0-1.0","","null","<div style=""display: flex; flex-direction: column; align-items: center; margin-top: -40px;""><img src=""images/pattern_6.png"" style=""width: 234px; height: 230px; margin-top: -50px;""><div style=""display: flex; justify-content: space-between; margin-top: 33px;""><img src=""images/choice_trial_16.png"" style=""width: 408px; height: 417px; margin-right: 608px;""></div></div>","null","delaylearn","learning","display_response","65dcc7be05b80dc664537a59","FGQqAXvyLdd0PsPV1WIkhos0fyf1","","","","","","","","","","","","","","","","","chosen stimuli: images/choice_trial_16.png","","","",""
"html-keyboard-response","69","136322","0.0-30.0-2.0","","null","","null","delaylearn","learning","feedback_duration_window","65dcc7be05b80dc664537a59","FGQqAXvyLdd0PsPV1WIkhos0fyf1","","","","","","","","","","","","","","","","","","750","","",""
"html-keyboard-response","70","137830","0.0-30.0-3.0","","null","<div style='margin:auto;width: auto; font-size: 150%'><span style='font-weight: bold; font-size: 100px; color: red;'>0 points!</span><br><br></div>","null","delaylearn","learning","feedback_image_window","65dcc7be05b80dc664537a59","FGQqAXvyLdd0PsPV1WIkhos0fyf1","","","","","","","","","","","","","","","","","","","","",""
"html-keyboard-response","71","138359","0.0-31.0-0.0","","null","","null","","","mood_trial_fixation","","","","","","","","","","","","","","","","","","","","","","",""
"lmdlab-html-vas-response","72","143337","0.0-31.0-1.0","","3968","How happy are you right now?","0.9579193652300702","delaylearn","learning","mood_trial","65dcc7be05b80dc664537a59","FGQqAXvyLdd0PsPV1WIkhos0fyf1","","","","","","","","","","","","","","","","","","","","[""Very unhappy"",""Very happy""]",""
"html-keyboard-response","73","145486","0.0-32.0","","null","<div style=""font-size:100px;"">+</div>","null","delaylearn","learning","ITI","65dcc7be05b80dc664537a59","FGQqAXvyLdd0PsPV1WIkhos0fyf1","","","","","","","","","","","","","","","","","","","2125","",""
"html-keyboard-response","74","146635","0.0-33.0-0.0","","1146.6000000238419","<div style=""display: flex; flex-direction: column; align-items: center; margin-top: -40px;""><img src=""images/pattern_1.png"" style=""width: 234px; height: 230px; margin-top: -50px;""><div style=""display: flex; justify-content: space-between; margin-top: 33px;""><img src=""images/choice_trial_8.png"" style=""width: 408px; height: 417px; margin-right: 200px;""><img src=""images/choice_trial_14.png"" style=""width: 408px; height: 417px;""></div></div>","f","delaylearn","learning","trial","65dcc7be05b80dc664537a59","FGQqAXvyLdd0PsPV1WIkhos0fyf1","3","images/choice_trial_8.png","images/choice_trial_14.png","images/pattern_1.png","j","j","7000","8","14","1","1","14","0","0","8","90","","","","",""
"html-keyboard-response","75","147643","0.0-33.0-1.0","","null","<div style=""display: flex; flex-direction: column; align-items: center; margin-top: -40px;""><img src=""images/pattern_1.png"" style=""width: 234px; height: 230px; margin-top: -50px;""><div style=""display: flex; justify-content: space-between; margin-top: 33px;""><img src=""images/choice_trial_8.png"" style=""width: 408px; height: 417px; margin-right: 608px;""></div></div>","null","delaylearn","learning","display_response","65dcc7be05b80dc664537a59","FGQqAXvyLdd0PsPV1WIkhos0fyf1","","","","","","","","","","","","","","","","","chosen stimuli: images/choice_trial_8.png","","","",""
"html-keyboard-response","76","154655","0.0-33.0-2.0","","null","","null","delaylearn","learning","feedback_duration_window","65dcc7be05b80dc664537a59","FGQqAXvyLdd0PsPV1WIkhos0fyf1","","","","","","","","","","","","","","","","","","7000","","",""
"html-keyboard-response","77","156159","0.0-33.0-3.0","","null","<div style='margin:auto;width: auto; font-size: 150%'><span style='font-weight: bold; font-size: 100px; color: red;'>0 points!</span><br><br></div>","null","delaylearn","learning","feedback_image_window","65dcc7be05b80dc664537a59","FGQqAXvyLdd0PsPV1WIkhos0fyf1","","","","","","","","","","","","","","","","","","","","",""
"html-keyboard-response","78","158148","0.0-34.0","","null","<div style=""font-size:100px;"">+</div>","null","delaylearn","learning","ITI","65dcc7be05b80dc664537a59","FGQqAXvyLdd0PsPV1WIkhos0fyf1","","","","","","","","","","","","","","","","","","","1984","",""
"html-keyboard-response","79","159381","0.0-35.0-0.0","","1229.7999999523163","<div style=""display: flex; flex-direction: column; align-items: center; margin-top: -40px;""><img src=""images/pattern_3.png"" style=""width: 234px; height: 230px; margin-top: -50px;""><div style=""display: flex; justify-content: space-between; margin-top: 33px;""><img src=""images/choice_trial_10.png"" style=""width: 408px; height: 417px; margin-right: 200px;""><img src=""images/choice_trial_13.png"" style=""width: 408px; height: 417px;""></div></div>","j","delaylearn","learning","trial","65dcc7be05b80dc664537a59","FGQqAXvyLdd0PsPV1WIkhos0fyf1","3","images/choice_trial_10.png","images/choice_trial_13.png","images/pattern_3.png","f","j","7000","10","13","2","1","15","1","0","13","90","","","","",""
"html-keyboard-response","80","160388","0.0-35.0-1.0","","null","<div style=""display: flex; flex-direction: column; align-items: center; margin-top: -40px;""><img src=""images/pattern_3.png"" style=""width: 234px; height: 230px; margin-top: -50px;""><div style=""display: flex; justify-content: space-between; margin-top: 33px;""><img src=""images/choice_trial_13.png"" style=""width: 408px; height: 417px; margin-left:608px;""></div></div>","null","delaylearn","learning","display_response","65dcc7be05b80dc664537a59","FGQqAXvyLdd0PsPV1WIkhos0fyf1","","","","","","","","","","","","","","","","","chosen stimuli: images/choice_trial_13.png","","","",""
"html-keyboard-response","81","167395","0.0-35.0-2.0","","null","","null","delaylearn","learning","feedback_duration_window","65dcc7be05b80dc664537a59","FGQqAXvyLdd0PsPV1WIkhos0fyf1","","","","","","","","","","","","","","","","","","7000","","",""
"html-keyboard-response","82","168908","0.0-35.0-3.0","","null","<div style='margin:auto;width: auto; font-size: 150%'><span style='font-weight: bold; font-size: 100px; color: red;'>0 points!</span><br><br></div>","null","delaylearn","learning","feedback_image_window","65dcc7be05b80dc664537a59","FGQqAXvyLdd0PsPV1WIkhos0fyf1","","","","","","","","","","","","","","","","","","","","",""
"html-keyboard-response","83","170760","0.0-36.0","","null","<div style=""font-size:100px;"">+</div>","null","delaylearn","learning","ITI","65dcc7be05b80dc664537a59","FGQqAXvyLdd0PsPV1WIkhos0fyf1","","","","","","","","","","","","","","","","","","","1846","",""
"html-keyboard-response","84","171952","0.0-37.0-0.0","","1188.4000000953674","<div style=""display: flex; flex-direction: column; align-items: center; margin-top: -40px;""><img src=""images/pattern_5.png"" style=""width: 234px; height: 230px; margin-top: -50px;""><div style=""display: flex; justify-content: space-between; margin-top: 33px;""><img src=""images/choice_trial_11.png"" style=""width: 408px; height: 417px; margin-right: 200px;""><img src=""images/choice_trial_2.png"" style=""width: 408px; height: 417px;""></div></div>","f","delaylearn","learning","trial","65dcc7be05b80dc664537a59","FGQqAXvyLdd0PsPV1WIkhos0fyf1","3","images/choice_trial_11.png","images/choice_trial_2.png","images/pattern_5.png","f","f","750","11","2","4","0","16","1","1","11","100","","","","",""
"html-keyboard-response","85","172956","0.0-37.0-1.0","","null","<div style=""display: flex; flex-direction: column; align-items: center; margin-top: -40px;""><img src=""images/pattern_5.png"" style=""width: 234px; height: 230px; margin-top: -50px;""><div style=""display: flex; justify-content: space-between; margin-top: 33px;""><img src=""images/choice_trial_11.png"" style=""width: 408px; height: 417px; margin-right: 608px;""></div></div>","null","delaylearn","learning","display_response","65dcc7be05b80dc664537a59","FGQqAXvyLdd0PsPV1WIkhos0fyf1","","","","","","","","","","","","","","","","","chosen stimuli: images/choice_trial_11.png","","","",""
"html-keyboard-response","86","173720","0.0-37.0-2.0","","null","","null","delaylearn","learning","feedback_duration_window","65dcc7be05b80dc664537a59","FGQqAXvyLdd0PsPV1WIkhos0fyf1","","","","","","","","","","","","","","","","","","750","","",""
"html-keyboard-response","87","175226","0.0-37.0-3.0","","null","<div style='margin:auto;width: auto; font-size: 150%'><span style='font-weight: bold; font-size: 100px; color: green;'>+10 points!</span><br><br></div>","null","delaylearn","learning","feedback_image_window","65dcc7be05b80dc664537a59","FGQqAXvyLdd0PsPV1WIkhos0fyf1","","","","","","","","","","","","","","","","","","","","",""
"html-keyboard-response","88","175731","0.0-38.0-0.0","","null","","null","","","mood_trial_fixation","","","","","","","","","","","","","","","","","","","","","","",""
"lmdlab-html-vas-response","89","180285","0.0-38.0-1.0","","3544","How happy are you right now?","0.9036655250754467","delaylearn","learning","mood_trial","65dcc7be05b80dc664537a59","FGQqAXvyLdd0PsPV1WIkhos0fyf1","","","","","","","","","","","","","","","","","","","","[""Very unhappy"",""Very happy""]",""
"html-keyboard-response","90","181919","0.0-39.0","","null","<div style=""font-size:100px;"">+</div>","null","delaylearn","learning","ITI","65dcc7be05b80dc664537a59","FGQqAXvyLdd0PsPV1WIkhos0fyf1","","","","","","","","","","","","","","","","","","","1630","",""
"html-keyboard-response","91","182960","0.0-40.0-0.0","","1036.8000000715256","<div style=""display: flex; flex-direction: column; align-items: center; margin-top: -40px;""><img src=""images/pattern_6.png"" style=""width: 234px; height: 230px; margin-top: -50px;""><div style=""display: flex; justify-content: space-between; margin-top: 33px;""><img src=""images/choice_trial_16.png"" style=""width: 408px; height: 417px; margin-right: 200px;""><img src=""images/choice_trial_3.png"" style=""width: 408px; height: 417px;""></div></div>","j","delaylearn","learning","trial","65dcc7be05b80dc664537a59","FGQqAXvyLdd0PsPV1WIkhos0fyf1","3","images/choice_trial_16.png","images/choice_trial_3.png","images/pattern_6.png","f","f","750","16","3","5","0","17","0","0","3","100","","","","",""
"html-keyboard-response","92","183986","0.0-40.0-1.0","","null","<div style=""display: flex; flex-direction: column; align-items: center; margin-top: -40px;""><img src=""images/pattern_6.png"" style=""width: 234px; height: 230px; margin-top: -50px;""><div style=""display: flex; justify-content: space-between; margin-top: 33px;""><img src=""images/choice_trial_3.png"" style=""width: 408px; height: 417px; margin-left:608px;""></div></div>","null","delaylearn","learning","display_response","65dcc7be05b80dc664537a59","FGQqAXvyLdd0PsPV1WIkhos0fyf1","","","","","","","","","","","","","","","","","chosen stimuli: images/choice_trial_3.png","","","",""
"html-keyboard-response","93","184752","0.0-40.0-2.0","","null","","null","delaylearn","learning","feedback_duration_window","65dcc7be05b80dc664537a59","FGQqAXvyLdd0PsPV1WIkhos0fyf1","","","","","","","","","","","","","","","","","","750","","",""
"html-keyboard-response","94","186262","0.0-40.0-3.0","","null","<div style='margin:auto;width: auto; font-size: 150%'><span style='font-weight: bold; font-size: 100px; color: red;'>0 points!</span><br><br></div>","null","delaylearn","learning","feedback_image_window","65dcc7be05b80dc664537a59","FGQqAXvyLdd0PsPV1WIkhos0fyf1","","","","","","","","","","","","","","","","","","","","",""
"html-keyboard-response","95","188272","0.0-41.0","","null","<div style=""font-size:100px;"">+</div>","null","delaylearn","learning","ITI","65dcc7be05b80dc664537a59","FGQqAXvyLdd0PsPV1WIkhos0fyf1","","","","","","","","","","","","","","","","","","","2002","",""
"html-keyboard-response","96","189568","0.0-42.0-0.0","","1292.4000000953674","<div style=""display: flex; flex-direction: column; align-items: center; margin-top: -40px;""><img src=""images/pattern_4.png"" style=""width: 234px; height: 230px; margin-top: -50px;""><div style=""display: flex; justify-content: space-between; margin-top: 33px;""><img src=""images/choice_trial_9.png"" style=""width: 408px; height: 417px; margin-right: 200px;""><img src=""images/choice_trial_15.png"" style=""width: 408px; height: 417px;""></div></div>","f","delaylearn","learning","trial","65dcc7be05b80dc664537a59","FGQqAXvyLdd0PsPV1WIkhos0fyf1","3","images/choice_trial_9.png","images/choice_trial_15.png","images/pattern_4.png","j","j","7000","9","15","3","1","18","0","0","9","100","","","","",""
"html-keyboard-response","97","190577","0.0-42.0-1.0","","null","<div style=""display: flex; flex-direction: column; align-items: center; margin-top: -40px;""><img src=""images/pattern_4.png"" style=""width: 234px; height: 230px; margin-top: -50px;""><div style=""display: flex; justify-content: space-between; margin-top: 33px;""><img src=""images/choice_trial_9.png"" style=""width: 408px; height: 417px; margin-right: 608px;""></div></div>","null","delaylearn","learning","display_response","65dcc7be05b80dc664537a59","FGQqAXvyLdd0PsPV1WIkhos0fyf1","","","","","","","","","","","","","","","","","chosen stimuli: images/choice_trial_9.png","","","",""
"html-keyboard-response","98","197588","0.0-42.0-2.0","","null","","null","delaylearn","learning","feedback_duration_window","65dcc7be05b80dc664537a59","FGQqAXvyLdd0PsPV1WIkhos0fyf1","","","","","","","","","","","","","","","","","","7000","","",""
"html-keyboard-response","99","199091","0.0-42.0-3.0","","null","<div style='margin:auto;width: auto; font-size: 150%'><span style='font-weight: bold; font-size: 100px; color: red;'>0 points!</span><br><br></div>","null","delaylearn","learning","feedback_image_window","65dcc7be05b80dc664537a59","FGQqAXvyLdd0PsPV1WIkhos0fyf1","","","","","","","","","","","","","","","","","","","","",""
"html-keyboard-response","100","200652","0.0-43.0","","null","<div style=""font-size:100px;"">+</div>","null","delaylearn","learning","ITI","65dcc7be05b80dc664537a59","FGQqAXvyLdd0PsPV1WIkhos0fyf1","","","","","","","","","","","","","","","","","","","1553","",""
"html-keyboard-response","101","202147","0.0-44.0-0.0","","1490.1999999284744","<div style=""display: flex; flex-direction: column; align-items: center; margin-top: -40px;""><img src=""images/pattern_7.png"" style=""width: 234px; height: 230px; margin-top: -50px;""><div style=""display: flex; justify-content: space-between; margin-top: 33px;""><img src=""images/choice_trial_6.png"" style=""width: 408px; height: 417px; margin-right: 200px;""><img src=""images/choice_trial_12.png"" style=""width: 408px; height: 417px;""></div></div>","j","delaylearn","learning","trial","65dcc7be05b80dc664537a59","FGQqAXvyLdd0PsPV1WIkhos0fyf1","3","images/choice_trial_6.png","images/choice_trial_12.png","images/pattern_7.png","j","f","750","6","12","6","0","19","0","1","12","110","","","","",""
"html-keyboard-response","102","203158","0.0-44.0-1.0","","null","<div style=""display: flex; flex-direction: column; align-items: center; margin-top: -40px;""><img src=""images/pattern_7.png"" style=""width: 234px; height: 230px; margin-top: -50px;""><div style=""display: flex; justify-content: space-between; margin-top: 33px;""><img src=""images/choice_trial_12.png"" style=""width: 408px; height: 417px; margin-left:608px;""></div></div>","null","delaylearn","learning","display_response","65dcc7be05b80dc664537a59","FGQqAXvyLdd0PsPV1WIkhos0fyf1","","","","","","","","","","","","","","","","","chosen stimuli: images/choice_trial_12.png","","","",""
"html-keyboard-response","103","203931","0.0-44.0-2.0","","null","","null","delaylearn","learning","feedback_duration_window","65dcc7be05b80dc664537a59","FGQqAXvyLdd0PsPV1WIkhos0fyf1","","","","","","","","","","","","","","","","","","750","","",""
"html-keyboard-response","104","205445","0.0-44.0-3.0","","null","<div style='margin:auto;width: auto; font-size: 150%'><span style='font-weight: bold; font-size: 100px; color: green;'>+10 points!</span><br><br></div>","null","delaylearn","learning","feedback_image_window","65dcc7be05b80dc664537a59","FGQqAXvyLdd0PsPV1WIkhos0fyf1","","","","","","","","","","","","","","","","","","","","",""
"html-keyboard-response","105","207341","0.0-45.0","","null","<div style=""font-size:100px;"">+</div>","null","delaylearn","learning","ITI","65dcc7be05b80dc664537a59","FGQqAXvyLdd0PsPV1WIkhos0fyf1","","","","","","","","","","","","","","","","","","","1890","",""
"html-keyboard-response","106","209526","0.0-46.0-0.0","","2181.7999999523163","<div style=""display: flex; flex-direction: column; align-items: center; margin-top: -40px;""><img src=""images/pattern_1.png"" style=""width: 234px; height: 230px; margin-top: -50px;""><div style=""display: flex; justify-content: space-between; margin-top: 33px;""><img src=""images/choice_trial_14.png"" style=""width: 408px; height: 417px; margin-right: 200px;""><img src=""images/choice_trial_8.png"" style=""width: 408px; height: 417px;""></div></div>","j","delaylearn","learning","trial","65dcc7be05b80dc664537a59","FGQqAXvyLdd0PsPV1WIkhos0fyf1","3","images/choice_trial_14.png","images/choice_trial_8.png","images/pattern_1.png","f","f","7000","14","8","1","0","20","0","0","8","110","","","","",""
"html-keyboard-response","107","210542","0.0-46.0-1.0","","null","<div style=""display: flex; flex-direction: column; align-items: center; margin-top: -40px;""><img src=""images/pattern_1.png"" style=""width: 234px; height: 230px; margin-top: -50px;""><div style=""display: flex; justify-content: space-between; margin-top: 33px;""><img src=""images/choice_trial_8.png"" style=""width: 408px; height: 417px; margin-left:608px;""></div></div>","null","delaylearn","learning","display_response","65dcc7be05b80dc664537a59","FGQqAXvyLdd0PsPV1WIkhos0fyf1","","","","","","","","","","","","","","","","","chosen stimuli: images/choice_trial_8.png","","","",""
"html-keyboard-response","108","217552","0.0-46.0-2.0","","null","","null","delaylearn","learning","feedback_duration_window","65dcc7be05b80dc664537a59","FGQqAXvyLdd0PsPV1WIkhos0fyf1","","","","","","","","","","","","","","","","","","7000","","",""
"html-keyboard-response","109","219060","0.0-46.0-3.0","","null","<div style='margin:auto;width: auto; font-size: 150%'><span style='font-weight: bold; font-size: 100px; color: red;'>0 points!</span><br><br></div>","null","delaylearn","learning","feedback_image_window","65dcc7be05b80dc664537a59","FGQqAXvyLdd0PsPV1WIkhos0fyf1","","","","","","","","","","","","","","","","","","","","",""
"html-keyboard-response","110","220965","0.0-47.0","","null","<div style=""font-size:100px;"">+</div>","null","delaylearn","learning","ITI","65dcc7be05b80dc664537a59","FGQqAXvyLdd0PsPV1WIkhos0fyf1","","","","","","","","","","","","","","","","","","","1889","",""
"html-keyboard-response","111","222489","0.0-48.0-0.0","","1520","<div style=""display: flex; flex-direction: column; align-items: center; margin-top: -40px;""><img src=""images/pattern_6.png"" style=""width: 234px; height: 230px; margin-top: -50px;""><div style=""display: flex; justify-content: space-between; margin-top: 33px;""><img src=""images/choice_trial_3.png"" style=""width: 408px; height: 417px; margin-right: 200px;""><img src=""images/choice_trial_16.png"" style=""width: 408px; height: 417px;""></div></div>","j","delaylearn","learning","trial","65dcc7be05b80dc664537a59","FGQqAXvyLdd0PsPV1WIkhos0fyf1","3","images/choice_trial_3.png","images/choice_trial_16.png","images/pattern_6.png","j","j","750","3","16","5","1","21","1","1","16","120","","","","",""
"html-keyboard-response","112","223504","0.0-48.0-1.0","","null","<div style=""display: flex; flex-direction: column; align-items: center; margin-top: -40px;""><img src=""images/pattern_6.png"" style=""width: 234px; height: 230px; margin-top: -50px;""><div style=""display: flex; justify-content: space-between; margin-top: 33px;""><img src=""images/choice_trial_16.png"" style=""width: 408px; height: 417px; margin-left:608px;""></div></div>","null","delaylearn","learning","display_response","65dcc7be05b80dc664537a59","FGQqAXvyLdd0PsPV1WIkhos0fyf1","","","","","","","","","","","","","","","","","chosen stimuli: images/choice_trial_16.png","","","",""
"html-keyboard-response","113","224276","0.0-48.0-2.0","","null","","null","delaylearn","learning","feedback_duration_window","65dcc7be05b80dc664537a59","FGQqAXvyLdd0PsPV1WIkhos0fyf1","","","","","","","","","","","","","","","","","","750","","",""
"html-keyboard-response","114","225781","0.0-48.0-3.0","","null","<div style='margin:auto;width: auto; font-size: 150%'><span style='font-weight: bold; font-size: 100px; color: green;'>+10 points!</span><br><br></div>","null","delaylearn","learning","feedback_image_window","65dcc7be05b80dc664537a59","FGQqAXvyLdd0PsPV1WIkhos0fyf1","","","","","","","","","","","","","","","","","","","","",""
"html-keyboard-response","115","227941","0.0-49.0","","null","<div style=""font-size:100px;"">+</div>","null","delaylearn","learning","ITI","65dcc7be05b80dc664537a59","FGQqAXvyLdd0PsPV1WIkhos0fyf1","","","","","","","","","","","","","","","","","","","2156","",""
"html-keyboard-response","116","229058","0.0-50.0-0.0","","1113","<div style=""display: flex; flex-direction: column; align-items: center; margin-top: -40px;""><img src=""images/pattern_4.png"" style=""width: 234px; height: 230px; margin-top: -50px;""><div style=""display: flex; justify-content: space-between; margin-top: 33px;""><img src=""images/choice_trial_15.png"" style=""width: 408px; height: 417px; margin-right: 200px;""><img src=""images/choice_trial_9.png"" style=""width: 408px; height: 417px;""></div></div>","f","delaylearn","learning","trial","65dcc7be05b80dc664537a59","FGQqAXvyLdd0PsPV1WIkhos0fyf1","3","images/choice_trial_15.png","images/choice_trial_9.png","images/pattern_4.png","f","f","7000","15","9","3","0","22","1","1","15","130","","","","",""
"html-keyboard-response","117","230077","0.0-50.0-1.0","","null","<div style=""display: flex; flex-direction: column; align-items: center; margin-top: -40px;""><img src=""images/pattern_4.png"" style=""width: 234px; height: 230px; margin-top: -50px;""><div style=""display: flex; justify-content: space-between; margin-top: 33px;""><img src=""images/choice_trial_15.png"" style=""width: 408px; height: 417px; margin-right: 608px;""></div></div>","null","delaylearn","learning","display_response","65dcc7be05b80dc664537a59","FGQqAXvyLdd0PsPV1WIkhos0fyf1","","","","","","","","","","","","","","","","","chosen stimuli: images/choice_trial_15.png","","","",""
"html-keyboard-response","118","237093","0.0-50.0-2.0","","null","","null","delaylearn","learning","feedback_duration_window","65dcc7be05b80dc664537a59","FGQqAXvyLdd0PsPV1WIkhos0fyf1","","","","","","","","","","","","","","","","","","7000","","",""
"html-keyboard-response","119","238611","0.0-50.0-3.0","","null","<div style='margin:auto;width: auto; font-size: 150%'><span style='font-weight: bold; font-size: 100px; color: green;'>+10 points!</span><br><br></div>","null","delaylearn","learning","feedback_image_window","65dcc7be05b80dc664537a59","FGQqAXvyLdd0PsPV1WIkhos0fyf1","","","","","","","","","","","","","","","","","","","","",""
"html-keyboard-response","120","239126","0.0-51.0-0.0","","null","","null","","","mood_trial_fixation","","","","","","","","","","","","","","","","","","","","","","",""
"lmdlab-html-vas-response","121","243370","0.0-51.0-1.0","","3235","How happy are you right now?","0.9709402868671798","delaylearn","learning","mood_trial","65dcc7be05b80dc664537a59","FGQqAXvyLdd0PsPV1WIkhos0fyf1","","","","","","","","","","","","","","","","","","","","[""Very unhappy"",""Very happy""]",""
"html-keyboard-response","122","245175","0.0-52.0","","null","<div style=""font-size:100px;"">+</div>","null","delaylearn","learning","ITI","65dcc7be05b80dc664537a59","FGQqAXvyLdd0PsPV1WIkhos0fyf1","","","","","","","","","","","","","","","","","","","1800","",""
"html-keyboard-response","123","246774","0.0-53.0-0.0","","1596.1999999284744","<div style=""display: flex; flex-direction: column; align-items: center; margin-top: -40px;""><img src=""images/pattern_7.png"" style=""width: 234px; height: 230px; margin-top: -50px;""><div style=""display: flex; justify-content: space-between; margin-top: 33px;""><img src=""images/choice_trial_12.png"" style=""width: 408px; height: 417px; margin-right: 200px;""><img src=""images/choice_trial_6.png"" style=""width: 408px; height: 417px;""></div></div>","f","delaylearn","learning","trial","65dcc7be05b80dc664537a59","FGQqAXvyLdd0PsPV1WIkhos0fyf1","3","images/choice_trial_12.png","images/choice_trial_6.png","images/pattern_7.png","j","j","750","12","6","6","1","23","0","0","12","130","","","","",""
"html-keyboard-response","124","247792","0.0-53.0-1.0","","null","<div style=""display: flex; flex-direction: column; align-items: center; margin-top: -40px;""><img src=""images/pattern_7.png"" style=""width: 234px; height: 230px; margin-top: -50px;""><div style=""display: flex; justify-content: space-between; margin-top: 33px;""><img src=""images/choice_trial_12.png"" style=""width: 408px; height: 417px; margin-right: 608px;""></div></div>","null","delaylearn","learning","display_response","65dcc7be05b80dc664537a59","FGQqAXvyLdd0PsPV1WIkhos0fyf1","","","","","","","","","","","","","","","","","chosen stimuli: images/choice_trial_12.png","","","",""
"html-keyboard-response","125","248546","0.0-53.0-2.0","","null","","null","delaylearn","learning","feedback_duration_window","65dcc7be05b80dc664537a59","FGQqAXvyLdd0PsPV1WIkhos0fyf1","","","","","","","","","","","","","","","","","","750","","",""
"html-keyboard-response","126","250065","0.0-53.0-3.0","","null","<div style='margin:auto;width: auto; font-size: 150%'><span style='font-weight: bold; font-size: 100px; color: red;'>0 points!</span><br><br></div>","null","delaylearn","learning","feedback_image_window","65dcc7be05b80dc664537a59","FGQqAXvyLdd0PsPV1WIkhos0fyf1","","","","","","","","","","","","","","","","","","","","",""
"html-keyboard-response","127","252327","0.0-54.0","","null","<div style=""font-size:100px;"">+</div>","null","delaylearn","learning","ITI","65dcc7be05b80dc664537a59","FGQqAXvyLdd0PsPV1WIkhos0fyf1","","","","","","","","","","","","","","","","","","","2252","",""
"html-keyboard-response","128","253981","0.0-55.0-0.0","","1651.1999999284744","<div style=""display: flex; flex-direction: column; align-items: center; margin-top: -40px;""><img src=""images/pattern_1.png"" style=""width: 234px; height: 230px; margin-top: -50px;""><div style=""display: flex; justify-content: space-between; margin-top: 33px;""><img src=""images/choice_trial_8.png"" style=""width: 408px; height: 417px; margin-right: 200px;""><img src=""images/choice_trial_14.png"" style=""width: 408px; height: 417px;""></div></div>","j","delaylearn","learning","trial","65dcc7be05b80dc664537a59","FGQqAXvyLdd0PsPV1WIkhos0fyf1","3","images/choice_trial_8.png","images/choice_trial_14.png","images/pattern_1.png","f","j","7000","8","14","1","1","24","1","0","14","130","","","","",""
"html-keyboard-response","129","254998","0.0-55.0-1.0","","null","<div style=""display: flex; flex-direction: column; align-items: center; margin-top: -40px;""><img src=""images/pattern_1.png"" style=""width: 234px; height: 230px; margin-top: -50px;""><div style=""display: flex; justify-content: space-between; margin-top: 33px;""><img src=""images/choice_trial_14.png"" style=""width: 408px; height: 417px; margin-left:608px;""></div></div>","null","delaylearn","learning","display_response","65dcc7be05b80dc664537a59","FGQqAXvyLdd0PsPV1WIkhos0fyf1","","","","","","","","","","","","","","","","","chosen stimuli: images/choice_trial_14.png","","","",""
"html-keyboard-response","130","262011","0.0-55.0-2.0","","null","","null","delaylearn","learning","feedback_duration_window","65dcc7be05b80dc664537a59","FGQqAXvyLdd0PsPV1WIkhos0fyf1","","","","","","","","","","","","","","","","","","7000","","",""
"html-keyboard-response","131","263529","0.0-55.0-3.0","","null","<div style='margin:auto;width: auto; font-size: 150%'><span style='font-weight: bold; font-size: 100px; color: red;'>0 points!</span><br><br></div>","null","delaylearn","learning","feedback_image_window","65dcc7be05b80dc664537a59","FGQqAXvyLdd0PsPV1WIkhos0fyf1","","","","","","","","","","","","","","","","","","","","",""
"html-keyboard-response","132","265254","0.0-56.0","","null","<div style=""font-size:100px;"">+</div>","null","delaylearn","learning","ITI","65dcc7be05b80dc664537a59","FGQqAXvyLdd0PsPV1WIkhos0fyf1","","","","","","","","","","","","","","","","","","","1706","",""
"html-keyboard-response","133","266755","0.0-57.0-0.0","","1496.5","<div style=""display: flex; flex-direction: column; align-items: center; margin-top: -40px;""><img src=""images/pattern_5.png"" style=""width: 234px; height: 230px; margin-top: -50px;""><div style=""display: flex; justify-content: space-between; margin-top: 33px;""><img src=""images/choice_trial_2.png"" style=""width: 408px; height: 417px; margin-right: 200px;""><img src=""images/choice_trial_11.png"" style=""width: 408px; height: 417px;""></div></div>","j","delaylearn","learning","trial","65dcc7be05b80dc664537a59","FGQqAXvyLdd0PsPV1WIkhos0fyf1","3","images/choice_trial_2.png","images/choice_trial_11.png","images/pattern_5.png","j","j","750","2","11","4","1","25","1","1","11","140","","","","",""
"html-keyboard-response","134","267765","0.0-57.0-1.0","","null","<div style=""display: flex; flex-direction: column; align-items: center; margin-top: -40px;""><img src=""images/pattern_5.png"" style=""width: 234px; height: 230px; margin-top: -50px;""><div style=""display: flex; justify-content: space-between; margin-top: 33px;""><img src=""images/choice_trial_11.png"" style=""width: 408px; height: 417px; margin-left:608px;""></div></div>","null","delaylearn","learning","display_response","65dcc7be05b80dc664537a59","FGQqAXvyLdd0PsPV1WIkhos0fyf1","","","","","","","","","","","","","","","","","chosen stimuli: images/choice_trial_11.png","","","",""
"html-keyboard-response","135","268523","0.0-57.0-2.0","","null","","null","delaylearn","learning","feedback_duration_window","65dcc7be05b80dc664537a59","FGQqAXvyLdd0PsPV1WIkhos0fyf1","","","","","","","","","","","","","","","","","","750","","",""
"html-keyboard-response","136","270031","0.0-57.0-3.0","","null","<div style='margin:auto;width: auto; font-size: 150%'><span style='font-weight: bold; font-size: 100px; color: green;'>+10 points!</span><br><br></div>","null","delaylearn","learning","feedback_image_window","65dcc7be05b80dc664537a59","FGQqAXvyLdd0PsPV1WIkhos0fyf1","","","","","","","","","","","","","","","","","","","","",""
"html-keyboard-response","137","272253","0.0-58.0","","null","<div style=""font-size:100px;"">+</div>","null","delaylearn","learning","ITI","65dcc7be05b80dc664537a59","FGQqAXvyLdd0PsPV1WIkhos0fyf1","","","","","","","","","","","","","","","","","","","2218","",""
"html-keyboard-response","138","273496","0.0-59.0-0.0","","1239.1000000238419","<div style=""display: flex; flex-direction: column; align-items: center; margin-top: -40px;""><img src=""images/pattern_3.png"" style=""width: 234px; height: 230px; margin-top: -50px;""><div style=""display: flex; justify-content: space-between; margin-top: 33px;""><img src=""images/choice_trial_10.png"" style=""width: 408px; height: 417px; margin-right: 200px;""><img src=""images/choice_trial_13.png"" style=""width: 408px; height: 417px;""></div></div>","j","delaylearn","learning","trial","65dcc7be05b80dc664537a59","FGQqAXvyLdd0PsPV1WIkhos0fyf1","3","images/choice_trial_10.png","images/choice_trial_13.png","images/pattern_3.png","j","j","7000","10","13","2","1","26","1","1","13","150","","","","",""
"html-keyboard-response","139","274502","0.0-59.0-1.0","","null","<div style=""display: flex; flex-direction: column; align-items: center; margin-top: -40px;""><img src=""images/pattern_3.png"" style=""width: 234px; height: 230px; margin-top: -50px;""><div style=""display: flex; justify-content: space-between; margin-top: 33px;""><img src=""images/choice_trial_13.png"" style=""width: 408px; height: 417px; margin-left:608px;""></div></div>","null","delaylearn","learning","display_response","65dcc7be05b80dc664537a59","FGQqAXvyLdd0PsPV1WIkhos0fyf1","","","","","","","","","","","","","","","","","chosen stimuli: images/choice_trial_13.png","","","",""
"html-keyboard-response","140","281509","0.0-59.0-2.0","","null","","null","delaylearn","learning","feedback_duration_window","65dcc7be05b80dc664537a59","FGQqAXvyLdd0PsPV1WIkhos0fyf1","","","","","","","","","","","","","","","","","","7000","","",""
"html-keyboard-response","141","283032","0.0-59.0-3.0","","null","<div style='margin:auto;width: auto; font-size: 150%'><span style='font-weight: bold; font-size: 100px; color: green;'>+10 points!</span><br><br></div>","null","delaylearn","learning","feedback_image_window","65dcc7be05b80dc664537a59","FGQqAXvyLdd0PsPV1WIkhos0fyf1","","","","","","","","","","","","","","","","","","","","",""
"lmdlab-html-vas-response","142","290098","0.0-60.0-0.0","","5537","*How <b><u>confident</u></b> are you feeling about your answers at this moment?*","0.5369095656301922","rewlearn","rate_confidence","","65dcc7be05b80dc664537a59","FGQqAXvyLdd0PsPV1WIkhos0fyf1","","","","","","","","","","","","","","","","","","","","[""No confidence"",""Complete confidence""]",""
"lmdlab-rest-trial-limit","143","298513","0.0-60.0-1.0","","6905.399999976158","<div style=""font-size:40px;""><b>Please take a break!</b><br><br><br><br><p>Great work: you earned 150 points.<br><br><br><p>You have completed part(s) 1 of 5.<br><br><br><br>When you are ready to continue<br><br><br>please click the button.</p><br><br>","0","delaylearn","learning","break","65dcc7be05b80dc664537a59","FGQqAXvyLdd0PsPV1WIkhos0fyf1","","","","","","","","","","","","","","","","","","","","","0"
"html-keyboard-response","144","301527","0.0-60.0-2.0","","null","<div style=""font-size:100px;"">+</div>","null","delaylearn","learning","pre_fixation","65dcc7be05b80dc664537a59","","","","","","","","","","","","","","","","","","","","","",""
"lmdlab-html-vas-response","145","306782","0.0-60.0-3.0-0.0","","4231","How happy are you right now?","0.9362178291682208","delaylearn","learning","mood_baseline","65dcc7be05b80dc664537a59","FGQqAXvyLdd0PsPV1WIkhos0fyf1","","","","","","","","","","","","","","","","","","","","[""Very unhappy"",""Very happy""]",""
"html-keyboard-response","146","308299","0.0-60.0-3.0-1.0","","null","","null","","","mood_baseline_fixation","","","","","","","","","","","","","","","","","","","","","","",""
"html-keyboard-response","147","310585","0.0-61.0","","null","<div style=""font-size:100px;"">+</div>","null","delaylearn","learning","ITI","65dcc7be05b80dc664537a59","FGQqAXvyLdd0PsPV1WIkhos0fyf1","","","","","","","","","","","","","","","","","","","2273","",""
"html-keyboard-response","148","311840","0.0-62.0-0.0","","1251.1999999284744","<div style=""display: flex; flex-direction: column; align-items: center; margin-top: -40px;""><img src=""images/pattern_7.png"" style=""width: 234px; height: 230px; margin-top: -50px;""><div style=""display: flex; justify-content: space-between; margin-top: 33px;""><img src=""images/choice_trial_12.png"" style=""width: 408px; height: 417px; margin-right: 200px;""><img src=""images/choice_trial_6.png"" style=""width: 408px; height: 417px;""></div></div>","f","delaylearn","learning","trial","65dcc7be05b80dc664537a59","FGQqAXvyLdd0PsPV1WIkhos0fyf1","3","images/choice_trial_12.png","images/choice_trial_6.png","images/pattern_7.png","j","j","750","12","6","6","1","27","0","0","12","150","","","","",""
"html-keyboard-response","149","312847","0.0-62.0-1.0","","null","<div style=""display: flex; flex-direction: column; align-items: center; margin-top: -40px;""><img src=""images/pattern_7.png"" style=""width: 234px; height: 230px; margin-top: -50px;""><div style=""display: flex; justify-content: space-between; margin-top: 33px;""><img src=""images/choice_trial_12.png"" style=""width: 408px; height: 417px; margin-right: 608px;""></div></div>","null","delaylearn","learning","display_response","65dcc7be05b80dc664537a59","FGQqAXvyLdd0PsPV1WIkhos0fyf1","","","","","","","","","","","","","","","","","chosen stimuli: images/choice_trial_12.png","","","",""
"html-keyboard-response","150","313617","0.0-62.0-2.0","","null","","null","delaylearn","learning","feedback_duration_window","65dcc7be05b80dc664537a59","FGQqAXvyLdd0PsPV1WIkhos0fyf1","","","","","","","","","","","","","","","","","","750","","",""
"html-keyboard-response","151","315121","0.0-62.0-3.0","","null","<div style='margin:auto;width: auto; font-size: 150%'><span style='font-weight: bold; font-size: 100px; color: red;'>0 points!</span><br><br></div>","null","delaylearn","learning","feedback_image_window","65dcc7be05b80dc664537a59","FGQqAXvyLdd0PsPV1WIkhos0fyf1","","","","","","","","","","","","","","","","","","","","",""
"html-keyboard-response","152","315640","0.0-63.0-0.0","","null","","null","","","mood_trial_fixation","","","","","","","","","","","","","","","","","","","","","","",""
"lmdlab-html-vas-response","153","320630","0.0-63.0-1.0","","3964","How happy are you right now?","0.9448984435929606","delaylearn","learning","mood_trial","65dcc7be05b80dc664537a59","FGQqAXvyLdd0PsPV1WIkhos0fyf1","","","","","","","","","","","","","","","","","","","","[""Very unhappy"",""Very happy""]",""
"html-keyboard-response","154","322301","0.0-64.0","","null","<div style=""font-size:100px;"">+</div>","null","delaylearn","learning","ITI","65dcc7be05b80dc664537a59","FGQqAXvyLdd0PsPV1WIkhos0fyf1","","","","","","","","","","","","","","","","","","","1654","",""
"html-keyboard-response","155","324171","0.0-65.0-0.0","","1866.1000000238419","<div style=""display: flex; flex-direction: column; align-items: center; margin-top: -40px;""><img src=""images/pattern_1.png"" style=""width: 234px; height: 230px; margin-top: -50px;""><div style=""display: flex; justify-content: space-between; margin-top: 33px;""><img src=""images/choice_trial_14.png"" style=""width: 408px; height: 417px; margin-right: 200px;""><img src=""images/choice_trial_8.png"" style=""width: 408px; height: 417px;""></div></div>","f","delaylearn","learning","trial","65dcc7be05b80dc664537a59","FGQqAXvyLdd0PsPV1WIkhos0fyf1","3","images/choice_trial_14.png","images/choice_trial_8.png","images/pattern_1.png","f","f","7000","14","8","1","0","28","1","1","14","160","","","","",""
"html-keyboard-response","156","325189","0.0-65.0-1.0","","null","<div style=""display: flex; flex-direction: column; align-items: center; margin-top: -40px;""><img src=""images/pattern_1.png"" style=""width: 234px; height: 230px; margin-top: -50px;""><div style=""display: flex; justify-content: space-between; margin-top: 33px;""><img src=""images/choice_trial_14.png"" style=""width: 408px; height: 417px; margin-right: 608px;""></div></div>","null","delaylearn","learning","display_response","65dcc7be05b80dc664537a59","FGQqAXvyLdd0PsPV1WIkhos0fyf1","","","","","","","","","","","","","","","","","chosen stimuli: images/choice_trial_14.png","","","",""
"html-keyboard-response","157","332201","0.0-65.0-2.0","","null","","null","delaylearn","learning","feedback_duration_window","65dcc7be05b80dc664537a59","FGQqAXvyLdd0PsPV1WIkhos0fyf1","","","","","","","","","","","","","","","","","","7000","","",""
"html-keyboard-response","158","333717","0.0-65.0-3.0","","null","<div style='margin:auto;width: auto; font-size: 150%'><span style='font-weight: bold; font-size: 100px; color: green;'>+10 points!</span><br><br></div>","null","delaylearn","learning","feedback_image_window","65dcc7be05b80dc664537a59","FGQqAXvyLdd0PsPV1WIkhos0fyf1","","","","","","","","","","","","","","","","","","","","",""
"html-keyboard-response","159","335631","0.0-66.0","","null","<div style=""font-size:100px;"">+</div>","null","delaylearn","learning","ITI","65dcc7be05b80dc664537a59","FGQqAXvyLdd0PsPV1WIkhos0fyf1","","","","","","","","","","","","","","","","","","","1906","",""
"html-keyboard-response","160","337321","0.0-67.0-0.0","","1685.6000000238419","<div style=""display: flex; flex-direction: column; align-items: center; margin-top: -40px;""><img src=""images/pattern_5.png"" style=""width: 234px; height: 230px; margin-top: -50px;""><div style=""display: flex; justify-content: space-between; margin-top: 33px;""><img src=""images/choice_trial_11.png"" style=""width: 408px; height: 417px; margin-right: 200px;""><img src=""images/choice_trial_2.png"" style=""width: 408px; height: 417px;""></div></div>","j","delaylearn","learning","trial","65dcc7be05b80dc664537a59","FGQqAXvyLdd0PsPV1WIkhos0fyf1","3","images/choice_trial_11.png","images/choice_trial_2.png","images/pattern_5.png","f","f","750","11","2","4","0","29","0","0","2","160","","","","",""
"html-keyboard-response","161","338330","0.0-67.0-1.0","","null","<div style=""display: flex; flex-direction: column; align-items: center; margin-top: -40px;""><img src=""images/pattern_5.png"" style=""width: 234px; height: 230px; margin-top: -50px;""><div style=""display: flex; justify-content: space-between; margin-top: 33px;""><img src=""images/choice_trial_2.png"" style=""width: 408px; height: 417px; margin-left:608px;""></div></div>","null","delaylearn","learning","display_response","65dcc7be05b80dc664537a59","FGQqAXvyLdd0PsPV1WIkhos0fyf1","","","","","","","","","","","","","","","","","chosen stimuli: images/choice_trial_2.png","","","",""
"html-keyboard-response","162","339090","0.0-67.0-2.0","","null","","null","delaylearn","learning","feedback_duration_window","65dcc7be05b80dc664537a59","FGQqAXvyLdd0PsPV1WIkhos0fyf1","","","","","","","","","","","","","","","","","","750","","",""
"html-keyboard-response","163","340610","0.0-67.0-3.0","","null","<div style='margin:auto;width: auto; font-size: 150%'><span style='font-weight: bold; font-size: 100px; color: red;'>0 points!</span><br><br></div>","null","delaylearn","learning","feedback_image_window","65dcc7be05b80dc664537a59","FGQqAXvyLdd0PsPV1WIkhos0fyf1","","","","","","","","","","","","","","","","","","","","",""
"html-keyboard-response","164","342955","0.0-68.0","","null","<div style=""font-size:100px;"">+</div>","null","delaylearn","learning","ITI","65dcc7be05b80dc664537a59","FGQqAXvyLdd0PsPV1WIkhos0fyf1","","","","","","","","","","","","","","","","","","","2338","",""
"html-keyboard-response","165","344668","0.0-69.0-0.0","","1708.3000000715256","<div style=""display: flex; flex-direction: column; align-items: center; margin-top: -40px;""><img src=""images/pattern_6.png"" style=""width: 234px; height: 230px; margin-top: -50px;""><div style=""display: flex; justify-content: space-between; margin-top: 33px;""><img src=""images/choice_trial_3.png"" style=""width: 408px; height: 417px; margin-right: 200px;""><img src=""images/choice_trial_16.png"" style=""width: 408px; height: 417px;""></div></div>","f","delaylearn","learning","trial","65dcc7be05b80dc664537a59","FGQqAXvyLdd0PsPV1WIkhos0fyf1","3","images/choice_trial_3.png","images/choice_trial_16.png","images/pattern_6.png","j","j","750","3","16","5","1","30","0","0","3","160","","","","",""
"html-keyboard-response","166","345679","0.0-69.0-1.0","","null","<div style=""display: flex; flex-direction: column; align-items: center; margin-top: -40px;""><img src=""images/pattern_6.png"" style=""width: 234px; height: 230px; margin-top: -50px;""><div style=""display: flex; justify-content: space-between; margin-top: 33px;""><img src=""images/choice_trial_3.png"" style=""width: 408px; height: 417px; margin-right: 608px;""></div></div>","null","delaylearn","learning","display_response","65dcc7be05b80dc664537a59","FGQqAXvyLdd0PsPV1WIkhos0fyf1","","","","","","","","","","","","","","","","","chosen stimuli: images/choice_trial_3.png","","","",""
"html-keyboard-response","167","346442","0.0-69.0-2.0","","null","","null","delaylearn","learning","feedback_duration_window","65dcc7be05b80dc664537a59","FGQqAXvyLdd0PsPV1WIkhos0fyf1","","","","","","","","","","","","","","","","","","750","","",""
"html-keyboard-response","168","347970","0.0-69.0-3.0","","null","<div style='margin:auto;width: auto; font-size: 150%'><span style='font-weight: bold; font-size: 100px; color: red;'>0 points!</span><br><br></div>","null","delaylearn","learning","feedback_image_window","65dcc7be05b80dc664537a59","FGQqAXvyLdd0PsPV1WIkhos0fyf1","","","","","","","","","","","","","","","","","","","","",""
"html-keyboard-response","169","348474","0.0-70.0-0.0","","null","","null","","","mood_trial_fixation","","","","","","","","","","","","","","","","","","","","","","",""
"lmdlab-html-vas-response","170","352684","0.0-70.0-1.0","","3199","How happy are you right now?","0.9427282899867756","delaylearn","learning","mood_trial","65dcc7be05b80dc664537a59","FGQqAXvyLdd0PsPV1WIkhos0fyf1","","","","","","","","","","","","","","","","","","","","[""Very unhappy"",""Very happy""]",""
"html-keyboard-response","171","354805","0.0-71.0","","null","<div style=""font-size:100px;"">+</div>","null","delaylearn","learning","ITI","65dcc7be05b80dc664537a59","FGQqAXvyLdd0PsPV1WIkhos0fyf1","","","","","","","","","","","","","","","","","","","2107","",""
"html-keyboard-response","172","356578","0.0-72.0-0.0","","1766.8999999761581","<div style=""display: flex; flex-direction: column; align-items: center; margin-top: -40px;""><img src=""images/pattern_4.png"" style=""width: 234px; height: 230px; margin-top: -50px;""><div style=""display: flex; justify-content: space-between; margin-top: 33px;""><img src=""images/choice_trial_9.png"" style=""width: 408px; height: 417px; margin-right: 200px;""><img src=""images/choice_trial_15.png"" style=""width: 408px; height: 417px;""></div></div>","j","delaylearn","learning","trial","65dcc7be05b80dc664537a59","FGQqAXvyLdd0PsPV1WIkhos0fyf1","3","images/choice_trial_9.png","images/choice_trial_15.png","images/pattern_4.png","j","j","7000","9","15","3","1","31","1","1","15","170","","","","",""
"html-keyboard-response","173","357649","0.0-72.0-1.0","","null","<div style=""display: flex; flex-direction: column; align-items: center; margin-top: -40px;""><img src=""images/pattern_4.png"" style=""width: 234px; height: 230px; margin-top: -50px;""><div style=""display: flex; justify-content: space-between; margin-top: 33px;""><img src=""images/choice_trial_15.png"" style=""width: 408px; height: 417px; margin-left:608px;""></div></div>","null","delaylearn","learning","display_response","65dcc7be05b80dc664537a59","FGQqAXvyLdd0PsPV1WIkhos0fyf1","","","","","","","","","","","","","","","","","chosen stimuli: images/choice_trial_15.png","","","",""
"html-keyboard-response","174","364663","0.0-72.0-2.0","","null","","null","delaylearn","learning","feedback_duration_window","65dcc7be05b80dc664537a59","FGQqAXvyLdd0PsPV1WIkhos0fyf1","","","","","","","","","","","","","","","","","","7000","","",""
"html-keyboard-response","175","366167","0.0-72.0-3.0","","null","<div style='margin:auto;width: auto; font-size: 150%'><span style='font-weight: bold; font-size: 100px; color: green;'>+10 points!</span><br><br></div>","null","delaylearn","learning","feedback_image_window","65dcc7be05b80dc664537a59","FGQqAXvyLdd0PsPV1WIkhos0fyf1","","","","","","","","","","","","","","","","","","","","",""
"html-keyboard-response","176","368209","0.0-73.0","","null","<div style=""font-size:100px;"">+</div>","null","delaylearn","learning","ITI","65dcc7be05b80dc664537a59","FGQqAXvyLdd0PsPV1WIkhos0fyf1","","","","","","","","","","","","","","","","","","","2039","",""
"html-keyboard-response","177","369512","0.0-74.0-0.0","","1298","<div style=""display: flex; flex-direction: column; align-items: center; margin-top: -40px;""><img src=""images/pattern_3.png"" style=""width: 234px; height: 230px; margin-top: -50px;""><div style=""display: flex; justify-content: space-between; margin-top: 33px;""><img src=""images/choice_trial_10.png"" style=""width: 408px; height: 417px; margin-right: 200px;""><img src=""images/choice_trial_13.png"" style=""width: 408px; height: 417px;""></div></div>","j","delaylearn","learning","trial","65dcc7be05b80dc664537a59","FGQqAXvyLdd0PsPV1WIkhos0fyf1","3","images/choice_trial_10.png","images/choice_trial_13.png","images/pattern_3.png","j","j","7000","10","13","2","1","32","1","1","13","180","","","","",""
"html-keyboard-response","178","370526","0.0-74.0-1.0","","null","<div style=""display: flex; flex-direction: column; align-items: center; margin-top: -40px;""><img src=""images/pattern_3.png"" style=""width: 234px; height: 230px; margin-top: -50px;""><div style=""display: flex; justify-content: space-between; margin-top: 33px;""><img src=""images/choice_trial_13.png"" style=""width: 408px; height: 417px; margin-left:608px;""></div></div>","null","delaylearn","learning","display_response","65dcc7be05b80dc664537a59","FGQqAXvyLdd0PsPV1WIkhos0fyf1","","","","","","","","","","","","","","","","","chosen stimuli: images/choice_trial_13.png","","","",""
"html-keyboard-response","179","377533","0.0-74.0-2.0","","null","","null","delaylearn","learning","feedback_duration_window","65dcc7be05b80dc664537a59","FGQqAXvyLdd0PsPV1WIkhos0fyf1","","","","","","","","","","","","","","","","","","7000","","",""
"html-keyboard-response","180","379049","0.0-74.0-3.0","","null","<div style='margin:auto;width: auto; font-size: 150%'><span style='font-weight: bold; font-size: 100px; color: green;'>+10 points!</span><br><br></div>","null","delaylearn","learning","feedback_image_window","65dcc7be05b80dc664537a59","FGQqAXvyLdd0PsPV1WIkhos0fyf1","","","","","","","","","","","","","","","","","","","","",""
"html-keyboard-response","181","381345","0.0-75.0","","null","<div style=""font-size:100px;"">+</div>","null","delaylearn","learning","ITI","65dcc7be05b80dc664537a59","FGQqAXvyLdd0PsPV1WIkhos0fyf1","","","","","","","","","","","","","","","","","","","2292","",""
"html-keyboard-response","182","383318","0.0-76.0-0.0","","1968.2999999523163","<div style=""display: flex; flex-direction: column; align-items: center; margin-top: -40px;""><img src=""images/pattern_5.png"" style=""width: 234px; height: 230px; margin-top: -50px;""><div style=""display: flex; justify-content: space-between; margin-top: 33px;""><img src=""images/choice_trial_11.png"" style=""width: 408px; height: 417px; margin-right: 200px;""><img src=""images/choice_trial_2.png"" style=""width: 408px; height: 417px;""></div></div>","f","delaylearn","learning","trial","65dcc7be05b80dc664537a59","FGQqAXvyLdd0PsPV1WIkhos0fyf1","3","images/choice_trial_11.png","images/choice_trial_2.png","images/pattern_5.png","j","f","750","11","2","4","0","33","1","0","11","180","","","","",""
"html-keyboard-response","183","384336","0.0-76.0-1.0","","null","<div style=""display: flex; flex-direction: column; align-items: center; margin-top: -40px;""><img src=""images/pattern_5.png"" style=""width: 234px; height: 230px; margin-top: -50px;""><div style=""display: flex; justify-content: space-between; margin-top: 33px;""><img src=""images/choice_trial_11.png"" style=""width: 408px; height: 417px; margin-right: 608px;""></div></div>","null","delaylearn","learning","display_response","65dcc7be05b80dc664537a59","FGQqAXvyLdd0PsPV1WIkhos0fyf1","","","","","","","","","","","","","","","","","chosen stimuli: images/choice_trial_11.png","","","",""
"html-keyboard-response","184","385101","0.0-76.0-2.0","","null","","null","delaylearn","learning","feedback_duration_window","65dcc7be05b80dc664537a59","FGQqAXvyLdd0PsPV1WIkhos0fyf1","","","","","","","","","","","","","","","","","","750","","",""
"html-keyboard-response","185","386619","0.0-76.0-3.0","","null","<div style='margin:auto;width: auto; font-size: 150%'><span style='font-weight: bold; font-size: 100px; color: red;'>0 points!</span><br><br></div>","null","delaylearn","learning","feedback_image_window","65dcc7be05b80dc664537a59","FGQqAXvyLdd0PsPV1WIkhos0fyf1","","","","","","","","","","","","","","","","","","","","",""
"html-keyboard-response","186","388863","0.0-77.0","","null","<div style=""font-size:100px;"">+</div>","null","delaylearn","learning","ITI","65dcc7be05b80dc664537a59","FGQqAXvyLdd0PsPV1WIkhos0fyf1","","","","","","","","","","","","","","","","","","","2240","",""
"html-keyboard-response","187","389853","0.0-78.0-0.0","","985.3999999761581","<div style=""display: flex; flex-direction: column; align-items: center; margin-top: -40px;""><img src=""images/pattern_1.png"" style=""width: 234px; height: 230px; margin-top: -50px;""><div style=""display: flex; justify-content: space-between; margin-top: 33px;""><img src=""images/choice_trial_14.png"" style=""width: 408px; height: 417px; margin-right: 200px;""><img src=""images/choice_trial_8.png"" style=""width: 408px; height: 417px;""></div></div>","j","delaylearn","learning","trial","65dcc7be05b80dc664537a59","FGQqAXvyLdd0PsPV1WIkhos0fyf1","3","images/choice_trial_14.png","images/choice_trial_8.png","images/pattern_1.png","f","f","7000","14","8","1","0","34","0","0","8","180","","","","",""
"html-keyboard-response","188","390869","0.0-78.0-1.0","","null","<div style=""display: flex; flex-direction: column; align-items: center; margin-top: -40px;""><img src=""images/pattern_1.png"" style=""width: 234px; height: 230px; margin-top: -50px;""><div style=""display: flex; justify-content: space-between; margin-top: 33px;""><img src=""images/choice_trial_8.png"" style=""width: 408px; height: 417px; margin-left:608px;""></div></div>","null","delaylearn","learning","display_response","65dcc7be05b80dc664537a59","FGQqAXvyLdd0PsPV1WIkhos0fyf1","","","","","","","","","","","","","","","","","chosen stimuli: images/choice_trial_8.png","","","",""
"html-keyboard-response","189","397893","0.0-78.0-2.0","","null","","null","delaylearn","learning","feedback_duration_window","65dcc7be05b80dc664537a59","FGQqAXvyLdd0PsPV1WIkhos0fyf1","","","","","","","","","","","","","","","","","","7000","","",""
"html-keyboard-response","190","399407","0.0-78.0-3.0","","null","<div style='margin:auto;width: auto; font-size: 150%'><span style='font-weight: bold; font-size: 100px; color: red;'>0 points!</span><br><br></div>","null","delaylearn","learning","feedback_image_window","65dcc7be05b80dc664537a59","FGQqAXvyLdd0PsPV1WIkhos0fyf1","","","","","","","","","","","","","","","","","","","","",""
"html-keyboard-response","191","399908","0.0-79.0-0.0","","null","","null","","","mood_trial_fixation","","","","","","","","","","","","","","","","","","","","","","",""
"lmdlab-html-vas-response","192","404840","0.0-79.0-1.0","","3924","How happy are you right now?","0.96225967244244","delaylearn","learning","mood_trial","65dcc7be05b80dc664537a59","FGQqAXvyLdd0PsPV1WIkhos0fyf1","","","","","","","","","","","","","","","","","","","","[""Very unhappy"",""Very happy""]",""
"html-keyboard-response","193","406724","0.0-80.0","","null","<div style=""font-size:100px;"">+</div>","null","delaylearn","learning","ITI","65dcc7be05b80dc664537a59","FGQqAXvyLdd0PsPV1WIkhos0fyf1","","","","","","","","","","","","","","","","","","","1872","",""
"html-keyboard-response","194","408629","0.0-81.0-0.0","","1901.5","<div style=""display: flex; flex-direction: column; align-items: center; margin-top: -40px;""><img src=""images/pattern_6.png"" style=""width: 234px; height: 230px; margin-top: -50px;""><div style=""display: flex; justify-content: space-between; margin-top: 33px;""><img src=""images/choice_trial_16.png"" style=""width: 408px; height: 417px; margin-right: 200px;""><img src=""images/choice_trial_3.png"" style=""width: 408px; height: 417px;""></div></div>","j","delaylearn","learning","trial","65dcc7be05b80dc664537a59","FGQqAXvyLdd0PsPV1WIkhos0fyf1","3","images/choice_trial_16.png","images/choice_trial_3.png","images/pattern_6.png","j","f","750","16","3","5","0","35","0","1","3","190","","","","",""
"html-keyboard-response","195","409651","0.0-81.0-1.0","","null","<div style=""display: flex; flex-direction: column; align-items: center; margin-top: -40px;""><img src=""images/pattern_6.png"" style=""width: 234px; height: 230px; margin-top: -50px;""><div style=""display: flex; justify-content: space-between; margin-top: 33px;""><img src=""images/choice_trial_3.png"" style=""width: 408px; height: 417px; margin-left:608px;""></div></div>","null","delaylearn","learning","display_response","65dcc7be05b80dc664537a59","FGQqAXvyLdd0PsPV1WIkhos0fyf1","","","","","","","","","","","","","","","","","chosen stimuli: images/choice_trial_3.png","","","",""
"html-keyboard-response","196","410417","0.0-81.0-2.0","","null","","null","delaylearn","learning","feedback_duration_window","65dcc7be05b80dc664537a59","FGQqAXvyLdd0PsPV1WIkhos0fyf1","","","","","","","","","","","","","","","","","","750","","",""
"html-keyboard-response","197","411938","0.0-81.0-3.0","","null","<div style='margin:auto;width: auto; font-size: 150%'><span style='font-weight: bold; font-size: 100px; color: green;'>+10 points!</span><br><br></div>","null","delaylearn","learning","feedback_image_window","65dcc7be05b80dc664537a59","FGQqAXvyLdd0PsPV1WIkhos0fyf1","","","","","","","","","","","","","","","","","","","","",""
"html-keyboard-response","198","413641","0.0-82.0","","null","<div style=""font-size:100px;"">+</div>","null","delaylearn","learning","ITI","65dcc7be05b80dc664537a59","FGQqAXvyLdd0PsPV1WIkhos0fyf1","","","","","","","","","","","","","","","","","","","1684","",""
"html-keyboard-response","199","415771","0.0-83.0-0.0","","2126","<div style=""display: flex; flex-direction: column; align-items: center; margin-top: -40px;""><img src=""images/pattern_3.png"" style=""width: 234px; height: 230px; margin-top: -50px;""><div style=""display: flex; justify-content: space-between; margin-top: 33px;""><img src=""images/choice_trial_10.png"" style=""width: 408px; height: 417px; margin-right: 200px;""><img src=""images/choice_trial_13.png"" style=""width: 408px; height: 417px;""></div></div>","j","delaylearn","learning","trial","65dcc7be05b80dc664537a59","FGQqAXvyLdd0PsPV1WIkhos0fyf1","3","images/choice_trial_10.png","images/choice_trial_13.png","images/pattern_3.png","j","j","7000","10","13","2","1","36","1","1","13","200","","","","",""
"html-keyboard-response","200","416777","0.0-83.0-1.0","","null","<div style=""display: flex; flex-direction: column; align-items: center; margin-top: -40px;""><img src=""images/pattern_3.png"" style=""width: 234px; height: 230px; margin-top: -50px;""><div style=""display: flex; justify-content: space-between; margin-top: 33px;""><img src=""images/choice_trial_13.png"" style=""width: 408px; height: 417px; margin-left:608px;""></div></div>","null","delaylearn","learning","display_response","65dcc7be05b80dc664537a59","FGQqAXvyLdd0PsPV1WIkhos0fyf1","","","","","","","","","","","","","","","","","chosen stimuli: images/choice_trial_13.png","","","",""
"html-keyboard-response","201","423794","0.0-83.0-2.0","","null","","null","delaylearn","learning","feedback_duration_window","65dcc7be05b80dc664537a59","FGQqAXvyLdd0PsPV1WIkhos0fyf1","","","","","","","","","","","","","","","","","","7000","","",""
"html-keyboard-response","202","425314","0.0-83.0-3.0","","null","<div style='margin:auto;width: auto; font-size: 150%'><span style='font-weight: bold; font-size: 100px; color: green;'>+10 points!</span><br><br></div>","null","delaylearn","learning","feedback_image_window","65dcc7be05b80dc664537a59","FGQqAXvyLdd0PsPV1WIkhos0fyf1","","","","","","","","","","","","","","","","","","","","",""
"html-keyboard-response","203","427183","0.0-84.0","","null","<div style=""font-size:100px;"">+</div>","null","delaylearn","learning","ITI","65dcc7be05b80dc664537a59","FGQqAXvyLdd0PsPV1WIkhos0fyf1","","","","","","","","","","","","","","","","","","","1853","",""
"html-keyboard-response","204","428207","0.0-85.0-0.0","","1019.2999999523163","<div style=""display: flex; flex-direction: column; align-items: center; margin-top: -40px;""><img src=""images/pattern_4.png"" style=""width: 234px; height: 230px; margin-top: -50px;""><div style=""display: flex; justify-content: space-between; margin-top: 33px;""><img src=""images/choice_trial_9.png"" style=""width: 408px; height: 417px; margin-right: 200px;""><img src=""images/choice_trial_15.png"" style=""width: 408px; height: 417px;""></div></div>","j","delaylearn","learning","trial","65dcc7be05b80dc664537a59","FGQqAXvyLdd0PsPV1WIkhos0fyf1","3","images/choice_trial_9.png","images/choice_trial_15.png","images/pattern_4.png","f","j","7000","9","15","3","1","37","1","0","15","200","","","","",""
"html-keyboard-response","205","429245","0.0-85.0-1.0","","null","<div style=""display: flex; flex-direction: column; align-items: center; margin-top: -40px;""><img src=""images/pattern_4.png"" style=""width: 234px; height: 230px; margin-top: -50px;""><div style=""display: flex; justify-content: space-between; margin-top: 33px;""><img src=""images/choice_trial_15.png"" style=""width: 408px; height: 417px; margin-left:608px;""></div></div>","null","delaylearn","learning","display_response","65dcc7be05b80dc664537a59","FGQqAXvyLdd0PsPV1WIkhos0fyf1","","","","","","","","","","","","","","","","","chosen stimuli: images/choice_trial_15.png","","","",""
"html-keyboard-response","206","436251","0.0-85.0-2.0","","null","","null","delaylearn","learning","feedback_duration_window","65dcc7be05b80dc664537a59","FGQqAXvyLdd0PsPV1WIkhos0fyf1","","","","","","","","","","","","","","","","","","7000","","",""
"html-keyboard-response","207","437766","0.0-85.0-3.0","","null","<div style='margin:auto;width: auto; font-size: 150%'><span style='font-weight: bold; font-size: 100px; color: red;'>0 points!</span><br><br></div>","null","delaylearn","learning","feedback_image_window","65dcc7be05b80dc664537a59","FGQqAXvyLdd0PsPV1WIkhos0fyf1","","","","","","","","","","","","","","","","","","","","",""
"html-keyboard-response","208","439771","0.0-86.0","","null","<div style=""font-size:100px;"">+</div>","null","delaylearn","learning","ITI","65dcc7be05b80dc664537a59","FGQqAXvyLdd0PsPV1WIkhos0fyf1","","","","","","","","","","","","","","","","","","","2003","",""
"html-keyboard-response","209","441347","0.0-87.0-0.0","","1569.8999999761581","<div style=""display: flex; flex-direction: column; align-items: center; margin-top: -40px;""><img src=""images/pattern_7.png"" style=""width: 234px; height: 230px; margin-top: -50px;""><div style=""display: flex; justify-content: space-between; margin-top: 33px;""><img src=""images/choice_trial_6.png"" style=""width: 408px; height: 417px; margin-right: 200px;""><img src=""images/choice_trial_12.png"" style=""width: 408px; height: 417px;""></div></div>","f","delaylearn","learning","trial","65dcc7be05b80dc664537a59","FGQqAXvyLdd0PsPV1WIkhos0fyf1","3","images/choice_trial_6.png","images/choice_trial_12.png","images/pattern_7.png","f","f","750","6","12","6","0","38","1","1","6","210","","","","",""
"html-keyboard-response","210","442359","0.0-87.0-1.0","","null","<div style=""display: flex; flex-direction: column; align-items: center; margin-top: -40px;""><img src=""images/pattern_7.png"" style=""width: 234px; height: 230px; margin-top: -50px;""><div style=""display: flex; justify-content: space-between; margin-top: 33px;""><img src=""images/choice_trial_6.png"" style=""width: 408px; height: 417px; margin-right: 608px;""></div></div>","null","delaylearn","learning","display_response","65dcc7be05b80dc664537a59","FGQqAXvyLdd0PsPV1WIkhos0fyf1","","","","","","","","","","","","","","","","","chosen stimuli: images/choice_trial_6.png","","","",""
"html-keyboard-response","211","443114","0.0-87.0-2.0","","null","","null","delaylearn","learning","feedback_duration_window","65dcc7be05b80dc664537a59","FGQqAXvyLdd0PsPV1WIkhos0fyf1","","","","","","","","","","","","","","","","","","750","","",""
"html-keyboard-response","212","444618","0.0-87.0-3.0","","null","<div style='margin:auto;width: auto; font-size: 150%'><span style='font-weight: bold; font-size: 100px; color: green;'>+10 points!</span><br><br></div>","null","delaylearn","learning","feedback_image_window","65dcc7be05b80dc664537a59","FGQqAXvyLdd0PsPV1WIkhos0fyf1","","","","","","","","","","","","","","","","","","","","",""
"html-keyboard-response","213","446487","0.0-88.0","","null","<div style=""font-size:100px;"">+</div>","null","delaylearn","learning","ITI","65dcc7be05b80dc664537a59","FGQqAXvyLdd0PsPV1WIkhos0fyf1","","","","","","","","","","","","","","","","","","","1852","",""
"html-keyboard-response","214","448066","0.0-89.0-0.0","","1573.5","<div style=""display: flex; flex-direction: column; align-items: center; margin-top: -40px;""><img src=""images/pattern_1.png"" style=""width: 234px; height: 230px; margin-top: -50px;""><div style=""display: flex; justify-content: space-between; margin-top: 33px;""><img src=""images/choice_trial_14.png"" style=""width: 408px; height: 417px; margin-right: 200px;""><img src=""images/choice_trial_8.png"" style=""width: 408px; height: 417px;""></div></div>","f","delaylearn","learning","trial","65dcc7be05b80dc664537a59","FGQqAXvyLdd0PsPV1WIkhos0fyf1","3","images/choice_trial_14.png","images/choice_trial_8.png","images/pattern_1.png","f","f","7000","14","8","1","0","39","1","1","14","220","","","","",""
"html-keyboard-response","215","449075","0.0-89.0-1.0","","null","<div style=""display: flex; flex-direction: column; align-items: center; margin-top: -40px;""><img src=""images/pattern_1.png"" style=""width: 234px; height: 230px; margin-top: -50px;""><div style=""display: flex; justify-content: space-between; margin-top: 33px;""><img src=""images/choice_trial_14.png"" style=""width: 408px; height: 417px; margin-right: 608px;""></div></div>","null","delaylearn","learning","display_response","65dcc7be05b80dc664537a59","FGQqAXvyLdd0PsPV1WIkhos0fyf1","","","","","","","","","","","","","","","","","chosen stimuli: images/choice_trial_14.png","","","",""
"html-keyboard-response","216","456085","0.0-89.0-2.0","","null","","null","delaylearn","learning","feedback_duration_window","65dcc7be05b80dc664537a59","FGQqAXvyLdd0PsPV1WIkhos0fyf1","","","","","","","","","","","","","","","","","","7000","","",""
"html-keyboard-response","217","457597","0.0-89.0-3.0","","null","<div style='margin:auto;width: auto; font-size: 150%'><span style='font-weight: bold; font-size: 100px; color: green;'>+10 points!</span><br><br></div>","null","delaylearn","learning","feedback_image_window","65dcc7be05b80dc664537a59","FGQqAXvyLdd0PsPV1WIkhos0fyf1","","","","","","","","","","","","","","","","","","","","",""
"html-keyboard-response","218","458111","0.0-90.0-0.0","","null","","null","","","mood_trial_fixation","","","","","","","","","","","","","","","","","","","","","","",""
"lmdlab-html-vas-response","219","462696","0.0-90.0-1.0","","3561","How happy are you right now?","0.964429826048625","delaylearn","learning","mood_trial","65dcc7be05b80dc664537a59","FGQqAXvyLdd0PsPV1WIkhos0fyf1","","","","","","","","","","","","","","","","","","","","[""Very unhappy"",""Very happy""]",""
"html-keyboard-response","220","464697","0.0-91.0","","null","<div style=""font-size:100px;"">+</div>","null","delaylearn","learning","ITI","65dcc7be05b80dc664537a59","FGQqAXvyLdd0PsPV1WIkhos0fyf1","","","","","","","","","","","","","","","","","","","1975","",""
