"trial_type","trial_index","time_elapsed","internal_node_id","participant","rt","stimulus","response","exp_name","exp_stage","test_part","subjectID","databaseID","counterbal","choice_stimuli_1","choice_stimuli_2","pattern_stimuli","rewarded_answer","correct_answer","feedback_duration_times","stim_left","stim_right","pair","leftright_counter","trial","response_correct","response_rewarded","chosen_stim","counter","displayed_choice","feedback_durations","ITI_duration","labels","rest_warning"
"pavlovia","0","450","0.0-0.0","","","","","","","","","","","","","","","","","","","","","","","","","","","","","",""
"html-keyboard-response","1","3455","0.0-1.0","","null","<div style=""font-size:100px;"">+</div>","null","delaylearn","learning","pre_fixation","5b08185856655d0001bbfb1b","","","","","","","","","","","","","","","","","","","","","",""
"html-keyboard-response","2","4923","0.0-2.0-0.0","","1465.3999999761581","<div style=""display: flex; flex-direction: column; align-items: center; margin-top: -40px;""><img src=""images/demo_images/pattern_1.png"" style=""width: 234px; height: 230px; margin-top: -50px;""><div style=""display: flex; justify-content: space-between; margin-top: 33px;""><img src=""images/demo_images/choice_trial_2.png"" style=""width: 408px; height: 417px; margin-right: 200px;""><img src=""images/demo_images/choice_trial_1.png"" style=""width: 408px; height: 417px;""></div></div>","f","delaylearn","learning","trial","5b08185856655d0001bbfb1b","J6kxUEhPVeMwV8IbGXtedabcMgI3","4","images/demo_images/choice_trial_2.png","images/demo_images/choice_trial_1.png","images/demo_images/pattern_1.png","j","j","3000","2","1","20","1","1","0","0","2","0","","","","",""
"html-keyboard-response","3","5932","0.0-2.0-1.0","","null","<div style=""display: flex; flex-direction: column; align-items: center; margin-top: -40px;""><img src=""images/demo_images/pattern_1.png"" style=""width: 234px; height: 230px; margin-top: -50px;""><div style=""display: flex; justify-content: space-between; margin-top: 33px;""><img src=""images/demo_images/choice_trial_2.png"" style=""width: 408px; height: 417px; margin-right: 608px;""></div></div>","null","delaylearn","learning","display_response","5b08185856655d0001bbfb1b","J6kxUEhPVeMwV8IbGXtedabcMgI3","","","","","","","","","","","","","","","","","chosen stimuli: images/demo_images/choice_trial_2.png","","","",""
"html-keyboard-response","4","8947","0.0-2.0-2.0","","null","","null","delaylearn","learning","feedback_duration_window","5b08185856655d0001bbfb1b","J6kxUEhPVeMwV8IbGXtedabcMgI3","","","","","","","","","","","","","","","","","","3000","","",""
"html-keyboard-response","5","10451","0.0-2.0-3.0","","null","<div style='margin:auto;width: auto; font-size: 150%'><span style='font-weight: bold; font-size: 100px; color: red;'>0 points!</span><br><br></div>","null","delaylearn","learning","feedback_image_window","5b08185856655d0001bbfb1b","J6kxUEhPVeMwV8IbGXtedabcMgI3","","","","","","","","","","","","","","","","","","","","",""
"html-keyboard-response","6","12524","0.0-3.0","","null","<div style=""font-size:100px;"">+</div>","null","delaylearn","learning","ITI","5b08185856655d0001bbfb1b","J6kxUEhPVeMwV8IbGXtedabcMgI3","","","","","","","","","","","","","","","","","","","2068","",""
"html-keyboard-response","7","13173","0.0-4.0-0.0","","646.7999999523163","<div style=""display: flex; flex-direction: column; align-items: center; margin-top: -40px;""><img src=""images/demo_images/pattern_1.png"" style=""width: 234px; height: 230px; margin-top: -50px;""><div style=""display: flex; justify-content: space-between; margin-top: 33px;""><img src=""images/demo_images/choice_trial_2.png"" style=""width: 408px; height: 417px; margin-right: 200px;""><img src=""images/demo_images/choice_trial_1.png"" style=""width: 408px; height: 417px;""></div></div>","j","delaylearn","learning","trial","5b08185856655d0001bbfb1b","J6kxUEhPVeMwV8IbGXtedabcMgI3","4","images/demo_images/choice_trial_2.png","images/demo_images/choice_trial_1.png","images/demo_images/pattern_1.png","j","j","3000","2","1","20","1","2","1","1","1","10","","","","",""
"html-keyboard-response","8","14180","0.0-4.0-1.0","","null","<div style=""display: flex; flex-direction: column; align-items: center; margin-top: -40px;""><img src=""images/demo_images/pattern_1.png"" style=""width: 234px; height: 230px; margin-top: -50px;""><div style=""display: flex; justify-content: space-between; margin-top: 33px;""><img src=""images/demo_images/choice_trial_1.png"" style=""width: 408px; height: 417px; margin-left:608px;""></div></div>","null","delaylearn","learning","display_response","5b08185856655d0001bbfb1b","J6kxUEhPVeMwV8IbGXtedabcMgI3","","","","","","","","","","","","","","","","","chosen stimuli: images/demo_images/choice_trial_1.png","","","",""
"html-keyboard-response","9","17188","0.0-4.0-2.0","","null","","null","delaylearn","learning","feedback_duration_window","5b08185856655d0001bbfb1b","J6kxUEhPVeMwV8IbGXtedabcMgI3","","","","","","","","","","","","","","","","","","3000","","",""
"html-keyboard-response","10","18703","0.0-4.0-3.0","","null","<div style='margin:auto;width: auto; font-size: 150%'><span style='font-weight: bold; font-size: 100px; color: green;'>+10 points!</span><br><br></div>","null","delaylearn","learning","feedback_image_window","5b08185856655d0001bbfb1b","J6kxUEhPVeMwV8IbGXtedabcMgI3","","","","","","","","","","","","","","","","","","","","",""
"html-keyboard-response","11","20639","0.0-5.0","","null","<div style=""font-size:100px;"">+</div>","null","delaylearn","learning","ITI","5b08185856655d0001bbfb1b","J6kxUEhPVeMwV8IbGXtedabcMgI3","","","","","","","","","","","","","","","","","","","1930","",""
"html-keyboard-response","12","21513","0.0-6.0-0.0","","872.1999999284744","<div style=""display: flex; flex-direction: column; align-items: center; margin-top: -40px;""><img src=""images/demo_images/pattern_1.png"" style=""width: 234px; height: 230px; margin-top: -50px;""><div style=""display: flex; justify-content: space-between; margin-top: 33px;""><img src=""images/demo_images/choice_trial_1.png"" style=""width: 408px; height: 417px; margin-right: 200px;""><img src=""images/demo_images/choice_trial_2.png"" style=""width: 408px; height: 417px;""></div></div>","f","delaylearn","learning","trial","5b08185856655d0001bbfb1b","J6kxUEhPVeMwV8IbGXtedabcMgI3","4","images/demo_images/choice_trial_1.png","images/demo_images/choice_trial_2.png","images/demo_images/pattern_1.png","j","f","3000","1","2","20","0","3","1","0","1","10","","","","",""
"html-keyboard-response","13","22521","0.0-6.0-1.0","","null","<div style=""display: flex; flex-direction: column; align-items: center; margin-top: -40px;""><img src=""images/demo_images/pattern_1.png"" style=""width: 234px; height: 230px; margin-top: -50px;""><div style=""display: flex; justify-content: space-between; margin-top: 33px;""><img src=""images/demo_images/choice_trial_1.png"" style=""width: 408px; height: 417px; margin-right: 608px;""></div></div>","null","delaylearn","learning","display_response","5b08185856655d0001bbfb1b","J6kxUEhPVeMwV8IbGXtedabcMgI3","","","","","","","","","","","","","","","","","chosen stimuli: images/demo_images/choice_trial_1.png","","","",""
"html-keyboard-response","14","25533","0.0-6.0-2.0","","null","","null","delaylearn","learning","feedback_duration_window","5b08185856655d0001bbfb1b","J6kxUEhPVeMwV8IbGXtedabcMgI3","","","","","","","","","","","","","","","","","","3000","","",""
"html-keyboard-response","15","27040","0.0-6.0-3.0","","null","<div style='margin:auto;width: auto; font-size: 150%'><span style='font-weight: bold; font-size: 100px; color: red;'>0 points!</span><br><br></div>","null","delaylearn","learning","feedback_image_window","5b08185856655d0001bbfb1b","J6kxUEhPVeMwV8IbGXtedabcMgI3","","","","","","","","","","","","","","","","","","","","",""
"html-keyboard-response","16","29018","0.0-7.0","","null","<div style=""font-size:100px;"">+</div>","null","delaylearn","learning","ITI","5b08185856655d0001bbfb1b","J6kxUEhPVeMwV8IbGXtedabcMgI3","","","","","","","","","","","","","","","","","","","1970","",""
"html-keyboard-response","17","29686","0.0-8.0-0.0","","665.5","<div style=""display: flex; flex-direction: column; align-items: center; margin-top: -40px;""><img src=""images/demo_images/pattern_1.png"" style=""width: 234px; height: 230px; margin-top: -50px;""><div style=""display: flex; justify-content: space-between; margin-top: 33px;""><img src=""images/demo_images/choice_trial_1.png"" style=""width: 408px; height: 417px; margin-right: 200px;""><img src=""images/demo_images/choice_trial_2.png"" style=""width: 408px; height: 417px;""></div></div>","j","delaylearn","learning","trial","5b08185856655d0001bbfb1b","J6kxUEhPVeMwV8IbGXtedabcMgI3","4","images/demo_images/choice_trial_1.png","images/demo_images/choice_trial_2.png","images/demo_images/pattern_1.png","f","f","3000","1","2","20","0","4","0","0","2","10","","","","",""
"html-keyboard-response","18","30698","0.0-8.0-1.0","","null","<div style=""display: flex; flex-direction: column; align-items: center; margin-top: -40px;""><img src=""images/demo_images/pattern_1.png"" style=""width: 234px; height: 230px; margin-top: -50px;""><div style=""display: flex; justify-content: space-between; margin-top: 33px;""><img src=""images/demo_images/choice_trial_2.png"" style=""width: 408px; height: 417px; margin-left:608px;""></div></div>","null","delaylearn","learning","display_response","5b08185856655d0001bbfb1b","J6kxUEhPVeMwV8IbGXtedabcMgI3","","","","","","","","","","","","","","","","","chosen stimuli: images/demo_images/choice_trial_2.png","","","",""
"html-keyboard-response","19","33702","0.0-8.0-2.0","","null","","null","delaylearn","learning","feedback_duration_window","5b08185856655d0001bbfb1b","J6kxUEhPVeMwV8IbGXtedabcMgI3","","","","","","","","","","","","","","","","","","3000","","",""
"html-keyboard-response","20","35204","0.0-8.0-3.0","","null","<div style='margin:auto;width: auto; font-size: 150%'><span style='font-weight: bold; font-size: 100px; color: red;'>0 points!</span><br><br></div>","null","delaylearn","learning","feedback_image_window","5b08185856655d0001bbfb1b","J6kxUEhPVeMwV8IbGXtedabcMgI3","","","","","","","","","","","","","","","","","","","","",""
"html-keyboard-response","21","35710","0.0-9.0-0.0","","null","","null","","","mood_trial_fixation","","","","","","","","","","","","","","","","","","","","","","",""
"lmdlab-html-vas-response","22","40050","0.0-9.0-1.0","","3322","How happy are you right now?","0.5366753101737265","delaylearn","learning","mood_trial","5b08185856655d0001bbfb1b","J6kxUEhPVeMwV8IbGXtedabcMgI3","","","","","","","","","","","","","","","","","","","","[""Very unhappy"",""Very happy""]",""
"html-keyboard-response","23","42234","0.0-10.0","","null","<div style=""font-size:100px;"">+</div>","null","delaylearn","learning","ITI","5b08185856655d0001bbfb1b","J6kxUEhPVeMwV8IbGXtedabcMgI3","","","","","","","","","","","","","","","","","","","2181","",""
"html-keyboard-response","24","44042","0.0-11.0-0.0","","1805.7999999523163","<div style=""display: flex; flex-direction: column; align-items: center; margin-top: -40px;""><img src=""images/demo_images/pattern_1.png"" style=""width: 234px; height: 230px; margin-top: -50px;""><div style=""display: flex; justify-content: space-between; margin-top: 33px;""><img src=""images/demo_images/choice_trial_2.png"" style=""width: 408px; height: 417px; margin-right: 200px;""><img src=""images/demo_images/choice_trial_1.png"" style=""width: 408px; height: 417px;""></div></div>","j","delaylearn","learning","trial","5b08185856655d0001bbfb1b","J6kxUEhPVeMwV8IbGXtedabcMgI3","4","images/demo_images/choice_trial_2.png","images/demo_images/choice_trial_1.png","images/demo_images/pattern_1.png","j","j","3000","2","1","20","1","5","1","1","1","20","","","","",""
"html-keyboard-response","25","45045","0.0-11.0-1.0","","null","<div style=""display: flex; flex-direction: column; align-items: center; margin-top: -40px;""><img src=""images/demo_images/pattern_1.png"" style=""width: 234px; height: 230px; margin-top: -50px;""><div style=""display: flex; justify-content: space-between; margin-top: 33px;""><img src=""images/demo_images/choice_trial_1.png"" style=""width: 408px; height: 417px; margin-left:608px;""></div></div>","null","delaylearn","learning","display_response","5b08185856655d0001bbfb1b","J6kxUEhPVeMwV8IbGXtedabcMgI3","","","","","","","","","","","","","","","","","chosen stimuli: images/demo_images/choice_trial_1.png","","","",""
"html-keyboard-response","26","48050","0.0-11.0-2.0","","null","","null","delaylearn","learning","feedback_duration_window","5b08185856655d0001bbfb1b","J6kxUEhPVeMwV8IbGXtedabcMgI3","","","","","","","","","","","","","","","","","","3000","","",""
"html-keyboard-response","27","49555","0.0-11.0-3.0","","null","<div style='margin:auto;width: auto; font-size: 150%'><span style='font-weight: bold; font-size: 100px; color: green;'>+10 points!</span><br><br></div>","null","delaylearn","learning","feedback_image_window","5b08185856655d0001bbfb1b","J6kxUEhPVeMwV8IbGXtedabcMgI3","","","","","","","","","","","","","","","","","","","","",""
"html-keyboard-response","28","51129","0.0-12.0","","null","<div style=""font-size:100px;"">+</div>","null","delaylearn","learning","ITI","5b08185856655d0001bbfb1b","J6kxUEhPVeMwV8IbGXtedabcMgI3","","","","","","","","","","","","","","","","","","","1570","",""
"html-keyboard-response","29","52666","0.0-13.0-0.0","","1535.5999999046326","<div style=""display: flex; flex-direction: column; align-items: center; margin-top: -40px;""><img src=""images/demo_images/pattern_1.png"" style=""width: 234px; height: 230px; margin-top: -50px;""><div style=""display: flex; justify-content: space-between; margin-top: 33px;""><img src=""images/demo_images/choice_trial_1.png"" style=""width: 408px; height: 417px; margin-right: 200px;""><img src=""images/demo_images/choice_trial_2.png"" style=""width: 408px; height: 417px;""></div></div>","f","delaylearn","learning","trial","5b08185856655d0001bbfb1b","J6kxUEhPVeMwV8IbGXtedabcMgI3","4","images/demo_images/choice_trial_1.png","images/demo_images/choice_trial_2.png","images/demo_images/pattern_1.png","f","f","3000","1","2","20","0","6","1","1","1","30","","","","",""
"html-keyboard-response","30","53679","0.0-13.0-1.0","","null","<div style=""display: flex; flex-direction: column; align-items: center; margin-top: -40px;""><img src=""images/demo_images/pattern_1.png"" style=""width: 234px; height: 230px; margin-top: -50px;""><div style=""display: flex; justify-content: space-between; margin-top: 33px;""><img src=""images/demo_images/choice_trial_1.png"" style=""width: 408px; height: 417px; margin-right: 608px;""></div></div>","null","delaylearn","learning","display_response","5b08185856655d0001bbfb1b","J6kxUEhPVeMwV8IbGXtedabcMgI3","","","","","","","","","","","","","","","","","chosen stimuli: images/demo_images/choice_trial_1.png","","","",""
"html-keyboard-response","31","56690","0.0-13.0-2.0","","null","","null","delaylearn","learning","feedback_duration_window","5b08185856655d0001bbfb1b","J6kxUEhPVeMwV8IbGXtedabcMgI3","","","","","","","","","","","","","","","","","","3000","","",""
"html-keyboard-response","32","58199","0.0-13.0-3.0","","null","<div style='margin:auto;width: auto; font-size: 150%'><span style='font-weight: bold; font-size: 100px; color: green;'>+10 points!</span><br><br></div>","null","delaylearn","learning","feedback_image_window","5b08185856655d0001bbfb1b","J6kxUEhPVeMwV8IbGXtedabcMgI3","","","","","","","","","","","","","","","","","","","","",""
"html-keyboard-response","33","60624","0.0-14.0","","null","<div style=""font-size:100px;"">+</div>","null","delaylearn","learning","ITI","5b08185856655d0001bbfb1b","J6kxUEhPVeMwV8IbGXtedabcMgI3","","","","","","","","","","","","","","","","","","","2408","",""
"html-keyboard-response","34","61847","0.0-15.0-0.0","","1221","<div style=""display: flex; flex-direction: column; align-items: center; margin-top: -40px;""><img src=""images/demo_images/pattern_1.png"" style=""width: 234px; height: 230px; margin-top: -50px;""><div style=""display: flex; justify-content: space-between; margin-top: 33px;""><img src=""images/demo_images/choice_trial_2.png"" style=""width: 408px; height: 417px; margin-right: 200px;""><img src=""images/demo_images/choice_trial_1.png"" style=""width: 408px; height: 417px;""></div></div>","j","delaylearn","learning","trial","5b08185856655d0001bbfb1b","J6kxUEhPVeMwV8IbGXtedabcMgI3","4","images/demo_images/choice_trial_2.png","images/demo_images/choice_trial_1.png","images/demo_images/pattern_1.png","j","j","3000","2","1","20","1","7","1","1","1","40","","","","",""
"html-keyboard-response","35","62850","0.0-15.0-1.0","","null","<div style=""display: flex; flex-direction: column; align-items: center; margin-top: -40px;""><img src=""images/demo_images/pattern_1.png"" style=""width: 234px; height: 230px; margin-top: -50px;""><div style=""display: flex; justify-content: space-between; margin-top: 33px;""><img src=""images/demo_images/choice_trial_1.png"" style=""width: 408px; height: 417px; margin-left:608px;""></div></div>","null","delaylearn","learning","display_response","5b08185856655d0001bbfb1b","J6kxUEhPVeMwV8IbGXtedabcMgI3","","","","","","","","","","","","","","","","","chosen stimuli: images/demo_images/choice_trial_1.png","","","",""
"html-keyboard-response","36","65854","0.0-15.0-2.0","","null","","null","delaylearn","learning","feedback_duration_window","5b08185856655d0001bbfb1b","J6kxUEhPVeMwV8IbGXtedabcMgI3","","","","","","","","","","","","","","","","","","3000","","",""
"html-keyboard-response","37","67358","0.0-15.0-3.0","","null","<div style='margin:auto;width: auto; font-size: 150%'><span style='font-weight: bold; font-size: 100px; color: green;'>+10 points!</span><br><br></div>","null","delaylearn","learning","feedback_image_window","5b08185856655d0001bbfb1b","J6kxUEhPVeMwV8IbGXtedabcMgI3","","","","","","","","","","","","","","","","","","","","",""
"html-keyboard-response","38","69725","0.0-16.0","","null","<div style=""font-size:100px;"">+</div>","null","delaylearn","learning","ITI","5b08185856655d0001bbfb1b","J6kxUEhPVeMwV8IbGXtedabcMgI3","","","","","","","","","","","","","","","","","","","2357","",""
"html-keyboard-response","39","70659","0.0-17.0-0.0","","930.8999999761581","<div style=""display: flex; flex-direction: column; align-items: center; margin-top: -40px;""><img src=""images/demo_images/pattern_1.png"" style=""width: 234px; height: 230px; margin-top: -50px;""><div style=""display: flex; justify-content: space-between; margin-top: 33px;""><img src=""images/demo_images/choice_trial_1.png"" style=""width: 408px; height: 417px; margin-right: 200px;""><img src=""images/demo_images/choice_trial_2.png"" style=""width: 408px; height: 417px;""></div></div>","f","delaylearn","learning","trial","5b08185856655d0001bbfb1b","J6kxUEhPVeMwV8IbGXtedabcMgI3","4","images/demo_images/choice_trial_1.png","images/demo_images/choice_trial_2.png","images/demo_images/pattern_1.png","f","f","3000","1","2","20","0","8","1","1","1","50","","","","",""
"html-keyboard-response","40","71663","0.0-17.0-1.0","","null","<div style=""display: flex; flex-direction: column; align-items: center; margin-top: -40px;""><img src=""images/demo_images/pattern_1.png"" style=""width: 234px; height: 230px; margin-top: -50px;""><div style=""display: flex; justify-content: space-between; margin-top: 33px;""><img src=""images/demo_images/choice_trial_1.png"" style=""width: 408px; height: 417px; margin-right: 608px;""></div></div>","null","delaylearn","learning","display_response","5b08185856655d0001bbfb1b","J6kxUEhPVeMwV8IbGXtedabcMgI3","","","","","","","","","","","","","","","","","chosen stimuli: images/demo_images/choice_trial_1.png","","","",""
"html-keyboard-response","41","74677","0.0-17.0-2.0","","null","","null","delaylearn","learning","feedback_duration_window","5b08185856655d0001bbfb1b","J6kxUEhPVeMwV8IbGXtedabcMgI3","","","","","","","","","","","","","","","","","","3000","","",""
"html-keyboard-response","42","76178","0.0-17.0-3.0","","null","<div style='margin:auto;width: auto; font-size: 150%'><span style='font-weight: bold; font-size: 100px; color: green;'>+10 points!</span><br><br></div>","null","delaylearn","learning","feedback_image_window","5b08185856655d0001bbfb1b","J6kxUEhPVeMwV8IbGXtedabcMgI3","","","","","","","","","","","","","","","","","","","","",""
"html-button-response","43","112579","0.0-18.0","","36398.60000002384","
  <div style=""display: flex; align-items: center; justify-content: center; height: 80vh;"">
  <div>
          <img src=""images/inst_demo_finish.png"" style=""width: 80vw; height:auto;"">
          <br><br>
      </div>
      <br><br>
  </div>","0","","","","","","","","","","","","","","","","","","","","","","","","","",""
"html-keyboard-response","44","118804","0.0-19.0","","6223.700000047684","
  <div style=""display: flex; align-items: center; justify-content: center; height: 80vh;"">
  <div>
          <img src=""images/inst_6.png"" style=""width: 80vw; height:auto;"">
          <br><br>
      </div>
      <br><br>
  </div>","f","","","","","","","","","","","","","","","","","","","","","","","","","",""
"html-keyboard-response","45","121821","0.0-20.0","","null","<div style=""font-size:100px;"">+</div>","null","delaylearn","learning","pre_fixation","5b08185856655d0001bbfb1b","","","","","","","","","","","","","","","","","","","","","",""
"html-keyboard-response","46","123605","0.0-21.0","","null","<div style=""font-size:100px;"">+</div>","null","delaylearn","learning","ITI","5b08185856655d0001bbfb1b","J6kxUEhPVeMwV8IbGXtedabcMgI3","","","","","","","","","","","","","","","","","","","1777","",""
"html-keyboard-response","47","124660","0.0-22.0-0.0","","1053.2999999523163","<div style=""display: flex; flex-direction: column; align-items: center; margin-top: -40px;""><img src=""images/pattern_3.png"" style=""width: 234px; height: 230px; margin-top: -50px;""><div style=""display: flex; justify-content: space-between; margin-top: 33px;""><img src=""images/choice_trial_16.png"" style=""width: 408px; height: 417px; margin-right: 200px;""><img src=""images/choice_trial_6.png"" style=""width: 408px; height: 417px;""></div></div>","f","delaylearn","learning","trial","5b08185856655d0001bbfb1b","J6kxUEhPVeMwV8IbGXtedabcMgI3","4","images/choice_trial_16.png","images/choice_trial_6.png","images/pattern_3.png","f","f","7000","16","6","2","0","9","1","1","16","60","","","","",""
"html-keyboard-response","48","125669","0.0-22.0-1.0","","null","<div style=""display: flex; flex-direction: column; align-items: center; margin-top: -40px;""><img src=""images/pattern_3.png"" style=""width: 234px; height: 230px; margin-top: -50px;""><div style=""display: flex; justify-content: space-between; margin-top: 33px;""><img src=""images/choice_trial_16.png"" style=""width: 408px; height: 417px; margin-right: 608px;""></div></div>","null","delaylearn","learning","display_response","5b08185856655d0001bbfb1b","J6kxUEhPVeMwV8IbGXtedabcMgI3","","","","","","","","","","","","","","","","","chosen stimuli: images/choice_trial_16.png","","","",""
"html-keyboard-response","49","132670","0.0-22.0-2.0","","null","","null","delaylearn","learning","feedback_duration_window","5b08185856655d0001bbfb1b","J6kxUEhPVeMwV8IbGXtedabcMgI3","","","","","","","","","","","","","","","","","","7000","","",""
"html-keyboard-response","50","134185","0.0-22.0-3.0","","null","<div style='margin:auto;width: auto; font-size: 150%'><span style='font-weight: bold; font-size: 100px; color: green;'>+10 points!</span><br><br></div>","null","delaylearn","learning","feedback_image_window","5b08185856655d0001bbfb1b","J6kxUEhPVeMwV8IbGXtedabcMgI3","","","","","","","","","","","","","","","","","","","","",""
"html-keyboard-response","51","136539","0.0-23.0","","null","<div style=""font-size:100px;"">+</div>","null","delaylearn","learning","ITI","5b08185856655d0001bbfb1b","J6kxUEhPVeMwV8IbGXtedabcMgI3","","","","","","","","","","","","","","","","","","","2340","",""
"html-keyboard-response","52","138142","0.0-24.0-0.0","","1600.7999999523163","<div style=""display: flex; flex-direction: column; align-items: center; margin-top: -40px;""><img src=""images/pattern_7.png"" style=""width: 234px; height: 230px; margin-top: -50px;""><div style=""display: flex; justify-content: space-between; margin-top: 33px;""><img src=""images/choice_trial_4.png"" style=""width: 408px; height: 417px; margin-right: 200px;""><img src=""images/choice_trial_13.png"" style=""width: 408px; height: 417px;""></div></div>","j","delaylearn","learning","trial","5b08185856655d0001bbfb1b","J6kxUEhPVeMwV8IbGXtedabcMgI3","4","images/choice_trial_4.png","images/choice_trial_13.png","images/pattern_7.png","j","j","750","4","13","6","1","10","1","1","13","70","","","","",""
"html-keyboard-response","53","139159","0.0-24.0-1.0","","null","<div style=""display: flex; flex-direction: column; align-items: center; margin-top: -40px;""><img src=""images/pattern_7.png"" style=""width: 234px; height: 230px; margin-top: -50px;""><div style=""display: flex; justify-content: space-between; margin-top: 33px;""><img src=""images/choice_trial_13.png"" style=""width: 408px; height: 417px; margin-left:608px;""></div></div>","null","delaylearn","learning","display_response","5b08185856655d0001bbfb1b","J6kxUEhPVeMwV8IbGXtedabcMgI3","","","","","","","","","","","","","","","","","chosen stimuli: images/choice_trial_13.png","","","",""
"html-keyboard-response","54","139926","0.0-24.0-2.0","","null","","null","delaylearn","learning","feedback_duration_window","5b08185856655d0001bbfb1b","J6kxUEhPVeMwV8IbGXtedabcMgI3","","","","","","","","","","","","","","","","","","750","","",""
"html-keyboard-response","55","141440","0.0-24.0-3.0","","null","<div style='margin:auto;width: auto; font-size: 150%'><span style='font-weight: bold; font-size: 100px; color: green;'>+10 points!</span><br><br></div>","null","delaylearn","learning","feedback_image_window","5b08185856655d0001bbfb1b","J6kxUEhPVeMwV8IbGXtedabcMgI3","","","","","","","","","","","","","","","","","","","","",""
"html-keyboard-response","56","143868","0.0-25.0","","null","<div style=""font-size:100px;"">+</div>","null","delaylearn","learning","ITI","5b08185856655d0001bbfb1b","J6kxUEhPVeMwV8IbGXtedabcMgI3","","","","","","","","","","","","","","","","","","","2422","",""
"html-keyboard-response","57","145526","0.0-26.0-0.0","","1656.4000000953674","<div style=""display: flex; flex-direction: column; align-items: center; margin-top: -40px;""><img src=""images/pattern_4.png"" style=""width: 234px; height: 230px; margin-top: -50px;""><div style=""display: flex; justify-content: space-between; margin-top: 33px;""><img src=""images/choice_trial_8.png"" style=""width: 408px; height: 417px; margin-right: 200px;""><img src=""images/choice_trial_7.png"" style=""width: 408px; height: 417px;""></div></div>","f","delaylearn","learning","trial","5b08185856655d0001bbfb1b","J6kxUEhPVeMwV8IbGXtedabcMgI3","4","images/choice_trial_8.png","images/choice_trial_7.png","images/pattern_4.png","f","f","7000","8","7","3","0","11","1","1","8","80","","","","",""
"html-keyboard-response","58","146529","0.0-26.0-1.0","","null","<div style=""display: flex; flex-direction: column; align-items: center; margin-top: -40px;""><img src=""images/pattern_4.png"" style=""width: 234px; height: 230px; margin-top: -50px;""><div style=""display: flex; justify-content: space-between; margin-top: 33px;""><img src=""images/choice_trial_8.png"" style=""width: 408px; height: 417px; margin-right: 608px;""></div></div>","null","delaylearn","learning","display_response","5b08185856655d0001bbfb1b","J6kxUEhPVeMwV8IbGXtedabcMgI3","","","","","","","","","","","","","","","","","chosen stimuli: images/choice_trial_8.png","","","",""
"html-keyboard-response","59","153534","0.0-26.0-2.0","","null","","null","delaylearn","learning","feedback_duration_window","5b08185856655d0001bbfb1b","J6kxUEhPVeMwV8IbGXtedabcMgI3","","","","","","","","","","","","","","","","","","7000","","",""
"html-keyboard-response","60","155038","0.0-26.0-3.0","","null","<div style='margin:auto;width: auto; font-size: 150%'><span style='font-weight: bold; font-size: 100px; color: green;'>+10 points!</span><br><br></div>","null","delaylearn","learning","feedback_image_window","5b08185856655d0001bbfb1b","J6kxUEhPVeMwV8IbGXtedabcMgI3","","","","","","","","","","","","","","","","","","","","",""
"html-keyboard-response","61","156703","0.0-27.0","","null","<div style=""font-size:100px;"">+</div>","null","delaylearn","learning","ITI","5b08185856655d0001bbfb1b","J6kxUEhPVeMwV8IbGXtedabcMgI3","","","","","","","","","","","","","","","","","","","1662","",""
"html-keyboard-response","62","158039","0.0-28.0-0.0","","1333.1000000238419","<div style=""display: flex; flex-direction: column; align-items: center; margin-top: -40px;""><img src=""images/pattern_5.png"" style=""width: 234px; height: 230px; margin-top: -50px;""><div style=""display: flex; justify-content: space-between; margin-top: 33px;""><img src=""images/choice_trial_15.png"" style=""width: 408px; height: 417px; margin-right: 200px;""><img src=""images/choice_trial_5.png"" style=""width: 408px; height: 417px;""></div></div>","j","delaylearn","learning","trial","5b08185856655d0001bbfb1b","J6kxUEhPVeMwV8IbGXtedabcMgI3","4","images/choice_trial_15.png","images/choice_trial_5.png","images/pattern_5.png","j","j","750","15","5","4","1","12","1","1","5","90","","","","",""
"html-keyboard-response","63","159051","0.0-28.0-1.0","","null","<div style=""display: flex; flex-direction: column; align-items: center; margin-top: -40px;""><img src=""images/pattern_5.png"" style=""width: 234px; height: 230px; margin-top: -50px;""><div style=""display: flex; justify-content: space-between; margin-top: 33px;""><img src=""images/choice_trial_5.png"" style=""width: 408px; height: 417px; margin-left:608px;""></div></div>","null","delaylearn","learning","display_response","5b08185856655d0001bbfb1b","J6kxUEhPVeMwV8IbGXtedabcMgI3","","","","","","","","","","","","","","","","","chosen stimuli: images/choice_trial_5.png","","","",""
"html-keyboard-response","64","159815","0.0-28.0-2.0","","null","","null","delaylearn","learning","feedback_duration_window","5b08185856655d0001bbfb1b","J6kxUEhPVeMwV8IbGXtedabcMgI3","","","","","","","","","","","","","","","","","","750","","",""
"html-keyboard-response","65","161319","0.0-28.0-3.0","","null","<div style='margin:auto;width: auto; font-size: 150%'><span style='font-weight: bold; font-size: 100px; color: green;'>+10 points!</span><br><br></div>","null","delaylearn","learning","feedback_image_window","5b08185856655d0001bbfb1b","J6kxUEhPVeMwV8IbGXtedabcMgI3","","","","","","","","","","","","","","","","","","","","",""
"html-keyboard-response","66","163741","0.0-29.0","","null","<div style=""font-size:100px;"">+</div>","null","delaylearn","learning","ITI","5b08185856655d0001bbfb1b","J6kxUEhPVeMwV8IbGXtedabcMgI3","","","","","","","","","","","","","","","","","","","2408","",""
"html-keyboard-response","67","165026","0.0-30.0-0.0","","1283.6999999284744","<div style=""display: flex; flex-direction: column; align-items: center; margin-top: -40px;""><img src=""images/pattern_6.png"" style=""width: 234px; height: 230px; margin-top: -50px;""><div style=""display: flex; justify-content: space-between; margin-top: 33px;""><img src=""images/choice_trial_10.png"" style=""width: 408px; height: 417px; margin-right: 200px;""><img src=""images/choice_trial_3.png"" style=""width: 408px; height: 417px;""></div></div>","j","delaylearn","learning","trial","5b08185856655d0001bbfb1b","J6kxUEhPVeMwV8IbGXtedabcMgI3","4","images/choice_trial_10.png","images/choice_trial_3.png","images/pattern_6.png","j","f","750","10","3","5","0","13","0","1","3","100","","","","",""
"html-keyboard-response","68","166042","0.0-30.0-1.0","","null","<div style=""display: flex; flex-direction: column; align-items: center; margin-top: -40px;""><img src=""images/pattern_6.png"" style=""width: 234px; height: 230px; margin-top: -50px;""><div style=""display: flex; justify-content: space-between; margin-top: 33px;""><img src=""images/choice_trial_3.png"" style=""width: 408px; height: 417px; margin-left:608px;""></div></div>","null","delaylearn","learning","display_response","5b08185856655d0001bbfb1b","J6kxUEhPVeMwV8IbGXtedabcMgI3","","","","","","","","","","","","","","","","","chosen stimuli: images/choice_trial_3.png","","","",""
"html-keyboard-response","69","166807","0.0-30.0-2.0","","null","","null","delaylearn","learning","feedback_duration_window","5b08185856655d0001bbfb1b","J6kxUEhPVeMwV8IbGXtedabcMgI3","","","","","","","","","","","","","","","","","","750","","",""
"html-keyboard-response","70","168319","0.0-30.0-3.0","","null","<div style='margin:auto;width: auto; font-size: 150%'><span style='font-weight: bold; font-size: 100px; color: green;'>+10 points!</span><br><br></div>","null","delaylearn","learning","feedback_image_window","5b08185856655d0001bbfb1b","J6kxUEhPVeMwV8IbGXtedabcMgI3","","","","","","","","","","","","","","","","","","","","",""
"html-keyboard-response","71","168833","0.0-31.0-0.0","","null","","null","","","mood_trial_fixation","","","","","","","","","","","","","","","","","","","","","","",""
"lmdlab-html-vas-response","72","173765","0.0-31.0-1.0","","3918","How happy are you right now?","0.7913049278115671","delaylearn","learning","mood_trial","5b08185856655d0001bbfb1b","J6kxUEhPVeMwV8IbGXtedabcMgI3","","","","","","","","","","","","","","","","","","","","[""Very unhappy"",""Very happy""]",""
"html-keyboard-response","73","175464","0.0-32.0","","null","<div style=""font-size:100px;"">+</div>","null","delaylearn","learning","ITI","5b08185856655d0001bbfb1b","J6kxUEhPVeMwV8IbGXtedabcMgI3","","","","","","","","","","","","","","","","","","","1688","",""
"html-keyboard-response","74","176615","0.0-33.0-0.0","","1148.2000000476837","<div style=""display: flex; flex-direction: column; align-items: center; margin-top: -40px;""><img src=""images/pattern_1.png"" style=""width: 234px; height: 230px; margin-top: -50px;""><div style=""display: flex; justify-content: space-between; margin-top: 33px;""><img src=""images/choice_trial_9.png"" style=""width: 408px; height: 417px; margin-right: 200px;""><img src=""images/choice_trial_1.png"" style=""width: 408px; height: 417px;""></div></div>","f","delaylearn","learning","trial","5b08185856655d0001bbfb1b","J6kxUEhPVeMwV8IbGXtedabcMgI3","4","images/choice_trial_9.png","images/choice_trial_1.png","images/pattern_1.png","j","j","7000","9","1","1","1","14","0","0","9","100","","","","",""
"html-keyboard-response","75","177624","0.0-33.0-1.0","","null","<div style=""display: flex; flex-direction: column; align-items: center; margin-top: -40px;""><img src=""images/pattern_1.png"" style=""width: 234px; height: 230px; margin-top: -50px;""><div style=""display: flex; justify-content: space-between; margin-top: 33px;""><img src=""images/choice_trial_9.png"" style=""width: 408px; height: 417px; margin-right: 608px;""></div></div>","null","delaylearn","learning","display_response","5b08185856655d0001bbfb1b","J6kxUEhPVeMwV8IbGXtedabcMgI3","","","","","","","","","","","","","","","","","chosen stimuli: images/choice_trial_9.png","","","",""
"html-keyboard-response","76","184639","0.0-33.0-2.0","","null","","null","delaylearn","learning","feedback_duration_window","5b08185856655d0001bbfb1b","J6kxUEhPVeMwV8IbGXtedabcMgI3","","","","","","","","","","","","","","","","","","7000","","",""
"html-keyboard-response","77","186144","0.0-33.0-3.0","","null","<div style='margin:auto;width: auto; font-size: 150%'><span style='font-weight: bold; font-size: 100px; color: red;'>0 points!</span><br><br></div>","null","delaylearn","learning","feedback_image_window","5b08185856655d0001bbfb1b","J6kxUEhPVeMwV8IbGXtedabcMgI3","","","","","","","","","","","","","","","","","","","","",""
"html-keyboard-response","78","187662","0.0-34.0","","null","<div style=""font-size:100px;"">+</div>","null","delaylearn","learning","ITI","5b08185856655d0001bbfb1b","J6kxUEhPVeMwV8IbGXtedabcMgI3","","","","","","","","","","","","","","","","","","","1515","",""
"html-keyboard-response","79","189034","0.0-35.0-0.0","","1370.5999999046326","<div style=""display: flex; flex-direction: column; align-items: center; margin-top: -40px;""><img src=""images/pattern_3.png"" style=""width: 234px; height: 230px; margin-top: -50px;""><div style=""display: flex; justify-content: space-between; margin-top: 33px;""><img src=""images/choice_trial_6.png"" style=""width: 408px; height: 417px; margin-right: 200px;""><img src=""images/choice_trial_16.png"" style=""width: 408px; height: 417px;""></div></div>","j","delaylearn","learning","trial","5b08185856655d0001bbfb1b","J6kxUEhPVeMwV8IbGXtedabcMgI3","4","images/choice_trial_6.png","images/choice_trial_16.png","images/pattern_3.png","f","j","7000","6","16","2","1","15","1","0","16","100","","","","",""
"html-keyboard-response","80","190047","0.0-35.0-1.0","","null","<div style=""display: flex; flex-direction: column; align-items: center; margin-top: -40px;""><img src=""images/pattern_3.png"" style=""width: 234px; height: 230px; margin-top: -50px;""><div style=""display: flex; justify-content: space-between; margin-top: 33px;""><img src=""images/choice_trial_16.png"" style=""width: 408px; height: 417px; margin-left:608px;""></div></div>","null","delaylearn","learning","display_response","5b08185856655d0001bbfb1b","J6kxUEhPVeMwV8IbGXtedabcMgI3","","","","","","","","","","","","","","","","","chosen stimuli: images/choice_trial_16.png","","","",""
"html-keyboard-response","81","197051","0.0-35.0-2.0","","null","","null","delaylearn","learning","feedback_duration_window","5b08185856655d0001bbfb1b","J6kxUEhPVeMwV8IbGXtedabcMgI3","","","","","","","","","","","","","","","","","","7000","","",""
"html-keyboard-response","82","198555","0.0-35.0-3.0","","null","<div style='margin:auto;width: auto; font-size: 150%'><span style='font-weight: bold; font-size: 100px; color: red;'>0 points!</span><br><br></div>","null","delaylearn","learning","feedback_image_window","5b08185856655d0001bbfb1b","J6kxUEhPVeMwV8IbGXtedabcMgI3","","","","","","","","","","","","","","","","","","","","",""
"html-keyboard-response","83","200358","0.0-36.0","","null","<div style=""font-size:100px;"">+</div>","null","delaylearn","learning","ITI","5b08185856655d0001bbfb1b","J6kxUEhPVeMwV8IbGXtedabcMgI3","","","","","","","","","","","","","","","","","","","1789","",""
"html-keyboard-response","84","201601","0.0-37.0-0.0","","1240.2999999523163","<div style=""display: flex; flex-direction: column; align-items: center; margin-top: -40px;""><img src=""images/pattern_5.png"" style=""width: 234px; height: 230px; margin-top: -50px;""><div style=""display: flex; justify-content: space-between; margin-top: 33px;""><img src=""images/choice_trial_5.png"" style=""width: 408px; height: 417px; margin-right: 200px;""><img src=""images/choice_trial_15.png"" style=""width: 408px; height: 417px;""></div></div>","f","delaylearn","learning","trial","5b08185856655d0001bbfb1b","J6kxUEhPVeMwV8IbGXtedabcMgI3","4","images/choice_trial_5.png","images/choice_trial_15.png","images/pattern_5.png","f","f","750","5","15","4","0","16","1","1","5","110","","","","",""
"html-keyboard-response","85","202604","0.0-37.0-1.0","","null","<div style=""display: flex; flex-direction: column; align-items: center; margin-top: -40px;""><img src=""images/pattern_5.png"" style=""width: 234px; height: 230px; margin-top: -50px;""><div style=""display: flex; justify-content: space-between; margin-top: 33px;""><img src=""images/choice_trial_5.png"" style=""width: 408px; height: 417px; margin-right: 608px;""></div></div>","null","delaylearn","learning","display_response","5b08185856655d0001bbfb1b","J6kxUEhPVeMwV8IbGXtedabcMgI3","","","","","","","","","","","","","","","","","chosen stimuli: images/choice_trial_5.png","","","",""
"html-keyboard-response","86","203356","0.0-37.0-2.0","","null","","null","delaylearn","learning","feedback_duration_window","5b08185856655d0001bbfb1b","J6kxUEhPVeMwV8IbGXtedabcMgI3","","","","","","","","","","","","","","","","","","750","","",""
"html-keyboard-response","87","204858","0.0-37.0-3.0","","null","<div style='margin:auto;width: auto; font-size: 150%'><span style='font-weight: bold; font-size: 100px; color: green;'>+10 points!</span><br><br></div>","null","delaylearn","learning","feedback_image_window","5b08185856655d0001bbfb1b","J6kxUEhPVeMwV8IbGXtedabcMgI3","","","","","","","","","","","","","","","","","","","","",""
"html-keyboard-response","88","205373","0.0-38.0-0.0","","null","","null","","","mood_trial_fixation","","","","","","","","","","","","","","","","","","","","","","",""
"lmdlab-html-vas-response","89","209495","0.0-38.0-1.0","","3113","How happy are you right now?","0.5791135797800333","delaylearn","learning","mood_trial","5b08185856655d0001bbfb1b","J6kxUEhPVeMwV8IbGXtedabcMgI3","","","","","","","","","","","","","","","","","","","","[""Very unhappy"",""Very happy""]",""
"html-keyboard-response","90","211778","0.0-39.0","","null","<div style=""font-size:100px;"">+</div>","null","delaylearn","learning","ITI","5b08185856655d0001bbfb1b","J6kxUEhPVeMwV8IbGXtedabcMgI3","","","","","","","","","","","","","","","","","","","2269","",""
"html-keyboard-response","91","212981","0.0-40.0-0.0","","1200.3999999761581","<div style=""display: flex; flex-direction: column; align-items: center; margin-top: -40px;""><img src=""images/pattern_6.png"" style=""width: 234px; height: 230px; margin-top: -50px;""><div style=""display: flex; justify-content: space-between; margin-top: 33px;""><img src=""images/choice_trial_10.png"" style=""width: 408px; height: 417px; margin-right: 200px;""><img src=""images/choice_trial_3.png"" style=""width: 408px; height: 417px;""></div></div>","j","delaylearn","learning","trial","5b08185856655d0001bbfb1b","J6kxUEhPVeMwV8IbGXtedabcMgI3","4","images/choice_trial_10.png","images/choice_trial_3.png","images/pattern_6.png","f","f","750","10","3","5","0","17","0","0","3","110","","","","",""
"html-keyboard-response","92","213989","0.0-40.0-1.0","","null","<div style=""display: flex; flex-direction: column; align-items: center; margin-top: -40px;""><img src=""images/pattern_6.png"" style=""width: 234px; height: 230px; margin-top: -50px;""><div style=""display: flex; justify-content: space-between; margin-top: 33px;""><img src=""images/choice_trial_3.png"" style=""width: 408px; height: 417px; margin-left:608px;""></div></div>","null","delaylearn","learning","display_response","5b08185856655d0001bbfb1b","J6kxUEhPVeMwV8IbGXtedabcMgI3","","","","","","","","","","","","","","","","","chosen stimuli: images/choice_trial_3.png","","","",""
"html-keyboard-response","93","214752","0.0-40.0-2.0","","null","","null","delaylearn","learning","feedback_duration_window","5b08185856655d0001bbfb1b","J6kxUEhPVeMwV8IbGXtedabcMgI3","","","","","","","","","","","","","","","","","","750","","",""
"html-keyboard-response","94","216262","0.0-40.0-3.0","","null","<div style='margin:auto;width: auto; font-size: 150%'><span style='font-weight: bold; font-size: 100px; color: red;'>0 points!</span><br><br></div>","null","delaylearn","learning","feedback_image_window","5b08185856655d0001bbfb1b","J6kxUEhPVeMwV8IbGXtedabcMgI3","","","","","","","","","","","","","","","","","","","","",""
"html-keyboard-response","95","217791","0.0-41.0","","null","<div style=""font-size:100px;"">+</div>","null","delaylearn","learning","ITI","5b08185856655d0001bbfb1b","J6kxUEhPVeMwV8IbGXtedabcMgI3","","","","","","","","","","","","","","","","","","","1513","",""
"html-keyboard-response","96","219577","0.0-42.0-0.0","","1783.8000000715256","<div style=""display: flex; flex-direction: column; align-items: center; margin-top: -40px;""><img src=""images/pattern_4.png"" style=""width: 234px; height: 230px; margin-top: -50px;""><div style=""display: flex; justify-content: space-between; margin-top: 33px;""><img src=""images/choice_trial_7.png"" style=""width: 408px; height: 417px; margin-right: 200px;""><img src=""images/choice_trial_8.png"" style=""width: 408px; height: 417px;""></div></div>","f","delaylearn","learning","trial","5b08185856655d0001bbfb1b","J6kxUEhPVeMwV8IbGXtedabcMgI3","4","images/choice_trial_7.png","images/choice_trial_8.png","images/pattern_4.png","j","j","7000","7","8","3","1","18","0","0","7","110","","","","",""
"html-keyboard-response","97","220594","0.0-42.0-1.0","","null","<div style=""display: flex; flex-direction: column; align-items: center; margin-top: -40px;""><img src=""images/pattern_4.png"" style=""width: 234px; height: 230px; margin-top: -50px;""><div style=""display: flex; justify-content: space-between; margin-top: 33px;""><img src=""images/choice_trial_7.png"" style=""width: 408px; height: 417px; margin-right: 608px;""></div></div>","null","delaylearn","learning","display_response","5b08185856655d0001bbfb1b","J6kxUEhPVeMwV8IbGXtedabcMgI3","","","","","","","","","","","","","","","","","chosen stimuli: images/choice_trial_7.png","","","",""
"html-keyboard-response","98","227607","0.0-42.0-2.0","","null","","null","delaylearn","learning","feedback_duration_window","5b08185856655d0001bbfb1b","J6kxUEhPVeMwV8IbGXtedabcMgI3","","","","","","","","","","","","","","","","","","7000","","",""
"html-keyboard-response","99","229114","0.0-42.0-3.0","","null","<div style='margin:auto;width: auto; font-size: 150%'><span style='font-weight: bold; font-size: 100px; color: red;'>0 points!</span><br><br></div>","null","delaylearn","learning","feedback_image_window","5b08185856655d0001bbfb1b","J6kxUEhPVeMwV8IbGXtedabcMgI3","","","","","","","","","","","","","","","","","","","","",""
"html-keyboard-response","100","230839","0.0-43.0","","null","<div style=""font-size:100px;"">+</div>","null","delaylearn","learning","ITI","5b08185856655d0001bbfb1b","J6kxUEhPVeMwV8IbGXtedabcMgI3","","","","","","","","","","","","","","","","","","","1716","",""
"html-keyboard-response","101","232604","0.0-44.0-0.0","","1762.1000000238419","<div style=""display: flex; flex-direction: column; align-items: center; margin-top: -40px;""><img src=""images/pattern_7.png"" style=""width: 234px; height: 230px; margin-top: -50px;""><div style=""display: flex; justify-content: space-between; margin-top: 33px;""><img src=""images/choice_trial_13.png"" style=""width: 408px; height: 417px; margin-right: 200px;""><img src=""images/choice_trial_4.png"" style=""width: 408px; height: 417px;""></div></div>","f","delaylearn","learning","trial","5b08185856655d0001bbfb1b","J6kxUEhPVeMwV8IbGXtedabcMgI3","4","images/choice_trial_13.png","images/choice_trial_4.png","images/pattern_7.png","j","f","750","13","4","6","0","19","1","0","13","110","","","","",""
"html-keyboard-response","102","233615","0.0-44.0-1.0","","null","<div style=""display: flex; flex-direction: column; align-items: center; margin-top: -40px;""><img src=""images/pattern_7.png"" style=""width: 234px; height: 230px; margin-top: -50px;""><div style=""display: flex; justify-content: space-between; margin-top: 33px;""><img src=""images/choice_trial_13.png"" style=""width: 408px; height: 417px; margin-right: 608px;""></div></div>","null","delaylearn","learning","display_response","5b08185856655d0001bbfb1b","J6kxUEhPVeMwV8IbGXtedabcMgI3","","","","","","","","","","","","","","","","","chosen stimuli: images/choice_trial_13.png","","","",""
"html-keyboard-response","103","234377","0.0-44.0-2.0","","null","","null","delaylearn","learning","feedback_duration_window","5b08185856655d0001bbfb1b","J6kxUEhPVeMwV8IbGXtedabcMgI3","","","","","","","","","","","","","","","","","","750","","",""
"html-keyboard-response","104","235880","0.0-44.0-3.0","","null","<div style='margin:auto;width: auto; font-size: 150%'><span style='font-weight: bold; font-size: 100px; color: red;'>0 points!</span><br><br></div>","null","delaylearn","learning","feedback_image_window","5b08185856655d0001bbfb1b","J6kxUEhPVeMwV8IbGXtedabcMgI3","","","","","","","","","","","","","","","","","","","","",""
"html-keyboard-response","105","237934","0.0-45.0","","null","<div style=""font-size:100px;"">+</div>","null","delaylearn","learning","ITI","5b08185856655d0001bbfb1b","J6kxUEhPVeMwV8IbGXtedabcMgI3","","","","","","","","","","","","","","","","","","","2052","",""
"html-keyboard-response","106","239514","0.0-46.0-0.0","","1577.7999999523163","<div style=""display: flex; flex-direction: column; align-items: center; margin-top: -40px;""><img src=""images/pattern_1.png"" style=""width: 234px; height: 230px; margin-top: -50px;""><div style=""display: flex; justify-content: space-between; margin-top: 33px;""><img src=""images/choice_trial_1.png"" style=""width: 408px; height: 417px; margin-right: 200px;""><img src=""images/choice_trial_9.png"" style=""width: 408px; height: 417px;""></div></div>","j","delaylearn","learning","trial","5b08185856655d0001bbfb1b","J6kxUEhPVeMwV8IbGXtedabcMgI3","4","images/choice_trial_1.png","images/choice_trial_9.png","images/pattern_1.png","f","f","7000","1","9","1","0","20","0","0","9","110","","","","",""
"html-keyboard-response","107","240525","0.0-46.0-1.0","","null","<div style=""display: flex; flex-direction: column; align-items: center; margin-top: -40px;""><img src=""images/pattern_1.png"" style=""width: 234px; height: 230px; margin-top: -50px;""><div style=""display: flex; justify-content: space-between; margin-top: 33px;""><img src=""images/choice_trial_9.png"" style=""width: 408px; height: 417px; margin-left:608px;""></div></div>","null","delaylearn","learning","display_response","5b08185856655d0001bbfb1b","J6kxUEhPVeMwV8IbGXtedabcMgI3","","","","","","","","","","","","","","","","","chosen stimuli: images/choice_trial_9.png","","","",""
"html-keyboard-response","108","247540","0.0-46.0-2.0","","null","","null","delaylearn","learning","feedback_duration_window","5b08185856655d0001bbfb1b","J6kxUEhPVeMwV8IbGXtedabcMgI3","","","","","","","","","","","","","","","","","","7000","","",""
"html-keyboard-response","109","249047","0.0-46.0-3.0","","null","<div style='margin:auto;width: auto; font-size: 150%'><span style='font-weight: bold; font-size: 100px; color: red;'>0 points!</span><br><br></div>","null","delaylearn","learning","feedback_image_window","5b08185856655d0001bbfb1b","J6kxUEhPVeMwV8IbGXtedabcMgI3","","","","","","","","","","","","","","","","","","","","",""
"html-keyboard-response","110","251086","0.0-47.0","","null","<div style=""font-size:100px;"">+</div>","null","delaylearn","learning","ITI","5b08185856655d0001bbfb1b","J6kxUEhPVeMwV8IbGXtedabcMgI3","","","","","","","","","","","","","","","","","","","2023","",""
"html-keyboard-response","111","252343","0.0-48.0-0.0","","1255.0999999046326","<div style=""display: flex; flex-direction: column; align-items: center; margin-top: -40px;""><img src=""images/pattern_6.png"" style=""width: 234px; height: 230px; margin-top: -50px;""><div style=""display: flex; justify-content: space-between; margin-top: 33px;""><img src=""images/choice_trial_3.png"" style=""width: 408px; height: 417px; margin-right: 200px;""><img src=""images/choice_trial_10.png"" style=""width: 408px; height: 417px;""></div></div>","j","delaylearn","learning","trial","5b08185856655d0001bbfb1b","J6kxUEhPVeMwV8IbGXtedabcMgI3","4","images/choice_trial_3.png","images/choice_trial_10.png","images/pattern_6.png","j","j","750","3","10","5","1","21","1","1","10","120","","","","",""
"html-keyboard-response","112","253352","0.0-48.0-1.0","","null","<div style=""display: flex; flex-direction: column; align-items: center; margin-top: -40px;""><img src=""images/pattern_6.png"" style=""width: 234px; height: 230px; margin-top: -50px;""><div style=""display: flex; justify-content: space-between; margin-top: 33px;""><img src=""images/choice_trial_10.png"" style=""width: 408px; height: 417px; margin-left:608px;""></div></div>","null","delaylearn","learning","display_response","5b08185856655d0001bbfb1b","J6kxUEhPVeMwV8IbGXtedabcMgI3","","","","","","","","","","","","","","","","","chosen stimuli: images/choice_trial_10.png","","","",""
"html-keyboard-response","113","254106","0.0-48.0-2.0","","null","","null","delaylearn","learning","feedback_duration_window","5b08185856655d0001bbfb1b","J6kxUEhPVeMwV8IbGXtedabcMgI3","","","","","","","","","","","","","","","","","","750","","",""
"html-keyboard-response","114","255618","0.0-48.0-3.0","","null","<div style='margin:auto;width: auto; font-size: 150%'><span style='font-weight: bold; font-size: 100px; color: green;'>+10 points!</span><br><br></div>","null","delaylearn","learning","feedback_image_window","5b08185856655d0001bbfb1b","J6kxUEhPVeMwV8IbGXtedabcMgI3","","","","","","","","","","","","","","","","","","","","",""
"html-keyboard-response","115","257597","0.0-49.0","","null","<div style=""font-size:100px;"">+</div>","null","delaylearn","learning","ITI","5b08185856655d0001bbfb1b","J6kxUEhPVeMwV8IbGXtedabcMgI3","","","","","","","","","","","","","","","","","","","1966","",""
"html-keyboard-response","116","259103","0.0-50.0-0.0","","1503.7999999523163","<div style=""display: flex; flex-direction: column; align-items: center; margin-top: -40px;""><img src=""images/pattern_4.png"" style=""width: 234px; height: 230px; margin-top: -50px;""><div style=""display: flex; justify-content: space-between; margin-top: 33px;""><img src=""images/choice_trial_8.png"" style=""width: 408px; height: 417px; margin-right: 200px;""><img src=""images/choice_trial_7.png"" style=""width: 408px; height: 417px;""></div></div>","j","delaylearn","learning","trial","5b08185856655d0001bbfb1b","J6kxUEhPVeMwV8IbGXtedabcMgI3","4","images/choice_trial_8.png","images/choice_trial_7.png","images/pattern_4.png","f","f","7000","8","7","3","0","22","0","0","7","120","","","","",""
"html-keyboard-response","117","260118","0.0-50.0-1.0","","null","<div style=""display: flex; flex-direction: column; align-items: center; margin-top: -40px;""><img src=""images/pattern_4.png"" style=""width: 234px; height: 230px; margin-top: -50px;""><div style=""display: flex; justify-content: space-between; margin-top: 33px;""><img src=""images/choice_trial_7.png"" style=""width: 408px; height: 417px; margin-left:608px;""></div></div>","null","delaylearn","learning","display_response","5b08185856655d0001bbfb1b","J6kxUEhPVeMwV8IbGXtedabcMgI3","","","","","","","","","","","","","","","","","chosen stimuli: images/choice_trial_7.png","","","",""
"html-keyboard-response","118","267121","0.0-50.0-2.0","","null","","null","delaylearn","learning","feedback_duration_window","5b08185856655d0001bbfb1b","J6kxUEhPVeMwV8IbGXtedabcMgI3","","","","","","","","","","","","","","","","","","7000","","",""
"html-keyboard-response","119","268623","0.0-50.0-3.0","","null","<div style='margin:auto;width: auto; font-size: 150%'><span style='font-weight: bold; font-size: 100px; color: red;'>0 points!</span><br><br></div>","null","delaylearn","learning","feedback_image_window","5b08185856655d0001bbfb1b","J6kxUEhPVeMwV8IbGXtedabcMgI3","","","","","","","","","","","","","","","","","","","","",""
"html-keyboard-response","120","269125","0.0-51.0-0.0","","null","","null","","","mood_trial_fixation","","","","","","","","","","","","","","","","","","","","","","",""
"lmdlab-html-vas-response","121","273321","0.0-51.0-1.0","","3191","How happy are you right now?","0.5386043224285586","delaylearn","learning","mood_trial","5b08185856655d0001bbfb1b","J6kxUEhPVeMwV8IbGXtedabcMgI3","","","","","","","","","","","","","","","","","","","","[""Very unhappy"",""Very happy""]",""
"html-keyboard-response","122","275376","0.0-52.0","","null","<div style=""font-size:100px;"">+</div>","null","delaylearn","learning","ITI","5b08185856655d0001bbfb1b","J6kxUEhPVeMwV8IbGXtedabcMgI3","","","","","","","","","","","","","","","","","","","2046","",""
"html-keyboard-response","123","276492","0.0-53.0-0.0","","1113.2999999523163","<div style=""display: flex; flex-direction: column; align-items: center; margin-top: -40px;""><img src=""images/pattern_7.png"" style=""width: 234px; height: 230px; margin-top: -50px;""><div style=""display: flex; justify-content: space-between; margin-top: 33px;""><img src=""images/choice_trial_4.png"" style=""width: 408px; height: 417px; margin-right: 200px;""><img src=""images/choice_trial_13.png"" style=""width: 408px; height: 417px;""></div></div>","f","delaylearn","learning","trial","5b08185856655d0001bbfb1b","J6kxUEhPVeMwV8IbGXtedabcMgI3","4","images/choice_trial_4.png","images/choice_trial_13.png","images/pattern_7.png","j","j","750","4","13","6","1","23","0","0","4","120","","","","",""
"html-keyboard-response","124","277494","0.0-53.0-1.0","","null","<div style=""display: flex; flex-direction: column; align-items: center; margin-top: -40px;""><img src=""images/pattern_7.png"" style=""width: 234px; height: 230px; margin-top: -50px;""><div style=""display: flex; justify-content: space-between; margin-top: 33px;""><img src=""images/choice_trial_4.png"" style=""width: 408px; height: 417px; margin-right: 608px;""></div></div>","null","delaylearn","learning","display_response","5b08185856655d0001bbfb1b","J6kxUEhPVeMwV8IbGXtedabcMgI3","","","","","","","","","","","","","","","","","chosen stimuli: images/choice_trial_4.png","","","",""
"html-keyboard-response","125","278261","0.0-53.0-2.0","","null","","null","delaylearn","learning","feedback_duration_window","5b08185856655d0001bbfb1b","J6kxUEhPVeMwV8IbGXtedabcMgI3","","","","","","","","","","","","","","","","","","750","","",""
"html-keyboard-response","126","279764","0.0-53.0-3.0","","null","<div style='margin:auto;width: auto; font-size: 150%'><span style='font-weight: bold; font-size: 100px; color: red;'>0 points!</span><br><br></div>","null","delaylearn","learning","feedback_image_window","5b08185856655d0001bbfb1b","J6kxUEhPVeMwV8IbGXtedabcMgI3","","","","","","","","","","","","","","","","","","","","",""
"html-keyboard-response","127","281459","0.0-54.0","","null","<div style=""font-size:100px;"">+</div>","null","delaylearn","learning","ITI","5b08185856655d0001bbfb1b","J6kxUEhPVeMwV8IbGXtedabcMgI3","","","","","","","","","","","","","","","","","","","1693","",""
"html-keyboard-response","128","282395","0.0-55.0-0.0","","933.7000000476837","<div style=""display: flex; flex-direction: column; align-items: center; margin-top: -40px;""><img src=""images/pattern_1.png"" style=""width: 234px; height: 230px; margin-top: -50px;""><div style=""display: flex; justify-content: space-between; margin-top: 33px;""><img src=""images/choice_trial_9.png"" style=""width: 408px; height: 417px; margin-right: 200px;""><img src=""images/choice_trial_1.png"" style=""width: 408px; height: 417px;""></div></div>","f","delaylearn","learning","trial","5b08185856655d0001bbfb1b","J6kxUEhPVeMwV8IbGXtedabcMgI3","4","images/choice_trial_9.png","images/choice_trial_1.png","images/pattern_1.png","f","j","7000","9","1","1","1","24","0","1","9","130","","","","",""
"html-keyboard-response","129","283409","0.0-55.0-1.0","","null","<div style=""display: flex; flex-direction: column; align-items: center; margin-top: -40px;""><img src=""images/pattern_1.png"" style=""width: 234px; height: 230px; margin-top: -50px;""><div style=""display: flex; justify-content: space-between; margin-top: 33px;""><img src=""images/choice_trial_9.png"" style=""width: 408px; height: 417px; margin-right: 608px;""></div></div>","null","delaylearn","learning","display_response","5b08185856655d0001bbfb1b","J6kxUEhPVeMwV8IbGXtedabcMgI3","","","","","","","","","","","","","","","","","chosen stimuli: images/choice_trial_9.png","","","",""
"html-keyboard-response","130","290421","0.0-55.0-2.0","","null","","null","delaylearn","learning","feedback_duration_window","5b08185856655d0001bbfb1b","J6kxUEhPVeMwV8IbGXtedabcMgI3","","","","","","","","","","","","","","","","","","7000","","",""
"html-keyboard-response","131","291923","0.0-55.0-3.0","","null","<div style='margin:auto;width: auto; font-size: 150%'><span style='font-weight: bold; font-size: 100px; color: green;'>+10 points!</span><br><br></div>","null","delaylearn","learning","feedback_image_window","5b08185856655d0001bbfb1b","J6kxUEhPVeMwV8IbGXtedabcMgI3","","","","","","","","","","","","","","","","","","","","",""
"html-keyboard-response","132","294327","0.0-56.0","","null","<div style=""font-size:100px;"">+</div>","null","delaylearn","learning","ITI","5b08185856655d0001bbfb1b","J6kxUEhPVeMwV8IbGXtedabcMgI3","","","","","","","","","","","","","","","","","","","2399","",""
"html-keyboard-response","133","295548","0.0-57.0-0.0","","1218.7000000476837","<div style=""display: flex; flex-direction: column; align-items: center; margin-top: -40px;""><img src=""images/pattern_5.png"" style=""width: 234px; height: 230px; margin-top: -50px;""><div style=""display: flex; justify-content: space-between; margin-top: 33px;""><img src=""images/choice_trial_15.png"" style=""width: 408px; height: 417px; margin-right: 200px;""><img src=""images/choice_trial_5.png"" style=""width: 408px; height: 417px;""></div></div>","f","delaylearn","learning","trial","5b08185856655d0001bbfb1b","J6kxUEhPVeMwV8IbGXtedabcMgI3","4","images/choice_trial_15.png","images/choice_trial_5.png","images/pattern_5.png","j","j","750","15","5","4","1","25","0","0","15","130","","","","",""
"html-keyboard-response","134","296554","0.0-57.0-1.0","","null","<div style=""display: flex; flex-direction: column; align-items: center; margin-top: -40px;""><img src=""images/pattern_5.png"" style=""width: 234px; height: 230px; margin-top: -50px;""><div style=""display: flex; justify-content: space-between; margin-top: 33px;""><img src=""images/choice_trial_15.png"" style=""width: 408px; height: 417px; margin-right: 608px;""></div></div>","null","delaylearn","learning","display_response","5b08185856655d0001bbfb1b","J6kxUEhPVeMwV8IbGXtedabcMgI3","","","","","","","","","","","","","","","","","chosen stimuli: images/choice_trial_15.png","","","",""
"html-keyboard-response","135","297306","0.0-57.0-2.0","","null","","null","delaylearn","learning","feedback_duration_window","5b08185856655d0001bbfb1b","J6kxUEhPVeMwV8IbGXtedabcMgI3","","","","","","","","","","","","","","","","","","750","","",""
"html-keyboard-response","136","298818","0.0-57.0-3.0","","null","<div style='margin:auto;width: auto; font-size: 150%'><span style='font-weight: bold; font-size: 100px; color: red;'>0 points!</span><br><br></div>","null","delaylearn","learning","feedback_image_window","5b08185856655d0001bbfb1b","J6kxUEhPVeMwV8IbGXtedabcMgI3","","","","","","","","","","","","","","","","","","","","",""
"html-keyboard-response","137","300532","0.0-58.0","","null","<div style=""font-size:100px;"">+</div>","null","delaylearn","learning","ITI","5b08185856655d0001bbfb1b","J6kxUEhPVeMwV8IbGXtedabcMgI3","","","","","","","","","","","","","","","","","","","1713","",""
"html-keyboard-response","138","301957","0.0-59.0-0.0","","1422.2999999523163","<div style=""display: flex; flex-direction: column; align-items: center; margin-top: -40px;""><img src=""images/pattern_3.png"" style=""width: 234px; height: 230px; margin-top: -50px;""><div style=""display: flex; justify-content: space-between; margin-top: 33px;""><img src=""images/choice_trial_6.png"" style=""width: 408px; height: 417px; margin-right: 200px;""><img src=""images/choice_trial_16.png"" style=""width: 408px; height: 417px;""></div></div>","j","delaylearn","learning","trial","5b08185856655d0001bbfb1b","J6kxUEhPVeMwV8IbGXtedabcMgI3","4","images/choice_trial_6.png","images/choice_trial_16.png","images/pattern_3.png","j","j","7000","6","16","2","1","26","1","1","16","140","","","","",""
"html-keyboard-response","139","302974","0.0-59.0-1.0","","null","<div style=""display: flex; flex-direction: column; align-items: center; margin-top: -40px;""><img src=""images/pattern_3.png"" style=""width: 234px; height: 230px; margin-top: -50px;""><div style=""display: flex; justify-content: space-between; margin-top: 33px;""><img src=""images/choice_trial_16.png"" style=""width: 408px; height: 417px; margin-left:608px;""></div></div>","null","delaylearn","learning","display_response","5b08185856655d0001bbfb1b","J6kxUEhPVeMwV8IbGXtedabcMgI3","","","","","","","","","","","","","","","","","chosen stimuli: images/choice_trial_16.png","","","",""
"html-keyboard-response","140","309990","0.0-59.0-2.0","","null","","null","delaylearn","learning","feedback_duration_window","5b08185856655d0001bbfb1b","J6kxUEhPVeMwV8IbGXtedabcMgI3","","","","","","","","","","","","","","","","","","7000","","",""
"html-keyboard-response","141","311498","0.0-59.0-3.0","","null","<div style='margin:auto;width: auto; font-size: 150%'><span style='font-weight: bold; font-size: 100px; color: green;'>+10 points!</span><br><br></div>","null","delaylearn","learning","feedback_image_window","5b08185856655d0001bbfb1b","J6kxUEhPVeMwV8IbGXtedabcMgI3","","","","","","","","","","","","","","","","","","","","",""
"lmdlab-html-vas-response","142","316574","0.0-60.0-0.0","","3559","*How <b><u>confident</u></b> are you feeling about your answers at this moment?*","0.3437499484898156","rewlearn","rate_confidence","","5b08185856655d0001bbfb1b","J6kxUEhPVeMwV8IbGXtedabcMgI3","","","","","","","","","","","","","","","","","","","","[""No confidence"",""Complete confidence""]",""
"lmdlab-rest-trial-limit","143","336020","0.0-60.0-1.0","","17930.299999952316","<div style=""font-size:40px;""><b>Please take a break!</b><br><br><br><br><p>Great work: you earned 140 points.<br><br><br><p>You have completed part(s) 1 of 5.<br><br><br><br>When you are ready to continue<br><br><br>please click the button.</p><br><br>","0","delaylearn","learning","break","5b08185856655d0001bbfb1b","J6kxUEhPVeMwV8IbGXtedabcMgI3","","","","","","","","","","","","","","","","","","","","","0"
"html-keyboard-response","144","339028","0.0-60.0-2.0","","null","<div style=""font-size:100px;"">+</div>","null","delaylearn","learning","pre_fixation","5b08185856655d0001bbfb1b","","","","","","","","","","","","","","","","","","","","","",""
"lmdlab-html-vas-response","145","342899","0.0-60.0-3.0-0.0","","2863","How happy are you right now?","0.5366753101737265","delaylearn","learning","mood_baseline","5b08185856655d0001bbfb1b","J6kxUEhPVeMwV8IbGXtedabcMgI3","","","","","","","","","","","","","","","","","","","","[""Very unhappy"",""Very happy""]",""
"html-keyboard-response","146","344402","0.0-60.0-3.0-1.0","","null","","null","","","mood_baseline_fixation","","","","","","","","","","","","","","","","","","","","","","",""
"html-keyboard-response","147","346137","0.0-61.0","","null","<div style=""font-size:100px;"">+</div>","null","delaylearn","learning","ITI","5b08185856655d0001bbfb1b","J6kxUEhPVeMwV8IbGXtedabcMgI3","","","","","","","","","","","","","","","","","","","1731","",""
"html-keyboard-response","148","347607","0.0-62.0-0.0","","1468.1000000238419","<div style=""display: flex; flex-direction: column; align-items: center; margin-top: -40px;""><img src=""images/pattern_7.png"" style=""width: 234px; height: 230px; margin-top: -50px;""><div style=""display: flex; justify-content: space-between; margin-top: 33px;""><img src=""images/choice_trial_4.png"" style=""width: 408px; height: 417px; margin-right: 200px;""><img src=""images/choice_trial_13.png"" style=""width: 408px; height: 417px;""></div></div>","j","delaylearn","learning","trial","5b08185856655d0001bbfb1b","J6kxUEhPVeMwV8IbGXtedabcMgI3","4","images/choice_trial_4.png","images/choice_trial_13.png","images/pattern_7.png","j","j","750","4","13","6","1","27","1","1","13","150","","","","",""
"html-keyboard-response","149","348625","0.0-62.0-1.0","","null","<div style=""display: flex; flex-direction: column; align-items: center; margin-top: -40px;""><img src=""images/pattern_7.png"" style=""width: 234px; height: 230px; margin-top: -50px;""><div style=""display: flex; justify-content: space-between; margin-top: 33px;""><img src=""images/choice_trial_13.png"" style=""width: 408px; height: 417px; margin-left:608px;""></div></div>","null","delaylearn","learning","display_response","5b08185856655d0001bbfb1b","J6kxUEhPVeMwV8IbGXtedabcMgI3","","","","","","","","","","","","","","","","","chosen stimuli: images/choice_trial_13.png","","","",""
"html-keyboard-response","150","349390","0.0-62.0-2.0","","null","","null","delaylearn","learning","feedback_duration_window","5b08185856655d0001bbfb1b","J6kxUEhPVeMwV8IbGXtedabcMgI3","","","","","","","","","","","","","","","","","","750","","",""
"html-keyboard-response","151","350901","0.0-62.0-3.0","","null","<div style='margin:auto;width: auto; font-size: 150%'><span style='font-weight: bold; font-size: 100px; color: green;'>+10 points!</span><br><br></div>","null","delaylearn","learning","feedback_image_window","5b08185856655d0001bbfb1b","J6kxUEhPVeMwV8IbGXtedabcMgI3","","","","","","","","","","","","","","","","","","","","",""
"html-keyboard-response","152","351416","0.0-63.0-0.0","","null","","null","","","mood_trial_fixation","","","","","","","","","","","","","","","","","","","","","","",""
"lmdlab-html-vas-response","153","355228","0.0-63.0-1.0","","2798","How happy are you right now?","0.7064283885989536","delaylearn","learning","mood_trial","5b08185856655d0001bbfb1b","J6kxUEhPVeMwV8IbGXtedabcMgI3","","","","","","","","","","","","","","","","","","","","[""Very unhappy"",""Very happy""]",""
"html-keyboard-response","154","357380","0.0-64.0","","null","<div style=""font-size:100px;"">+</div>","null","delaylearn","learning","ITI","5b08185856655d0001bbfb1b","J6kxUEhPVeMwV8IbGXtedabcMgI3","","","","","","","","","","","","","","","","","","","2147","",""
"html-keyboard-response","155","358353","0.0-65.0-0.0","","971.1000000238419","<div style=""display: flex; flex-direction: column; align-items: center; margin-top: -40px;""><img src=""images/pattern_1.png"" style=""width: 234px; height: 230px; margin-top: -50px;""><div style=""display: flex; justify-content: space-between; margin-top: 33px;""><img src=""images/choice_trial_1.png"" style=""width: 408px; height: 417px; margin-right: 200px;""><img src=""images/choice_trial_9.png"" style=""width: 408px; height: 417px;""></div></div>","j","delaylearn","learning","trial","5b08185856655d0001bbfb1b","J6kxUEhPVeMwV8IbGXtedabcMgI3","4","images/choice_trial_1.png","images/choice_trial_9.png","images/pattern_1.png","f","f","7000","1","9","1","0","28","0","0","9","150","","","","",""
"html-keyboard-response","156","359366","0.0-65.0-1.0","","null","<div style=""display: flex; flex-direction: column; align-items: center; margin-top: -40px;""><img src=""images/pattern_1.png"" style=""width: 234px; height: 230px; margin-top: -50px;""><div style=""display: flex; justify-content: space-between; margin-top: 33px;""><img src=""images/choice_trial_9.png"" style=""width: 408px; height: 417px; margin-left:608px;""></div></div>","null","delaylearn","learning","display_response","5b08185856655d0001bbfb1b","J6kxUEhPVeMwV8IbGXtedabcMgI3","","","","","","","","","","","","","","","","","chosen stimuli: images/choice_trial_9.png","","","",""
"html-keyboard-response","157","366368","0.0-65.0-2.0","","null","","null","delaylearn","learning","feedback_duration_window","5b08185856655d0001bbfb1b","J6kxUEhPVeMwV8IbGXtedabcMgI3","","","","","","","","","","","","","","","","","","7000","","",""
"html-keyboard-response","158","367881","0.0-65.0-3.0","","null","<div style='margin:auto;width: auto; font-size: 150%'><span style='font-weight: bold; font-size: 100px; color: red;'>0 points!</span><br><br></div>","null","delaylearn","learning","feedback_image_window","5b08185856655d0001bbfb1b","J6kxUEhPVeMwV8IbGXtedabcMgI3","","","","","","","","","","","","","","","","","","","","",""
"html-keyboard-response","159","370020","0.0-66.0","","null","<div style=""font-size:100px;"">+</div>","null","delaylearn","learning","ITI","5b08185856655d0001bbfb1b","J6kxUEhPVeMwV8IbGXtedabcMgI3","","","","","","","","","","","","","","","","","","","2126","",""
"html-keyboard-response","160","371288","0.0-67.0-0.0","","1266","<div style=""display: flex; flex-direction: column; align-items: center; margin-top: -40px;""><img src=""images/pattern_5.png"" style=""width: 234px; height: 230px; margin-top: -50px;""><div style=""display: flex; justify-content: space-between; margin-top: 33px;""><img src=""images/choice_trial_5.png"" style=""width: 408px; height: 417px; margin-right: 200px;""><img src=""images/choice_trial_15.png"" style=""width: 408px; height: 417px;""></div></div>","j","delaylearn","learning","trial","5b08185856655d0001bbfb1b","J6kxUEhPVeMwV8IbGXtedabcMgI3","4","images/choice_trial_5.png","images/choice_trial_15.png","images/pattern_5.png","f","f","750","5","15","4","0","29","0","0","15","150","","","","",""
"html-keyboard-response","161","372300","0.0-67.0-1.0","","null","<div style=""display: flex; flex-direction: column; align-items: center; margin-top: -40px;""><img src=""images/pattern_5.png"" style=""width: 234px; height: 230px; margin-top: -50px;""><div style=""display: flex; justify-content: space-between; margin-top: 33px;""><img src=""images/choice_trial_15.png"" style=""width: 408px; height: 417px; margin-left:608px;""></div></div>","null","delaylearn","learning","display_response","5b08185856655d0001bbfb1b","J6kxUEhPVeMwV8IbGXtedabcMgI3","","","","","","","","","","","","","","","","","chosen stimuli: images/choice_trial_15.png","","","",""
"html-keyboard-response","162","373051","0.0-67.0-2.0","","null","","null","delaylearn","learning","feedback_duration_window","5b08185856655d0001bbfb1b","J6kxUEhPVeMwV8IbGXtedabcMgI3","","","","","","","","","","","","","","","","","","750","","",""
"html-keyboard-response","163","374566","0.0-67.0-3.0","","null","<div style='margin:auto;width: auto; font-size: 150%'><span style='font-weight: bold; font-size: 100px; color: red;'>0 points!</span><br><br></div>","null","delaylearn","learning","feedback_image_window","5b08185856655d0001bbfb1b","J6kxUEhPVeMwV8IbGXtedabcMgI3","","","","","","","","","","","","","","","","","","","","",""
"html-keyboard-response","164","376985","0.0-68.0","","null","<div style=""font-size:100px;"">+</div>","null","delaylearn","learning","ITI","5b08185856655d0001bbfb1b","J6kxUEhPVeMwV8IbGXtedabcMgI3","","","","","","","","","","","","","","","","","","","2416","",""
"html-keyboard-response","165","378465","0.0-69.0-0.0","","1477.9000000953674","<div style=""display: flex; flex-direction: column; align-items: center; margin-top: -40px;""><img src=""images/pattern_6.png"" style=""width: 234px; height: 230px; margin-top: -50px;""><div style=""display: flex; justify-content: space-between; margin-top: 33px;""><img src=""images/choice_trial_3.png"" style=""width: 408px; height: 417px; margin-right: 200px;""><img src=""images/choice_trial_10.png"" style=""width: 408px; height: 417px;""></div></div>","f","delaylearn","learning","trial","5b08185856655d0001bbfb1b","J6kxUEhPVeMwV8IbGXtedabcMgI3","4","images/choice_trial_3.png","images/choice_trial_10.png","images/pattern_6.png","j","j","750","3","10","5","1","30","0","0","3","150","","","","",""
"html-keyboard-response","166","379474","0.0-69.0-1.0","","null","<div style=""display: flex; flex-direction: column; align-items: center; margin-top: -40px;""><img src=""images/pattern_6.png"" style=""width: 234px; height: 230px; margin-top: -50px;""><div style=""display: flex; justify-content: space-between; margin-top: 33px;""><img src=""images/choice_trial_3.png"" style=""width: 408px; height: 417px; margin-right: 608px;""></div></div>","null","delaylearn","learning","display_response","5b08185856655d0001bbfb1b","J6kxUEhPVeMwV8IbGXtedabcMgI3","","","","","","","","","","","","","","","","","chosen stimuli: images/choice_trial_3.png","","","",""
"html-keyboard-response","167","380237","0.0-69.0-2.0","","null","","null","delaylearn","learning","feedback_duration_window","5b08185856655d0001bbfb1b","J6kxUEhPVeMwV8IbGXtedabcMgI3","","","","","","","","","","","","","","","","","","750","","",""
"html-keyboard-response","168","381750","0.0-69.0-3.0","","null","<div style='margin:auto;width: auto; font-size: 150%'><span style='font-weight: bold; font-size: 100px; color: red;'>0 points!</span><br><br></div>","null","delaylearn","learning","feedback_image_window","5b08185856655d0001bbfb1b","J6kxUEhPVeMwV8IbGXtedabcMgI3","","","","","","","","","","","","","","","","","","","","",""
"html-keyboard-response","169","382253","0.0-70.0-0.0","","null","","null","","","mood_trial_fixation","","","","","","","","","","","","","","","","","","","","","","",""
"lmdlab-html-vas-response","170","386084","0.0-70.0-1.0","","2818","How happy are you right now?","0.39199939106131704","delaylearn","learning","mood_trial","5b08185856655d0001bbfb1b","J6kxUEhPVeMwV8IbGXtedabcMgI3","","","","","","","","","","","","","","","","","","","","[""Very unhappy"",""Very happy""]",""
"html-keyboard-response","171","387832","0.0-71.0","","null","<div style=""font-size:100px;"">+</div>","null","delaylearn","learning","ITI","5b08185856655d0001bbfb1b","J6kxUEhPVeMwV8IbGXtedabcMgI3","","","","","","","","","","","","","","","","","","","1733","",""
"html-keyboard-response","172","389508","0.0-72.0-0.0","","1673.6000000238419","<div style=""display: flex; flex-direction: column; align-items: center; margin-top: -40px;""><img src=""images/pattern_4.png"" style=""width: 234px; height: 230px; margin-top: -50px;""><div style=""display: flex; justify-content: space-between; margin-top: 33px;""><img src=""images/choice_trial_7.png"" style=""width: 408px; height: 417px; margin-right: 200px;""><img src=""images/choice_trial_8.png"" style=""width: 408px; height: 417px;""></div></div>","j","delaylearn","learning","trial","5b08185856655d0001bbfb1b","J6kxUEhPVeMwV8IbGXtedabcMgI3","4","images/choice_trial_7.png","images/choice_trial_8.png","images/pattern_4.png","j","j","7000","7","8","3","1","31","1","1","8","160","","","","",""
"html-keyboard-response","173","390515","0.0-72.0-1.0","","null","<div style=""display: flex; flex-direction: column; align-items: center; margin-top: -40px;""><img src=""images/pattern_4.png"" style=""width: 234px; height: 230px; margin-top: -50px;""><div style=""display: flex; justify-content: space-between; margin-top: 33px;""><img src=""images/choice_trial_8.png"" style=""width: 408px; height: 417px; margin-left:608px;""></div></div>","null","delaylearn","learning","display_response","5b08185856655d0001bbfb1b","J6kxUEhPVeMwV8IbGXtedabcMgI3","","","","","","","","","","","","","","","","","chosen stimuli: images/choice_trial_8.png","","","",""
"html-keyboard-response","174","397531","0.0-72.0-2.0","","null","","null","delaylearn","learning","feedback_duration_window","5b08185856655d0001bbfb1b","J6kxUEhPVeMwV8IbGXtedabcMgI3","","","","","","","","","","","","","","","","","","7000","","",""
"html-keyboard-response","175","399040","0.0-72.0-3.0","","null","<div style='margin:auto;width: auto; font-size: 150%'><span style='font-weight: bold; font-size: 100px; color: green;'>+10 points!</span><br><br></div>","null","delaylearn","learning","feedback_image_window","5b08185856655d0001bbfb1b","J6kxUEhPVeMwV8IbGXtedabcMgI3","","","","","","","","","","","","","","","","","","","","",""
"html-keyboard-response","176","401421","0.0-73.0","","null","<div style=""font-size:100px;"">+</div>","null","delaylearn","learning","ITI","5b08185856655d0001bbfb1b","J6kxUEhPVeMwV8IbGXtedabcMgI3","","","","","","","","","","","","","","","","","","","2376","",""
"html-keyboard-response","177","402272","0.0-74.0-0.0","","847.8000000715256","<div style=""display: flex; flex-direction: column; align-items: center; margin-top: -40px;""><img src=""images/pattern_3.png"" style=""width: 234px; height: 230px; margin-top: -50px;""><div style=""display: flex; justify-content: space-between; margin-top: 33px;""><img src=""images/choice_trial_6.png"" style=""width: 408px; height: 417px; margin-right: 200px;""><img src=""images/choice_trial_16.png"" style=""width: 408px; height: 417px;""></div></div>","j","delaylearn","learning","trial","5b08185856655d0001bbfb1b","J6kxUEhPVeMwV8IbGXtedabcMgI3","4","images/choice_trial_6.png","images/choice_trial_16.png","images/pattern_3.png","j","j","7000","6","16","2","1","32","1","1","16","170","","","","",""
"html-keyboard-response","178","403287","0.0-74.0-1.0","","null","<div style=""display: flex; flex-direction: column; align-items: center; margin-top: -40px;""><img src=""images/pattern_3.png"" style=""width: 234px; height: 230px; margin-top: -50px;""><div style=""display: flex; justify-content: space-between; margin-top: 33px;""><img src=""images/choice_trial_16.png"" style=""width: 408px; height: 417px; margin-left:608px;""></div></div>","null","delaylearn","learning","display_response","5b08185856655d0001bbfb1b","J6kxUEhPVeMwV8IbGXtedabcMgI3","","","","","","","","","","","","","","","","","chosen stimuli: images/choice_trial_16.png","","","",""
"html-keyboard-response","179","410299","0.0-74.0-2.0","","null","","null","delaylearn","learning","feedback_duration_window","5b08185856655d0001bbfb1b","J6kxUEhPVeMwV8IbGXtedabcMgI3","","","","","","","","","","","","","","","","","","7000","","",""
"html-keyboard-response","180","411813","0.0-74.0-3.0","","null","<div style='margin:auto;width: auto; font-size: 150%'><span style='font-weight: bold; font-size: 100px; color: green;'>+10 points!</span><br><br></div>","null","delaylearn","learning","feedback_image_window","5b08185856655d0001bbfb1b","J6kxUEhPVeMwV8IbGXtedabcMgI3","","","","","","","","","","","","","","","","","","","","",""
"html-keyboard-response","181","413322","0.0-75.0","","null","<div style=""font-size:100px;"">+</div>","null","delaylearn","learning","ITI","5b08185856655d0001bbfb1b","J6kxUEhPVeMwV8IbGXtedabcMgI3","","","","","","","","","","","","","","","","","","","1503","",""
"html-keyboard-response","182","414234","0.0-76.0-0.0","","909","<div style=""display: flex; flex-direction: column; align-items: center; margin-top: -40px;""><img src=""images/pattern_5.png"" style=""width: 234px; height: 230px; margin-top: -50px;""><div style=""display: flex; justify-content: space-between; margin-top: 33px;""><img src=""images/choice_trial_5.png"" style=""width: 408px; height: 417px; margin-right: 200px;""><img src=""images/choice_trial_15.png"" style=""width: 408px; height: 417px;""></div></div>","f","delaylearn","learning","trial","5b08185856655d0001bbfb1b","J6kxUEhPVeMwV8IbGXtedabcMgI3","4","images/choice_trial_5.png","images/choice_trial_15.png","images/pattern_5.png","j","f","750","5","15","4","0","33","1","0","5","170","","","","",""
"html-keyboard-response","183","415241","0.0-76.0-1.0","","null","<div style=""display: flex; flex-direction: column; align-items: center; margin-top: -40px;""><img src=""images/pattern_5.png"" style=""width: 234px; height: 230px; margin-top: -50px;""><div style=""display: flex; justify-content: space-between; margin-top: 33px;""><img src=""images/choice_trial_5.png"" style=""width: 408px; height: 417px; margin-right: 608px;""></div></div>","null","delaylearn","learning","display_response","5b08185856655d0001bbfb1b","J6kxUEhPVeMwV8IbGXtedabcMgI3","","","","","","","","","","","","","","","","","chosen stimuli: images/choice_trial_5.png","","","",""
"html-keyboard-response","184","415998","0.0-76.0-2.0","","null","","null","delaylearn","learning","feedback_duration_window","5b08185856655d0001bbfb1b","J6kxUEhPVeMwV8IbGXtedabcMgI3","","","","","","","","","","","","","","","","","","750","","",""
"html-keyboard-response","185","417510","0.0-76.0-3.0","","null","<div style='margin:auto;width: auto; font-size: 150%'><span style='font-weight: bold; font-size: 100px; color: red;'>0 points!</span><br><br></div>","null","delaylearn","learning","feedback_image_window","5b08185856655d0001bbfb1b","J6kxUEhPVeMwV8IbGXtedabcMgI3","","","","","","","","","","","","","","","","","","","","",""
"html-keyboard-response","186","419276","0.0-77.0","","null","<div style=""font-size:100px;"">+</div>","null","delaylearn","learning","ITI","5b08185856655d0001bbfb1b","J6kxUEhPVeMwV8IbGXtedabcMgI3","","","","","","","","","","","","","","","","","","","1749","",""
"html-keyboard-response","187","420680","0.0-78.0-0.0","","1400.5","<div style=""display: flex; flex-direction: column; align-items: center; margin-top: -40px;""><img src=""images/pattern_1.png"" style=""width: 234px; height: 230px; margin-top: -50px;""><div style=""display: flex; justify-content: space-between; margin-top: 33px;""><img src=""images/choice_trial_1.png"" style=""width: 408px; height: 417px; margin-right: 200px;""><img src=""images/choice_trial_9.png"" style=""width: 408px; height: 417px;""></div></div>","f","delaylearn","learning","trial","5b08185856655d0001bbfb1b","J6kxUEhPVeMwV8IbGXtedabcMgI3","4","images/choice_trial_1.png","images/choice_trial_9.png","images/pattern_1.png","f","f","7000","1","9","1","0","34","1","1","1","180","","","","",""
"html-keyboard-response","188","421687","0.0-78.0-1.0","","null","<div style=""display: flex; flex-direction: column; align-items: center; margin-top: -40px;""><img src=""images/pattern_1.png"" style=""width: 234px; height: 230px; margin-top: -50px;""><div style=""display: flex; justify-content: space-between; margin-top: 33px;""><img src=""images/choice_trial_1.png"" style=""width: 408px; height: 417px; margin-right: 608px;""></div></div>","null","delaylearn","learning","display_response","5b08185856655d0001bbfb1b","J6kxUEhPVeMwV8IbGXtedabcMgI3","","","","","","","","","","","","","","","","","chosen stimuli: images/choice_trial_1.png","","","",""
"html-keyboard-response","189","428693","0.0-78.0-2.0","","null","","null","delaylearn","learning","feedback_duration_window","5b08185856655d0001bbfb1b","J6kxUEhPVeMwV8IbGXtedabcMgI3","","","","","","","","","","","","","","","","","","7000","","",""
"html-keyboard-response","190","430209","0.0-78.0-3.0","","null","<div style='margin:auto;width: auto; font-size: 150%'><span style='font-weight: bold; font-size: 100px; color: green;'>+10 points!</span><br><br></div>","null","delaylearn","learning","feedback_image_window","5b08185856655d0001bbfb1b","J6kxUEhPVeMwV8IbGXtedabcMgI3","","","","","","","","","","","","","","","","","","","","",""
"html-keyboard-response","191","430716","0.0-79.0-0.0","","null","","null","","","mood_trial_fixation","","","","","","","","","","","","","","","","","","","","","","",""
"lmdlab-html-vas-response","192","434430","0.0-79.0-1.0","","2699","How happy are you right now?","0.5366753101737265","delaylearn","learning","mood_trial","5b08185856655d0001bbfb1b","J6kxUEhPVeMwV8IbGXtedabcMgI3","","","","","","","","","","","","","","","","","","","","[""Very unhappy"",""Very happy""]",""
"html-keyboard-response","193","436021","0.0-80.0","","null","<div style=""font-size:100px;"">+</div>","null","delaylearn","learning","ITI","5b08185856655d0001bbfb1b","J6kxUEhPVeMwV8IbGXtedabcMgI3","","","","","","","","","","","","","","","","","","","1581","",""
"html-keyboard-response","194","436877","0.0-81.0-0.0","","853.7999999523163","<div style=""display: flex; flex-direction: column; align-items: center; margin-top: -40px;""><img src=""images/pattern_6.png"" style=""width: 234px; height: 230px; margin-top: -50px;""><div style=""display: flex; justify-content: space-between; margin-top: 33px;""><img src=""images/choice_trial_10.png"" style=""width: 408px; height: 417px; margin-right: 200px;""><img src=""images/choice_trial_3.png"" style=""width: 408px; height: 417px;""></div></div>","j","delaylearn","learning","trial","5b08185856655d0001bbfb1b","J6kxUEhPVeMwV8IbGXtedabcMgI3","4","images/choice_trial_10.png","images/choice_trial_3.png","images/pattern_6.png","j","f","750","10","3","5","0","35","0","1","3","190","","","","",""
"html-keyboard-response","195","437892","0.0-81.0-1.0","","null","<div style=""display: flex; flex-direction: column; align-items: center; margin-top: -40px;""><img src=""images/pattern_6.png"" style=""width: 234px; height: 230px; margin-top: -50px;""><div style=""display: flex; justify-content: space-between; margin-top: 33px;""><img src=""images/choice_trial_3.png"" style=""width: 408px; height: 417px; margin-left:608px;""></div></div>","null","delaylearn","learning","display_response","5b08185856655d0001bbfb1b","J6kxUEhPVeMwV8IbGXtedabcMgI3","","","","","","","","","","","","","","","","","chosen stimuli: images/choice_trial_3.png","","","",""
"html-keyboard-response","196","438655","0.0-81.0-2.0","","null","","null","delaylearn","learning","feedback_duration_window","5b08185856655d0001bbfb1b","J6kxUEhPVeMwV8IbGXtedabcMgI3","","","","","","","","","","","","","","","","","","750","","",""
"html-keyboard-response","197","440170","0.0-81.0-3.0","","null","<div style='margin:auto;width: auto; font-size: 150%'><span style='font-weight: bold; font-size: 100px; color: green;'>+10 points!</span><br><br></div>","null","delaylearn","learning","feedback_image_window","5b08185856655d0001bbfb1b","J6kxUEhPVeMwV8IbGXtedabcMgI3","","","","","","","","","","","","","","","","","","","","",""
"html-keyboard-response","198","442208","0.0-82.0","","null","<div style=""font-size:100px;"">+</div>","null","delaylearn","learning","ITI","5b08185856655d0001bbfb1b","J6kxUEhPVeMwV8IbGXtedabcMgI3","","","","","","","","","","","","","","","","","","","2022","",""
"html-keyboard-response","199","442922","0.0-83.0-0.0","","711.7000000476837","<div style=""display: flex; flex-direction: column; align-items: center; margin-top: -40px;""><img src=""images/pattern_3.png"" style=""width: 234px; height: 230px; margin-top: -50px;""><div style=""display: flex; justify-content: space-between; margin-top: 33px;""><img src=""images/choice_trial_6.png"" style=""width: 408px; height: 417px; margin-right: 200px;""><img src=""images/choice_trial_16.png"" style=""width: 408px; height: 417px;""></div></div>","j","delaylearn","learning","trial","5b08185856655d0001bbfb1b","J6kxUEhPVeMwV8IbGXtedabcMgI3","4","images/choice_trial_6.png","images/choice_trial_16.png","images/pattern_3.png","j","j","7000","6","16","2","1","36","1","1","16","200","","","","",""
"html-keyboard-response","200","443925","0.0-83.0-1.0","","null","<div style=""display: flex; flex-direction: column; align-items: center; margin-top: -40px;""><img src=""images/pattern_3.png"" style=""width: 234px; height: 230px; margin-top: -50px;""><div style=""display: flex; justify-content: space-between; margin-top: 33px;""><img src=""images/choice_trial_16.png"" style=""width: 408px; height: 417px; margin-left:608px;""></div></div>","null","delaylearn","learning","display_response","5b08185856655d0001bbfb1b","J6kxUEhPVeMwV8IbGXtedabcMgI3","","","","","","","","","","","","","","","","","chosen stimuli: images/choice_trial_16.png","","","",""
"html-keyboard-response","201","450934","0.0-83.0-2.0","","null","","null","delaylearn","learning","feedback_duration_window","5b08185856655d0001bbfb1b","J6kxUEhPVeMwV8IbGXtedabcMgI3","","","","","","","","","","","","","","","","","","7000","","",""
"html-keyboard-response","202","452436","0.0-83.0-3.0","","null","<div style='margin:auto;width: auto; font-size: 150%'><span style='font-weight: bold; font-size: 100px; color: green;'>+10 points!</span><br><br></div>","null","delaylearn","learning","feedback_image_window","5b08185856655d0001bbfb1b","J6kxUEhPVeMwV8IbGXtedabcMgI3","","","","","","","","","","","","","","","","","","","","",""
"html-keyboard-response","203","454055","0.0-84.0","","null","<div style=""font-size:100px;"">+</div>","null","delaylearn","learning","ITI","5b08185856655d0001bbfb1b","J6kxUEhPVeMwV8IbGXtedabcMgI3","","","","","","","","","","","","","","","","","","","1611","",""
"html-keyboard-response","204","455627","0.0-85.0-0.0","","1569.6000000238419","<div style=""display: flex; flex-direction: column; align-items: center; margin-top: -40px;""><img src=""images/pattern_4.png"" style=""width: 234px; height: 230px; margin-top: -50px;""><div style=""display: flex; justify-content: space-between; margin-top: 33px;""><img src=""images/choice_trial_7.png"" style=""width: 408px; height: 417px; margin-right: 200px;""><img src=""images/choice_trial_8.png"" style=""width: 408px; height: 417px;""></div></div>","f","delaylearn","learning","trial","5b08185856655d0001bbfb1b","J6kxUEhPVeMwV8IbGXtedabcMgI3","4","images/choice_trial_7.png","images/choice_trial_8.png","images/pattern_4.png","f","j","7000","7","8","3","1","37","0","1","7","210","","","","",""
"html-keyboard-response","205","456638","0.0-85.0-1.0","","null","<div style=""display: flex; flex-direction: column; align-items: center; margin-top: -40px;""><img src=""images/pattern_4.png"" style=""width: 234px; height: 230px; margin-top: -50px;""><div style=""display: flex; justify-content: space-between; margin-top: 33px;""><img src=""images/choice_trial_7.png"" style=""width: 408px; height: 417px; margin-right: 608px;""></div></div>","null","delaylearn","learning","display_response","5b08185856655d0001bbfb1b","J6kxUEhPVeMwV8IbGXtedabcMgI3","","","","","","","","","","","","","","","","","chosen stimuli: images/choice_trial_7.png","","","",""
"html-keyboard-response","206","463640","0.0-85.0-2.0","","null","","null","delaylearn","learning","feedback_duration_window","5b08185856655d0001bbfb1b","J6kxUEhPVeMwV8IbGXtedabcMgI3","","","","","","","","","","","","","","","","","","7000","","",""
"html-keyboard-response","207","465154","0.0-85.0-3.0","","null","<div style='margin:auto;width: auto; font-size: 150%'><span style='font-weight: bold; font-size: 100px; color: green;'>+10 points!</span><br><br></div>","null","delaylearn","learning","feedback_image_window","5b08185856655d0001bbfb1b","J6kxUEhPVeMwV8IbGXtedabcMgI3","","","","","","","","","","","","","","","","","","","","",""
"html-keyboard-response","208","467410","0.0-86.0","","null","<div style=""font-size:100px;"">+</div>","null","delaylearn","learning","ITI","5b08185856655d0001bbfb1b","J6kxUEhPVeMwV8IbGXtedabcMgI3","","","","","","","","","","","","","","","","","","","2249","",""
"html-keyboard-response","209","468270","0.0-87.0-0.0","","857.2000000476837","<div style=""display: flex; flex-direction: column; align-items: center; margin-top: -40px;""><img src=""images/pattern_7.png"" style=""width: 234px; height: 230px; margin-top: -50px;""><div style=""display: flex; justify-content: space-between; margin-top: 33px;""><img src=""images/choice_trial_13.png"" style=""width: 408px; height: 417px; margin-right: 200px;""><img src=""images/choice_trial_4.png"" style=""width: 408px; height: 417px;""></div></div>","j","delaylearn","learning","trial","5b08185856655d0001bbfb1b","J6kxUEhPVeMwV8IbGXtedabcMgI3","4","images/choice_trial_13.png","images/choice_trial_4.png","images/pattern_7.png","f","f","750","13","4","6","0","38","0","0","4","210","","","","",""
"html-keyboard-response","210","469283","0.0-87.0-1.0","","null","<div style=""display: flex; flex-direction: column; align-items: center; margin-top: -40px;""><img src=""images/pattern_7.png"" style=""width: 234px; height: 230px; margin-top: -50px;""><div style=""display: flex; justify-content: space-between; margin-top: 33px;""><img src=""images/choice_trial_4.png"" style=""width: 408px; height: 417px; margin-left:608px;""></div></div>","null","delaylearn","learning","display_response","5b08185856655d0001bbfb1b","J6kxUEhPVeMwV8IbGXtedabcMgI3","","","","","","","","","","","","","","","","","chosen stimuli: images/choice_trial_4.png","","","",""
"html-keyboard-response","211","470036","0.0-87.0-2.0","","null","","null","delaylearn","learning","feedback_duration_window","5b08185856655d0001bbfb1b","J6kxUEhPVeMwV8IbGXtedabcMgI3","","","","","","","","","","","","","","","","","","750","","",""
"html-keyboard-response","212","471551","0.0-87.0-3.0","","null","<div style='margin:auto;width: auto; font-size: 150%'><span style='font-weight: bold; font-size: 100px; color: red;'>0 points!</span><br><br></div>","null","delaylearn","learning","feedback_image_window","5b08185856655d0001bbfb1b","J6kxUEhPVeMwV8IbGXtedabcMgI3","","","","","","","","","","","","","","","","","","","","",""
"html-keyboard-response","213","473371","0.0-88.0","","null","<div style=""font-size:100px;"">+</div>","null","delaylearn","learning","ITI","5b08185856655d0001bbfb1b","J6kxUEhPVeMwV8IbGXtedabcMgI3","","","","","","","","","","","","","","","","","","","1810","",""
"html-keyboard-response","214","474156","0.0-89.0-0.0","","782.3000000715256","<div style=""display: flex; flex-direction: column; align-items: center; margin-top: -40px;""><img src=""images/pattern_1.png"" style=""width: 234px; height: 230px; margin-top: -50px;""><div style=""display: flex; justify-content: space-between; margin-top: 33px;""><img src=""images/choice_trial_1.png"" style=""width: 408px; height: 417px; margin-right: 200px;""><img src=""images/choice_trial_9.png"" style=""width: 408px; height: 417px;""></div></div>","f","delaylearn","learning","trial","5b08185856655d0001bbfb1b","J6kxUEhPVeMwV8IbGXtedabcMgI3","4","images/choice_trial_1.png","images/choice_trial_9.png","images/pattern_1.png","f","f","7000","1","9","1","0","39","1","1","1","220","","","","",""
"html-keyboard-response","215","475166","0.0-89.0-1.0","","null","<div style=""display: flex; flex-direction: column; align-items: center; margin-top: -40px;""><img src=""images/pattern_1.png"" style=""width: 234px; height: 230px; margin-top: -50px;""><div style=""display: flex; justify-content: space-between; margin-top: 33px;""><img src=""images/choice_trial_1.png"" style=""width: 408px; height: 417px; margin-right: 608px;""></div></div>","null","delaylearn","learning","display_response","5b08185856655d0001bbfb1b","J6kxUEhPVeMwV8IbGXtedabcMgI3","","","","","","","","","","","","","","","","","chosen stimuli: images/choice_trial_1.png","","","",""
"html-keyboard-response","216","482182","0.0-89.0-2.0","","null","","null","delaylearn","learning","feedback_duration_window","5b08185856655d0001bbfb1b","J6kxUEhPVeMwV8IbGXtedabcMgI3","","","","","","","","","","","","","","","","","","7000","","",""
"html-keyboard-response","217","483694","0.0-89.0-3.0","","null","<div style='margin:auto;width: auto; font-size: 150%'><span style='font-weight: bold; font-size: 100px; color: green;'>+10 points!</span><br><br></div>","null","delaylearn","learning","feedback_image_window","5b08185856655d0001bbfb1b","J6kxUEhPVeMwV8IbGXtedabcMgI3","","","","","","","","","","","","","","","","","","","","",""
"html-keyboard-response","218","484205","0.0-90.0-0.0","","null","","null","","","mood_trial_fixation","","","","","","","","","","","","","","","","","","","","","","",""
"lmdlab-html-vas-response","219","488064","0.0-90.0-1.0","","2842","How happy are you right now?","0.5617524694865441","delaylearn","learning","mood_trial","5b08185856655d0001bbfb1b","J6kxUEhPVeMwV8IbGXtedabcMgI3","","","","","","","","","","","","","","","","","","","","[""Very unhappy"",""Very happy""]",""
"html-keyboard-response","220","490074","0.0-91.0","","null","<div style=""font-size:100px;"">+</div>","null","delaylearn","learning","ITI","5b08185856655d0001bbfb1b","J6kxUEhPVeMwV8IbGXtedabcMgI3","","","","","","","","","","","","","","","","","","","2001","",""
