exp_name,exp_stage,subjectID,databaseID,trial_type,trial_index,time_elapsed,internal_node_id,rt,stimulus,response,response_string,response_times,question_order,rest_warning,span,answer,correct,correct_full,span_history,q_name,choice_idxs,prolificID,start_time,date
all,fullscreen,bj2pQYPkP5PljC8GZUKpWq5AgwK2,bj2pQYPkP5PljC8GZUKpWq5AgwK2,lmdlab-fullscreen,0,5197,0.0-0.0,,,,,,,,,,,,,,,62b342cc99726190dd047478,11:26:26,15/01/2024
delaylearn,instructions,bj2pQYPkP5PljC8GZUKpWq5AgwK2,bj2pQYPkP5PljC8GZUKpWq5AgwK2,lmdlab-rest-trial,1,11427,0.0-1.0,5728.399999999907,"<p style='font-size: 3.4rem; line-height: 1.4'><br><br><br><b>Welcome to the experiment!</b><br><br><br>Today, there are two sets of self-report questionnaires,<br>with a number memory task in-between.<br><br>From participants in this study, we will be opening slots for a follow-up study.<br><br>In the follow-up, starting tomorrow, you can join a<br>study where you will win bonus money based on how well you<br>learn to choose lucky pictures.<br><br>Participants in the follow-up will earn a bonus of £3,<br>plus up to another £6 based on performance in that session.<br><br></p><br><br><br><br>",0,,,,,,,,,,,,62b342cc99726190dd047478,11:26:26,15/01/2024
delaylearn,survey,bj2pQYPkP5PljC8GZUKpWq5AgwK2,bj2pQYPkP5PljC8GZUKpWq5AgwK2,lmdlab-html-vas-response,2,22716,0.0-2.0,9760.0,How <b>happy</b> are you right now?,0.39390426711545085,,,,,,,,,,,,62b342cc99726190dd047478,11:26:26,15/01/2024
delaylearn,instructions,bj2pQYPkP5PljC8GZUKpWq5AgwK2,bj2pQYPkP5PljC8GZUKpWq5AgwK2,lmdlab-rest-trial,3,35429,0.0-3.0,12200.600000000093,"<p style='font-size: 3.4rem; line-height: 1.4'><br><br><br>First, you will complete a first set of self-report questionnaires.<br><br><br><br>These answers are <b>extremely</b> important for our research project.<br><br><br><b>It will be very very helpful if you can focus on these questions.</b><br><br><br>This part should take less than 6 minutes.<br><br></p><br><br><br><br>",0,,,,,,,,,,,,62b342cc99726190dd047478,11:26:26,15/01/2024
survey,introduction,bj2pQYPkP5PljC8GZUKpWq5AgwK2,,html-button-response,4,41912,0.0-4.0-0.0-0.0,6481.100000000093,"<p style=""font-size: 3rem; line-height: 1.2"">This part involves the completion of several questionnaires<br> about mood and personality.<br><br><br>Please read the instructions for <b>each set of questions</b>,<br>and then <b>carefully</b> answer each question.<br><br><br>Please note that the <b>instructions and options change</b><br>for different questionnaries.<br><br><br>Also, some questions check whether you are paying attention.<br><br><br><br>This part has <b>five</b> short questionnaires.<br><br><br><br><b>Thank you for doing your best!</b><br><br><br>",0,,,,,,,,,,,,62b342cc99726190dd047478,11:26:26,15/01/2024
survey,AES,bj2pQYPkP5PljC8GZUKpWq5AgwK2,,html-button-response,5,45933,0.0-4.0-1.0-0.0-0.0,4019.399999999907,"<p style=""font-size: 2.5rem"">In the next short questionnaire, the instructions are:<br><br><br></p><p style=""font-size: 3rem; line-height: 1.3; color: #000080; max-width: 60ch""> For each question, choose the answer that best describes your
thoughts, feelings, and actions during the <b>past 4 weeks</b>.</p><br><br><br><p style=""font-size: 2.5rem""> Thank you for your continued attention and focus!</p><br><br><br>",0,,,,,,,,,,,,62b342cc99726190dd047478,11:26:26,15/01/2024
survey,AES,bj2pQYPkP5PljC8GZUKpWq5AgwK2,,lmdlab-survey-likert,6,151600,0.0-4.0-1.0-0.0-1.0,,,,"{""AES1"":1,""AES2"":3,""AES3"":2,""AES4"":3,""AES5"":1,""AES6"":2,""AES7"":1,""AES8"":2,""Catch"":0,""AES9"":1,""AES10"":0,""AES11"":0,""AES12"":2,""AES13"":2,""AES14"":0,""AES15"":1,""AES16"":3,""AES17"":2,""AES18"":1,""FSS9"":2}","{""trialStart"":92692,""AES1"":2923.5,""AES2"":5843.700000000186,""AES3"":14685,""AES4"":18632.899999999907,""AES5"":20858,""AES6"":25263.399999999907,""AES7"":30038.5,""AES8"":34451.700000000186,""Catch"":36957.89999999991,""AES10"":42480.299999999814,""AES11"":48970.299999999814,""AES12"":50278.799999999814,""AES14"":55305.200000000186,""AES15"":62828.39999999991,""AES16"":70950.3999999999,""AES17"":73265.20000000019,""AES18"":75968.6000000001,""FSS9"":77978.79999999981,""AES9"":89552.6000000001,""AES13"":98539.1000000001}","[0,1,2,3,4,5,6,7,8,9,10,11,12,13,14,15,16,17,18,19]",,,,,,,,,62b342cc99726190dd047478,11:26:26,15/01/2024
survey,GAD7,bj2pQYPkP5PljC8GZUKpWq5AgwK2,,html-button-response,7,156989,0.0-4.0-1.0-1.0-0.0,5387.5999999996275,"<p style=""font-size: 2.5rem"">In the next short questionnaire, the instructions are:<br><br><br></p><p style=""font-size: 3rem; line-height: 1.3; color: #000080; max-width: 60ch""> Over the <u>last two weeks</u>, how often have you been bothered by the following problems?</p><br><br><br><p style=""font-size: 2.5rem""> Thank you for your continued attention and focus!</p><br><br><br>",0,,,,,,,,,,,,62b342cc99726190dd047478,11:26:26,15/01/2024
survey,GAD7,bj2pQYPkP5PljC8GZUKpWq5AgwK2,,lmdlab-survey-likert,8,186619,0.0-4.0-1.0-1.0-1.0,,,,"{""GAD1"":3,""GAD2"":3,""GAD3"":2,""GAD4"":2,""GAD5"":1,""GAD6"":1,""GAD7"":2}","{""trialStart"":203757,""GAD1"":4697.700000000186,""GAD2"":10837.5,""GAD3"":12707.299999999814,""GAD4"":17177.100000000093,""GAD5"":21188.799999999814,""GAD6"":23670.899999999907,""GAD7"":27645.5}","[0,1,2,3,4,5,6]",,,,,,,,,62b342cc99726190dd047478,11:26:26,15/01/2024
survey,PVSS,bj2pQYPkP5PljC8GZUKpWq5AgwK2,,html-button-response,9,208576,0.0-4.0-1.0-2.0-0.0,21944.299999999814,"<p style=""font-size: 2.5rem"">In the next short questionnaire, the instructions are:<br><br><br></p><p style=""font-size: 3rem; line-height: 1.3; color: #000080; max-width: 60ch""> Please indicate to what extent these statements describe your responses <b>over the last two 
weeks, including today</b>.<br>
Did you <b>not</b> have this experience? No problem. Please indicate how you <u>would have responded</u>
if you had experienced the situation over the last two weeks.</b><br>
Please consider only the aspect of the situation that is described, paying particular attention to
the <u>underlined text</u>. For example, if the statement says, ""<u>I wanted</u> to meet new people,"" rate
how much you wanted or would have wanted to meet new people over the last two weeks,
assuming that the opportunity presented itself. Do not consider what the situation would have
required of you or whether it would have been possible for you to meet people.</p><br><br><br><p style=""font-size: 2.5rem""> Thank you for your continued attention and focus!</p><br><br><br>",0,,,,,,,,,,,,62b342cc99726190dd047478,11:26:26,15/01/2024
survey,PVSS,bj2pQYPkP5PljC8GZUKpWq5AgwK2,,lmdlab-survey-likert,10,322610,0.0-4.0-1.0-2.0-1.0,,,,"{""PVSS1"":6,""PVSS2"":3,""PVSS3"":5,""PVSS4"":6,""PVSS5"":0,""PVSS6"":5,""PVSS7"":5,""PVSS8"":0,""Catch"":8,""PVSS9"":6,""PVSS10"":0,""PVSS11"":5,""PVSS12"":5,""PVSS13"":4,""PVSS14"":5,""PVSS15"":0,""PVSS16"":6,""PVSS17"":5,""PVSS18"":4,""PVSS19"":2,""PVSS20"":5,""PVSS21"":6}","{""trialStart"":255335.8999999999,""PVSS1"":10347.30000000028,""PVSS2"":14808.100000000093,""PVSS3"":26978.600000000093,""PVSS4"":30051,""PVSS5"":39342.30000000028,""PVSS6"":44695.80000000028,""PVSS7"":47894.10000000009,""PVSS8"":51793.39999999991,""Catch"":54718.200000000186,""PVSS9"":59216.30000000028,""PVSS10"":63853.60000000009,""PVSS11"":66143.5,""PVSS12"":71608,""PVSS13"":76659.6000000001,""PVSS14"":77907.6000000001,""PVSS15"":82065.3999999999,""PVSS16"":84665.3999999999,""PVSS17"":88601.1000000001,""PVSS18"":96606.80000000028,""PVSS19"":103600.1000000001,""PVSS20"":106178,""PVSS21"":112166.80000000028}","[0,1,2,3,4,5,6,7,8,9,10,11,12,13,14,15,16,17,18,19,20,21]",,,,,,,,,62b342cc99726190dd047478,11:26:26,15/01/2024
survey,OCIR,bj2pQYPkP5PljC8GZUKpWq5AgwK2,,html-button-response,11,330199,0.0-4.0-1.0-3.0-0.0,7587.799999999814,"<p style=""font-size: 2.5rem"">In the next short questionnaire, the instructions are:<br><br><br></p><p style=""font-size: 3rem; line-height: 1.3; color: #000080; max-width: 60ch""> The following statements refer to experiences that many people have in their
everyday lives. Rate according to the label that best describes <b>how much</b>
that experience has <b>distressed</b> or <b>bothered</b> you during the <b>past month</b>.</p><br><br><br><p style=""font-size: 2.5rem""> Thank you for your continued attention and focus!</p><br><br><br>",0,,,,,,,,,,,,62b342cc99726190dd047478,11:26:26,15/01/2024
survey,OCIR_10,bj2pQYPkP5PljC8GZUKpWq5AgwK2,,lmdlab-survey-likert,12,373146,0.0-4.0-1.0-3.0-1.0,,,,"{""OCIR2"":4,""OCIR3"":2,""OCIR4"":3,""OCIR6"":3,""OCIR7"":3,""OCIR9"":2,""OCIR12"":3,""OCIR13"":3,""OCIR15"":2,""OCIR18"":4}","{""trialStart"":376956.2000000002,""OCIR2"":4607.0999999996275,""OCIR3"":6380,""OCIR4"":11386.299999999814,""OCIR6"":19945.5,""OCIR7"":23468.19999999972,""OCIR9"":26488.599999999627,""OCIR12"":30387.399999999907,""OCIR13"":34995.69999999972,""OCIR15"":36945.39999999991,""OCIR18"":40874.09999999963}","[0,1,2,3,4,5,6,7,8,9]",,,,,,,,,62b342cc99726190dd047478,11:26:26,15/01/2024
survey,MASQ_7,bj2pQYPkP5PljC8GZUKpWq5AgwK2,,html-button-response,13,379699,0.0-4.0-1.0-4.0-0.0,6551.299999999814,"<p style=""font-size: 2.5rem"">In the next short questionnaire, the instructions are:<br><br><br></p><p style=""font-size: 3rem; line-height: 1.3; color: #000080; max-width: 60ch""> Below is a list of feelings, sensations, problems, and experiences that people sometimes have.
Read each item and then choose the response that best describes how much you have felt or
experienced things this way during the <b>past week, including today</b>.</p><br><br><br><p style=""font-size: 2.5rem""> Thank you for your continued attention and focus!</p><br><br><br>",0,,,,,,,,,,,,62b342cc99726190dd047478,11:26:26,15/01/2024
survey,MASQ_7,bj2pQYPkP5PljC8GZUKpWq5AgwK2,,lmdlab-survey-likert,14,428485,0.0-4.0-1.0-4.0-1.0,,,,"{""MASQ1"":1,""MASQ5"":2,""MASQ9"":0,""MASQ11"":3,""MASQ15"":1,""MASQ19"":1,""MASQ23"":1,""MASQ25"":1,""HADS2"":3,""HADS6"":2}","{""trialStart"":426456.2999999998,""MASQ1"":3875.2000000001863,""MASQ5"":5987.600000000093,""MASQ9"":18488.900000000373,""MASQ11"":23281.100000000093,""MASQ15"":28738.100000000093,""MASQ19"":31750.400000000373,""MASQ23"":36335,""MASQ25"":37841.40000000037,""HADS2"":42374.5,""HADS6"":45954.90000000037}","[0,1,2,3,4,5,6,7,8,9]",,,,,,,,,62b342cc99726190dd047478,11:26:26,15/01/2024
survey,resources,bj2pQYPkP5PljC8GZUKpWq5AgwK2,,html-button-response,15,433266,0.0-4.0-2.0-0.0,4780.399999999907,"<p style=""font-size: 3.5rem; line-height: 1.5"">If you feel affected by the issues raised by these questions and<br>wish to access any further support with regards to your mental<br>health you can find more information on this website:<br><br><b>https://www.nhs.uk/nhs-services/mental-health-services/where-to-get-urgent-help-for-mental-health/</b><br><br><br>Should you wish to talk, any time of day or night, you can call<br>116 123 to talk to the Samaritans you can also text ""SHOUT""<br>to 85258 to contact the Shout Crisis Text Line.<br><br><br><br></p>",0,,,,,,,,,,,,62b342cc99726190dd047478,11:26:26,15/01/2024
survey,finish,bj2pQYPkP5PljC8GZUKpWq5AgwK2,,html-button-response,16,435706,0.0-4.0-3.0,2439.0,"<p style=""font-size: 3rem"">Thank you!  You have finished this part of the experiment!<br><br><br>",0,,,,,,,,,,,,62b342cc99726190dd047478,11:26:26,15/01/2024
delaylearn,survey,bj2pQYPkP5PljC8GZUKpWq5AgwK2,bj2pQYPkP5PljC8GZUKpWq5AgwK2,lmdlab-html-vas-response,17,442164,0.0-5.0,4944.0,How <b>happy</b> are you right now?,0.2685184705513627,,,,,,,,,,,,62b342cc99726190dd047478,11:26:26,15/01/2024
delaylearn,rest,bj2pQYPkP5PljC8GZUKpWq5AgwK2,bj2pQYPkP5PljC8GZUKpWq5AgwK2,lmdlab-rest-trial-limit,18,448697,0.0-6.0,6028.100000000093,"<p style='font-size: 4.4rem; color: white;'>Great work on that part! Please take a break.<br><br><br><br><i>(For example, stand up, stretch, get some water)</i><br><br><br><br><br>When you are ready, press the button<br><br>to start the next section.</p><br><br><br><br>",0,,,,0.0,,,,,,,,62b342cc99726190dd047478,11:26:26,15/01/2024
fwdspan,instruct,bj2pQYPkP5PljC8GZUKpWq5AgwK2,,html-button-response,19,458940,0.0-7.0-0.0,10242.5,"<p style=""font-size:4rem""><br><br>In the next part today, we have a completely different short task.<br><br><br>This part involves keeping numbers in you mind. Participation takes around 5 minutes.<br><br><br></p>",0,,,,,,,,,,,,62b342cc99726190dd047478,11:26:26,15/01/2024
fwdspan,instruct,bj2pQYPkP5PljC8GZUKpWq5AgwK2,,html-button-response,20,500791,0.0-7.0-1.0,41850.19999999972,"<p style=""font-size:5rem"">Welcome to the <b>digit span task</b>!<br><br></p><p style=""font-size:3.4rem""><br>On each trial, you will see a sequence of digits, followed by a delay.</p><p style=""font-size:3.4rem""><br>Then you will be asked to type them back in the same order in which they were seen.</p><p style=""font-size:3.4rem""><br><br><br>For example, if you saw the digits <b style=""color:blue;"">1</b>, <b style=""color:blue;"">2</b>, <b style=""color:blue;"">3</b>, you would respond with <b style=""color:blue;"">1</b>, <b style=""color:blue;"">2</b>, <b style=""color:blue;"">3</b></p><p style=""font-size:3.4rem""><br><br><br>To ensure the best measure of true performance for our study,<br><br>it is very important that you do not use any memory aid (e.g., pen and paper).<br><br>Please do the task solely in your head.</p><p style=""font-size:3.4rem""><br><br><br>There will be 12 total trials. Participation takes around 5 minutes.</p><br><br><br>",0,,,,,,,,,,,,62b342cc99726190dd047478,11:26:26,15/01/2024
fwdspan,start_trial,bj2pQYPkP5PljC8GZUKpWq5AgwK2,,html-button-response,21,502702,0.0-7.0-2.0-0.0-0.0,1909.0,"<p style=""font-size:3rem"">Trial 1 of 12</p><br><br><br>",0,,,,,,,,,,,,62b342cc99726190dd047478,11:26:26,15/01/2024
fwdspan,number,bj2pQYPkP5PljC8GZUKpWq5AgwK2,,html-keyboard-response,22,503730,0.0-7.0-2.0-0.0-1.0-0.0,,"<p style=""font-size:14rem;font-weight:400;"">9</p>",,,,,,,,,,,,,62b342cc99726190dd047478,11:26:26,15/01/2024
fwdspan,number,bj2pQYPkP5PljC8GZUKpWq5AgwK2,,html-keyboard-response,23,504747,0.0-7.0-2.0-0.0-1.1-0.1,,"<p style=""font-size:14rem;font-weight:400;"">2</p>",,,,,,,,,,,,,62b342cc99726190dd047478,11:26:26,15/01/2024
fwdspan,number,bj2pQYPkP5PljC8GZUKpWq5AgwK2,,html-keyboard-response,24,505764,0.0-7.0-2.0-0.0-1.2-0.2,,"<p style=""font-size:14rem;font-weight:400;"">5</p>",,,,,,,,,,,,,62b342cc99726190dd047478,11:26:26,15/01/2024
fwdspan,delay,bj2pQYPkP5PljC8GZUKpWq5AgwK2,,html-keyboard-response,25,506325,0.0-7.0-2.0-0.0-2.0,,[],,,,,,,,,,,,,62b342cc99726190dd047478,11:26:26,15/01/2024
fwdspan,response,bj2pQYPkP5PljC8GZUKpWq5AgwK2,,html-keyboard-response,26,511410,0.0-7.0-2.0-0.0-3.0,5084.600000000093,"<div class = numbox><p style=""font-size:2.5rem"">What were the numbers <b>in order</b>?<br>(When you are ready to lock in your answer, press <b>ENTER</b>)</p><button id = button_1 class = ""square num-button"" onclick = ""recordClick(this)""><div class = content><div class = numbers>1</div></div></button><button id = button_2 class = ""square num-button"" onclick = ""recordClick(this)""><div class = content><div class = numbers>2</div></div></button><button id = button_3 class = ""square num-button"" onclick = ""recordClick(this)""><div class = content><div class = numbers>3</div></div></button><button id = button_4 class = ""square num-button"" onclick = ""recordClick(this)""><div class = content><div class = numbers>4</div></div></button><button id = button_5 class = ""square num-button"" onclick = ""recordClick(this)""><div class = content><div class = numbers>5</div></div></button><button id = button_6 class = ""square num-button"" onclick = ""recordClick(this)""><div class = content><div class = numbers>6</div></div></button><button id = button_7 class = ""square num-button"" onclick = ""recordClick(this)""><div class = content><div class = numbers>7</div></div></button><button id = button_8 class = ""square num-button"" onclick = ""recordClick(this)""><div class = content><div class = numbers>8</div></div></button><button id = button_9 class = ""square num-button"" onclick = ""recordClick(this)""><div class = content><div class = numbers>9</div></div></button><button class = clear_button id = ""ClearButton"" onclick = ""clearResponse()"">Clear</button><p><u><b>Current Answer:</b></u></p><div id=echoed_txt style=""font-size: 6rem; color:blue;""><b></b></div></div><br><br><br><br><br><br><br>",enter,,,,,3.0,"[9,2,5]","[9,2,5]",1.0,"[3, 4, 4, 5, 5, 6, 7, 7, 6, 6, 5, 6]",,,62b342cc99726190dd047478,11:26:26,15/01/2024
fwdspan,update_span,bj2pQYPkP5PljC8GZUKpWq5AgwK2,,call-function,27,511668,0.0-7.0-2.0-0.0-4.0,,,,,,,,,,,,,,,62b342cc99726190dd047478,11:26:26,15/01/2024
fwdspan,start_trial,bj2pQYPkP5PljC8GZUKpWq5AgwK2,,html-button-response,28,513347,0.0-7.0-2.1-0.1-0.1,1678.1000000000931,"<p style=""font-size:3rem"">Trial 2 of 12</p><br><br><br>",0,,,,,,,,,,,,62b342cc99726190dd047478,11:26:26,15/01/2024
fwdspan,number,bj2pQYPkP5PljC8GZUKpWq5AgwK2,,html-keyboard-response,29,514363,0.0-7.0-2.1-0.1-1.3-0.3,,"<p style=""font-size:14rem;font-weight:400;"">1</p>",,,,,,,,,,,,,62b342cc99726190dd047478,11:26:26,15/01/2024
fwdspan,number,bj2pQYPkP5PljC8GZUKpWq5AgwK2,,html-keyboard-response,30,515378,0.0-7.0-2.1-0.1-1.4-0.4,,"<p style=""font-size:14rem;font-weight:400;"">5</p>",,,,,,,,,,,,,62b342cc99726190dd047478,11:26:26,15/01/2024
fwdspan,number,bj2pQYPkP5PljC8GZUKpWq5AgwK2,,html-keyboard-response,31,516395,0.0-7.0-2.1-0.1-1.5-0.5,,"<p style=""font-size:14rem;font-weight:400;"">9</p>",,,,,,,,,,,,,62b342cc99726190dd047478,11:26:26,15/01/2024
fwdspan,number,bj2pQYPkP5PljC8GZUKpWq5AgwK2,,html-keyboard-response,32,517411,0.0-7.0-2.1-0.1-1.6-0.6,,"<p style=""font-size:14rem;font-weight:400;"">6</p>",,,,,,,,,,,,,62b342cc99726190dd047478,11:26:26,15/01/2024
fwdspan,delay,bj2pQYPkP5PljC8GZUKpWq5AgwK2,,html-keyboard-response,33,517972,0.0-7.0-2.1-0.1-2.1,,[],,,,,,,,,,,,,62b342cc99726190dd047478,11:26:26,15/01/2024
fwdspan,response,bj2pQYPkP5PljC8GZUKpWq5AgwK2,,html-keyboard-response,34,522655,0.0-7.0-2.1-0.1-3.1,4682.700000000186,"<div class = numbox><p style=""font-size:2.5rem"">What were the numbers <b>in order</b>?<br>(When you are ready to lock in your answer, press <b>ENTER</b>)</p><button id = button_1 class = ""square num-button"" onclick = ""recordClick(this)""><div class = content><div class = numbers>1</div></div></button><button id = button_2 class = ""square num-button"" onclick = ""recordClick(this)""><div class = content><div class = numbers>2</div></div></button><button id = button_3 class = ""square num-button"" onclick = ""recordClick(this)""><div class = content><div class = numbers>3</div></div></button><button id = button_4 class = ""square num-button"" onclick = ""recordClick(this)""><div class = content><div class = numbers>4</div></div></button><button id = button_5 class = ""square num-button"" onclick = ""recordClick(this)""><div class = content><div class = numbers>5</div></div></button><button id = button_6 class = ""square num-button"" onclick = ""recordClick(this)""><div class = content><div class = numbers>6</div></div></button><button id = button_7 class = ""square num-button"" onclick = ""recordClick(this)""><div class = content><div class = numbers>7</div></div></button><button id = button_8 class = ""square num-button"" onclick = ""recordClick(this)""><div class = content><div class = numbers>8</div></div></button><button id = button_9 class = ""square num-button"" onclick = ""recordClick(this)""><div class = content><div class = numbers>9</div></div></button><button class = clear_button id = ""ClearButton"" onclick = ""clearResponse()"">Clear</button><p><u><b>Current Answer:</b></u></p><div id=echoed_txt style=""font-size: 6rem; color:blue;""><b></b></div></div><br><br><br><br><br><br><br>",enter,,,,,4.0,"[1,9,5,6]","[1,5,9,6]",0.0,"[3, 4, 4, 5, 5, 6, 7, 7, 6, 6, 5, 6]",,,62b342cc99726190dd047478,11:26:26,15/01/2024
fwdspan,update_span,bj2pQYPkP5PljC8GZUKpWq5AgwK2,,call-function,35,522907,0.0-7.0-2.1-0.1-4.1,,,,,,,,,,,,,,,62b342cc99726190dd047478,11:26:26,15/01/2024
fwdspan,start_trial,bj2pQYPkP5PljC8GZUKpWq5AgwK2,,html-button-response,36,524641,0.0-7.0-2.2-0.2-0.2,1733.6999999997206,"<p style=""font-size:3rem"">Trial 3 of 12</p><br><br><br>",0,,,,,,,,,,,,62b342cc99726190dd047478,11:26:26,15/01/2024
fwdspan,number,bj2pQYPkP5PljC8GZUKpWq5AgwK2,,html-keyboard-response,37,525659,0.0-7.0-2.2-0.2-1.7-0.7,,"<p style=""font-size:14rem;font-weight:400;"">8</p>",,,,,,,,,,,,,62b342cc99726190dd047478,11:26:26,15/01/2024
fwdspan,number,bj2pQYPkP5PljC8GZUKpWq5AgwK2,,html-keyboard-response,38,526675,0.0-7.0-2.2-0.2-1.8-0.8,,"<p style=""font-size:14rem;font-weight:400;"">1</p>",,,,,,,,,,,,,62b342cc99726190dd047478,11:26:26,15/01/2024
fwdspan,number,bj2pQYPkP5PljC8GZUKpWq5AgwK2,,html-keyboard-response,39,527692,0.0-7.0-2.2-0.2-1.9-0.9,,"<p style=""font-size:14rem;font-weight:400;"">4</p>",,,,,,,,,,,,,62b342cc99726190dd047478,11:26:26,15/01/2024
fwdspan,number,bj2pQYPkP5PljC8GZUKpWq5AgwK2,,html-keyboard-response,40,528708,0.0-7.0-2.2-0.2-1.10-0.10,,"<p style=""font-size:14rem;font-weight:400;"">7</p>",,,,,,,,,,,,,62b342cc99726190dd047478,11:26:26,15/01/2024
fwdspan,delay,bj2pQYPkP5PljC8GZUKpWq5AgwK2,,html-keyboard-response,41,529269,0.0-7.0-2.2-0.2-2.2,,[],,,,,,,,,,,,,62b342cc99726190dd047478,11:26:26,15/01/2024
fwdspan,response,bj2pQYPkP5PljC8GZUKpWq5AgwK2,,html-keyboard-response,42,532707,0.0-7.0-2.2-0.2-3.2,3437.1999999997206,"<div class = numbox><p style=""font-size:2.5rem"">What were the numbers <b>in order</b>?<br>(When you are ready to lock in your answer, press <b>ENTER</b>)</p><button id = button_1 class = ""square num-button"" onclick = ""recordClick(this)""><div class = content><div class = numbers>1</div></div></button><button id = button_2 class = ""square num-button"" onclick = ""recordClick(this)""><div class = content><div class = numbers>2</div></div></button><button id = button_3 class = ""square num-button"" onclick = ""recordClick(this)""><div class = content><div class = numbers>3</div></div></button><button id = button_4 class = ""square num-button"" onclick = ""recordClick(this)""><div class = content><div class = numbers>4</div></div></button><button id = button_5 class = ""square num-button"" onclick = ""recordClick(this)""><div class = content><div class = numbers>5</div></div></button><button id = button_6 class = ""square num-button"" onclick = ""recordClick(this)""><div class = content><div class = numbers>6</div></div></button><button id = button_7 class = ""square num-button"" onclick = ""recordClick(this)""><div class = content><div class = numbers>7</div></div></button><button id = button_8 class = ""square num-button"" onclick = ""recordClick(this)""><div class = content><div class = numbers>8</div></div></button><button id = button_9 class = ""square num-button"" onclick = ""recordClick(this)""><div class = content><div class = numbers>9</div></div></button><button class = clear_button id = ""ClearButton"" onclick = ""clearResponse()"">Clear</button><p><u><b>Current Answer:</b></u></p><div id=echoed_txt style=""font-size: 6rem; color:blue;""><b></b></div></div><br><br><br><br><br><br><br>",enter,,,,,4.0,"[8,1,4,7]","[8,1,4,7]",1.0,"[3, 4, 4, 5, 5, 6, 7, 7, 6, 6, 5, 6]",,,62b342cc99726190dd047478,11:26:26,15/01/2024
fwdspan,update_span,bj2pQYPkP5PljC8GZUKpWq5AgwK2,,call-function,43,532958,0.0-7.0-2.2-0.2-4.2,,,,,,,,,,,,,,,62b342cc99726190dd047478,11:26:26,15/01/2024
fwdspan,start_trial,bj2pQYPkP5PljC8GZUKpWq5AgwK2,,html-button-response,44,535079,0.0-7.0-2.3-0.3-0.3,2120.5,"<p style=""font-size:3rem"">Trial 4 of 12</p><br><br><br>",0,,,,,,,,,,,,62b342cc99726190dd047478,11:26:26,15/01/2024
fwdspan,number,bj2pQYPkP5PljC8GZUKpWq5AgwK2,,html-keyboard-response,45,536091,0.0-7.0-2.3-0.3-1.11-0.11,,"<p style=""font-size:14rem;font-weight:400;"">8</p>",,,,,,,,,,,,,62b342cc99726190dd047478,11:26:26,15/01/2024
fwdspan,number,bj2pQYPkP5PljC8GZUKpWq5AgwK2,,html-keyboard-response,46,537117,0.0-7.0-2.3-0.3-1.12-0.12,,"<p style=""font-size:14rem;font-weight:400;"">7</p>",,,,,,,,,,,,,62b342cc99726190dd047478,11:26:26,15/01/2024
fwdspan,number,bj2pQYPkP5PljC8GZUKpWq5AgwK2,,html-keyboard-response,47,538136,0.0-7.0-2.3-0.3-1.13-0.13,,"<p style=""font-size:14rem;font-weight:400;"">5</p>",,,,,,,,,,,,,62b342cc99726190dd047478,11:26:26,15/01/2024
fwdspan,number,bj2pQYPkP5PljC8GZUKpWq5AgwK2,,html-keyboard-response,48,539156,0.0-7.0-2.3-0.3-1.14-0.14,,"<p style=""font-size:14rem;font-weight:400;"">9</p>",,,,,,,,,,,,,62b342cc99726190dd047478,11:26:26,15/01/2024
fwdspan,number,bj2pQYPkP5PljC8GZUKpWq5AgwK2,,html-keyboard-response,49,540172,0.0-7.0-2.3-0.3-1.15-0.15,,"<p style=""font-size:14rem;font-weight:400;"">4</p>",,,,,,,,,,,,,62b342cc99726190dd047478,11:26:26,15/01/2024
fwdspan,delay,bj2pQYPkP5PljC8GZUKpWq5AgwK2,,html-keyboard-response,50,540734,0.0-7.0-2.3-0.3-2.3,,[],,,,,,,,,,,,,62b342cc99726190dd047478,11:26:26,15/01/2024
fwdspan,response,bj2pQYPkP5PljC8GZUKpWq5AgwK2,,html-keyboard-response,51,547714,0.0-7.0-2.3-0.3-3.3,6979.5,"<div class = numbox><p style=""font-size:2.5rem"">What were the numbers <b>in order</b>?<br>(When you are ready to lock in your answer, press <b>ENTER</b>)</p><button id = button_1 class = ""square num-button"" onclick = ""recordClick(this)""><div class = content><div class = numbers>1</div></div></button><button id = button_2 class = ""square num-button"" onclick = ""recordClick(this)""><div class = content><div class = numbers>2</div></div></button><button id = button_3 class = ""square num-button"" onclick = ""recordClick(this)""><div class = content><div class = numbers>3</div></div></button><button id = button_4 class = ""square num-button"" onclick = ""recordClick(this)""><div class = content><div class = numbers>4</div></div></button><button id = button_5 class = ""square num-button"" onclick = ""recordClick(this)""><div class = content><div class = numbers>5</div></div></button><button id = button_6 class = ""square num-button"" onclick = ""recordClick(this)""><div class = content><div class = numbers>6</div></div></button><button id = button_7 class = ""square num-button"" onclick = ""recordClick(this)""><div class = content><div class = numbers>7</div></div></button><button id = button_8 class = ""square num-button"" onclick = ""recordClick(this)""><div class = content><div class = numbers>8</div></div></button><button id = button_9 class = ""square num-button"" onclick = ""recordClick(this)""><div class = content><div class = numbers>9</div></div></button><button class = clear_button id = ""ClearButton"" onclick = ""clearResponse()"">Clear</button><p><u><b>Current Answer:</b></u></p><div id=echoed_txt style=""font-size: 6rem; color:blue;""><b></b></div></div><br><br><br><br><br><br><br>",enter,,,,,5.0,"[8,7,9,5,4]","[8,7,5,9,4]",0.0,"[3, 4, 4, 5, 5, 6, 7, 7, 6, 6, 5, 6]",,,62b342cc99726190dd047478,11:26:26,15/01/2024
fwdspan,update_span,bj2pQYPkP5PljC8GZUKpWq5AgwK2,,call-function,52,547969,0.0-7.0-2.3-0.3-4.3,,,,,,,,,,,,,,,62b342cc99726190dd047478,11:26:26,15/01/2024
fwdspan,start_trial,bj2pQYPkP5PljC8GZUKpWq5AgwK2,,html-button-response,53,549357,0.0-7.0-2.4-0.4-0.4,1387.8999999999069,"<p style=""font-size:3rem"">Trial 5 of 12</p><br><br><br>",0,,,,,,,,,,,,62b342cc99726190dd047478,11:26:26,15/01/2024
fwdspan,number,bj2pQYPkP5PljC8GZUKpWq5AgwK2,,html-keyboard-response,54,550366,0.0-7.0-2.4-0.4-1.16-0.16,,"<p style=""font-size:14rem;font-weight:400;"">1</p>",,,,,,,,,,,,,62b342cc99726190dd047478,11:26:26,15/01/2024
fwdspan,number,bj2pQYPkP5PljC8GZUKpWq5AgwK2,,html-keyboard-response,55,551386,0.0-7.0-2.4-0.4-1.17-0.17,,"<p style=""font-size:14rem;font-weight:400;"">8</p>",,,,,,,,,,,,,62b342cc99726190dd047478,11:26:26,15/01/2024
fwdspan,number,bj2pQYPkP5PljC8GZUKpWq5AgwK2,,html-keyboard-response,56,552402,0.0-7.0-2.4-0.4-1.18-0.18,,"<p style=""font-size:14rem;font-weight:400;"">2</p>",,,,,,,,,,,,,62b342cc99726190dd047478,11:26:26,15/01/2024
fwdspan,number,bj2pQYPkP5PljC8GZUKpWq5AgwK2,,html-keyboard-response,57,553419,0.0-7.0-2.4-0.4-1.19-0.19,,"<p style=""font-size:14rem;font-weight:400;"">5</p>",,,,,,,,,,,,,62b342cc99726190dd047478,11:26:26,15/01/2024
fwdspan,number,bj2pQYPkP5PljC8GZUKpWq5AgwK2,,html-keyboard-response,58,554435,0.0-7.0-2.4-0.4-1.20-0.20,,"<p style=""font-size:14rem;font-weight:400;"">9</p>",,,,,,,,,,,,,62b342cc99726190dd047478,11:26:26,15/01/2024
fwdspan,delay,bj2pQYPkP5PljC8GZUKpWq5AgwK2,,html-keyboard-response,59,555005,0.0-7.0-2.4-0.4-2.4,,[],,,,,,,,,,,,,62b342cc99726190dd047478,11:26:26,15/01/2024
fwdspan,response,bj2pQYPkP5PljC8GZUKpWq5AgwK2,,html-keyboard-response,60,559162,0.0-7.0-2.4-0.4-3.4,4155.899999999907,"<div class = numbox><p style=""font-size:2.5rem"">What were the numbers <b>in order</b>?<br>(When you are ready to lock in your answer, press <b>ENTER</b>)</p><button id = button_1 class = ""square num-button"" onclick = ""recordClick(this)""><div class = content><div class = numbers>1</div></div></button><button id = button_2 class = ""square num-button"" onclick = ""recordClick(this)""><div class = content><div class = numbers>2</div></div></button><button id = button_3 class = ""square num-button"" onclick = ""recordClick(this)""><div class = content><div class = numbers>3</div></div></button><button id = button_4 class = ""square num-button"" onclick = ""recordClick(this)""><div class = content><div class = numbers>4</div></div></button><button id = button_5 class = ""square num-button"" onclick = ""recordClick(this)""><div class = content><div class = numbers>5</div></div></button><button id = button_6 class = ""square num-button"" onclick = ""recordClick(this)""><div class = content><div class = numbers>6</div></div></button><button id = button_7 class = ""square num-button"" onclick = ""recordClick(this)""><div class = content><div class = numbers>7</div></div></button><button id = button_8 class = ""square num-button"" onclick = ""recordClick(this)""><div class = content><div class = numbers>8</div></div></button><button id = button_9 class = ""square num-button"" onclick = ""recordClick(this)""><div class = content><div class = numbers>9</div></div></button><button class = clear_button id = ""ClearButton"" onclick = ""clearResponse()"">Clear</button><p><u><b>Current Answer:</b></u></p><div id=echoed_txt style=""font-size: 6rem; color:blue;""><b></b></div></div><br><br><br><br><br><br><br>",enter,,,,,5.0,"[1,8,2,5,9]","[1,8,2,5,9]",1.0,"[3, 4, 4, 5, 5, 6, 7, 7, 6, 6, 5, 6]",,,62b342cc99726190dd047478,11:26:26,15/01/2024
fwdspan,update_span,bj2pQYPkP5PljC8GZUKpWq5AgwK2,,call-function,61,559428,0.0-7.0-2.4-0.4-4.4,,,,,,,,,,,,,,,62b342cc99726190dd047478,11:26:26,15/01/2024
fwdspan,start_trial,bj2pQYPkP5PljC8GZUKpWq5AgwK2,,html-button-response,62,560571,0.0-7.0-2.5-0.5-0.5,1142.8999999999069,"<p style=""font-size:3rem"">Trial 6 of 12</p><br><br><br>",0,,,,,,,,,,,,62b342cc99726190dd047478,11:26:26,15/01/2024
fwdspan,number,bj2pQYPkP5PljC8GZUKpWq5AgwK2,,html-keyboard-response,63,561590,0.0-7.0-2.5-0.5-1.21-0.21,,"<p style=""font-size:14rem;font-weight:400;"">2</p>",,,,,,,,,,,,,62b342cc99726190dd047478,11:26:26,15/01/2024
fwdspan,number,bj2pQYPkP5PljC8GZUKpWq5AgwK2,,html-keyboard-response,64,562601,0.0-7.0-2.5-0.5-1.22-0.22,,"<p style=""font-size:14rem;font-weight:400;"">1</p>",,,,,,,,,,,,,62b342cc99726190dd047478,11:26:26,15/01/2024
fwdspan,number,bj2pQYPkP5PljC8GZUKpWq5AgwK2,,html-keyboard-response,65,563617,0.0-7.0-2.5-0.5-1.23-0.23,,"<p style=""font-size:14rem;font-weight:400;"">8</p>",,,,,,,,,,,,,62b342cc99726190dd047478,11:26:26,15/01/2024
fwdspan,number,bj2pQYPkP5PljC8GZUKpWq5AgwK2,,html-keyboard-response,66,564633,0.0-7.0-2.5-0.5-1.24-0.24,,"<p style=""font-size:14rem;font-weight:400;"">4</p>",,,,,,,,,,,,,62b342cc99726190dd047478,11:26:26,15/01/2024
fwdspan,number,bj2pQYPkP5PljC8GZUKpWq5AgwK2,,html-keyboard-response,67,565649,0.0-7.0-2.5-0.5-1.25-0.25,,"<p style=""font-size:14rem;font-weight:400;"">6</p>",,,,,,,,,,,,,62b342cc99726190dd047478,11:26:26,15/01/2024
fwdspan,number,bj2pQYPkP5PljC8GZUKpWq5AgwK2,,html-keyboard-response,68,566666,0.0-7.0-2.5-0.5-1.26-0.26,,"<p style=""font-size:14rem;font-weight:400;"">9</p>",,,,,,,,,,,,,62b342cc99726190dd047478,11:26:26,15/01/2024
fwdspan,delay,bj2pQYPkP5PljC8GZUKpWq5AgwK2,,html-keyboard-response,69,567227,0.0-7.0-2.5-0.5-2.5,,[],,,,,,,,,,,,,62b342cc99726190dd047478,11:26:26,15/01/2024
fwdspan,response,bj2pQYPkP5PljC8GZUKpWq5AgwK2,,html-keyboard-response,70,572309,0.0-7.0-2.5-0.5-3.5,5081.699999999721,"<div class = numbox><p style=""font-size:2.5rem"">What were the numbers <b>in order</b>?<br>(When you are ready to lock in your answer, press <b>ENTER</b>)</p><button id = button_1 class = ""square num-button"" onclick = ""recordClick(this)""><div class = content><div class = numbers>1</div></div></button><button id = button_2 class = ""square num-button"" onclick = ""recordClick(this)""><div class = content><div class = numbers>2</div></div></button><button id = button_3 class = ""square num-button"" onclick = ""recordClick(this)""><div class = content><div class = numbers>3</div></div></button><button id = button_4 class = ""square num-button"" onclick = ""recordClick(this)""><div class = content><div class = numbers>4</div></div></button><button id = button_5 class = ""square num-button"" onclick = ""recordClick(this)""><div class = content><div class = numbers>5</div></div></button><button id = button_6 class = ""square num-button"" onclick = ""recordClick(this)""><div class = content><div class = numbers>6</div></div></button><button id = button_7 class = ""square num-button"" onclick = ""recordClick(this)""><div class = content><div class = numbers>7</div></div></button><button id = button_8 class = ""square num-button"" onclick = ""recordClick(this)""><div class = content><div class = numbers>8</div></div></button><button id = button_9 class = ""square num-button"" onclick = ""recordClick(this)""><div class = content><div class = numbers>9</div></div></button><button class = clear_button id = ""ClearButton"" onclick = ""clearResponse()"">Clear</button><p><u><b>Current Answer:</b></u></p><div id=echoed_txt style=""font-size: 6rem; color:blue;""><b></b></div></div><br><br><br><br><br><br><br>",enter,,,,,6.0,"[2,1,8,4,6,9]","[2,1,8,4,6,9]",1.0,"[3, 4, 4, 5, 5, 6, 7, 7, 6, 6, 5, 6]",,,62b342cc99726190dd047478,11:26:26,15/01/2024
fwdspan,update_span,bj2pQYPkP5PljC8GZUKpWq5AgwK2,,call-function,71,572570,0.0-7.0-2.5-0.5-4.5,,,,,,,,,,,,,,,62b342cc99726190dd047478,11:26:26,15/01/2024
fwdspan,start_trial,bj2pQYPkP5PljC8GZUKpWq5AgwK2,,html-button-response,72,573476,0.0-7.0-2.6-0.6-0.6,905.8999999999069,"<p style=""font-size:3rem"">Trial 7 of 12</p><br><br><br>",0,,,,,,,,,,,,62b342cc99726190dd047478,11:26:26,15/01/2024
fwdspan,number,bj2pQYPkP5PljC8GZUKpWq5AgwK2,,html-keyboard-response,73,574497,0.0-7.0-2.6-0.6-1.27-0.27,,"<p style=""font-size:14rem;font-weight:400;"">9</p>",,,,,,,,,,,,,62b342cc99726190dd047478,11:26:26,15/01/2024
fwdspan,number,bj2pQYPkP5PljC8GZUKpWq5AgwK2,,html-keyboard-response,74,575513,0.0-7.0-2.6-0.6-1.28-0.28,,"<p style=""font-size:14rem;font-weight:400;"">7</p>",,,,,,,,,,,,,62b342cc99726190dd047478,11:26:26,15/01/2024
fwdspan,number,bj2pQYPkP5PljC8GZUKpWq5AgwK2,,html-keyboard-response,75,576530,0.0-7.0-2.6-0.6-1.29-0.29,,"<p style=""font-size:14rem;font-weight:400;"">6</p>",,,,,,,,,,,,,62b342cc99726190dd047478,11:26:26,15/01/2024
fwdspan,number,bj2pQYPkP5PljC8GZUKpWq5AgwK2,,html-keyboard-response,76,577546,0.0-7.0-2.6-0.6-1.30-0.30,,"<p style=""font-size:14rem;font-weight:400;"">1</p>",,,,,,,,,,,,,62b342cc99726190dd047478,11:26:26,15/01/2024
fwdspan,number,bj2pQYPkP5PljC8GZUKpWq5AgwK2,,html-keyboard-response,77,578563,0.0-7.0-2.6-0.6-1.31-0.31,,"<p style=""font-size:14rem;font-weight:400;"">3</p>",,,,,,,,,,,,,62b342cc99726190dd047478,11:26:26,15/01/2024
fwdspan,number,bj2pQYPkP5PljC8GZUKpWq5AgwK2,,html-keyboard-response,78,579580,0.0-7.0-2.6-0.6-1.32-0.32,,"<p style=""font-size:14rem;font-weight:400;"">4</p>",,,,,,,,,,,,,62b342cc99726190dd047478,11:26:26,15/01/2024
fwdspan,number,bj2pQYPkP5PljC8GZUKpWq5AgwK2,,html-keyboard-response,79,580604,0.0-7.0-2.6-0.6-1.33-0.33,,"<p style=""font-size:14rem;font-weight:400;"">5</p>",,,,,,,,,,,,,62b342cc99726190dd047478,11:26:26,15/01/2024
fwdspan,delay,bj2pQYPkP5PljC8GZUKpWq5AgwK2,,html-keyboard-response,80,581173,0.0-7.0-2.6-0.6-2.6,,[],,,,,,,,,,,,,62b342cc99726190dd047478,11:26:26,15/01/2024
fwdspan,response,bj2pQYPkP5PljC8GZUKpWq5AgwK2,,html-keyboard-response,81,587064,0.0-7.0-2.6-0.6-3.6,5890.399999999907,"<div class = numbox><p style=""font-size:2.5rem"">What were the numbers <b>in order</b>?<br>(When you are ready to lock in your answer, press <b>ENTER</b>)</p><button id = button_1 class = ""square num-button"" onclick = ""recordClick(this)""><div class = content><div class = numbers>1</div></div></button><button id = button_2 class = ""square num-button"" onclick = ""recordClick(this)""><div class = content><div class = numbers>2</div></div></button><button id = button_3 class = ""square num-button"" onclick = ""recordClick(this)""><div class = content><div class = numbers>3</div></div></button><button id = button_4 class = ""square num-button"" onclick = ""recordClick(this)""><div class = content><div class = numbers>4</div></div></button><button id = button_5 class = ""square num-button"" onclick = ""recordClick(this)""><div class = content><div class = numbers>5</div></div></button><button id = button_6 class = ""square num-button"" onclick = ""recordClick(this)""><div class = content><div class = numbers>6</div></div></button><button id = button_7 class = ""square num-button"" onclick = ""recordClick(this)""><div class = content><div class = numbers>7</div></div></button><button id = button_8 class = ""square num-button"" onclick = ""recordClick(this)""><div class = content><div class = numbers>8</div></div></button><button id = button_9 class = ""square num-button"" onclick = ""recordClick(this)""><div class = content><div class = numbers>9</div></div></button><button class = clear_button id = ""ClearButton"" onclick = ""clearResponse()"">Clear</button><p><u><b>Current Answer:</b></u></p><div id=echoed_txt style=""font-size: 6rem; color:blue;""><b></b></div></div><br><br><br><br><br><br><br>",enter,,,,,7.0,"[9,7,6,1,4,3,9]","[9,7,6,1,3,4,5]",0.0,"[3, 4, 4, 5, 5, 6, 7, 7, 6, 6, 5, 6]",,,62b342cc99726190dd047478,11:26:26,15/01/2024
fwdspan,update_span,bj2pQYPkP5PljC8GZUKpWq5AgwK2,,call-function,82,587323,0.0-7.0-2.6-0.6-4.6,,,,,,,,,,,,,,,62b342cc99726190dd047478,11:26:26,15/01/2024
fwdspan,start_trial,bj2pQYPkP5PljC8GZUKpWq5AgwK2,,html-button-response,83,588745,0.0-7.0-2.7-0.7-0.7,1421.6999999997206,"<p style=""font-size:3rem"">Trial 8 of 12</p><br><br><br>",0,,,,,,,,,,,,62b342cc99726190dd047478,11:26:26,15/01/2024
fwdspan,number,bj2pQYPkP5PljC8GZUKpWq5AgwK2,,html-keyboard-response,84,589761,0.0-7.0-2.7-0.7-1.34-0.34,,"<p style=""font-size:14rem;font-weight:400;"">4</p>",,,,,,,,,,,,,62b342cc99726190dd047478,11:26:26,15/01/2024
fwdspan,number,bj2pQYPkP5PljC8GZUKpWq5AgwK2,,html-keyboard-response,85,590778,0.0-7.0-2.7-0.7-1.35-0.35,,"<p style=""font-size:14rem;font-weight:400;"">8</p>",,,,,,,,,,,,,62b342cc99726190dd047478,11:26:26,15/01/2024
fwdspan,number,bj2pQYPkP5PljC8GZUKpWq5AgwK2,,html-keyboard-response,86,591794,0.0-7.0-2.7-0.7-1.36-0.36,,"<p style=""font-size:14rem;font-weight:400;"">6</p>",,,,,,,,,,,,,62b342cc99726190dd047478,11:26:26,15/01/2024
fwdspan,number,bj2pQYPkP5PljC8GZUKpWq5AgwK2,,html-keyboard-response,87,592810,0.0-7.0-2.7-0.7-1.37-0.37,,"<p style=""font-size:14rem;font-weight:400;"">5</p>",,,,,,,,,,,,,62b342cc99726190dd047478,11:26:26,15/01/2024
fwdspan,number,bj2pQYPkP5PljC8GZUKpWq5AgwK2,,html-keyboard-response,88,593827,0.0-7.0-2.7-0.7-1.38-0.38,,"<p style=""font-size:14rem;font-weight:400;"">2</p>",,,,,,,,,,,,,62b342cc99726190dd047478,11:26:26,15/01/2024
fwdspan,number,bj2pQYPkP5PljC8GZUKpWq5AgwK2,,html-keyboard-response,89,594843,0.0-7.0-2.7-0.7-1.39-0.39,,"<p style=""font-size:14rem;font-weight:400;"">9</p>",,,,,,,,,,,,,62b342cc99726190dd047478,11:26:26,15/01/2024
fwdspan,number,bj2pQYPkP5PljC8GZUKpWq5AgwK2,,html-keyboard-response,90,595847,0.0-7.0-2.7-0.7-1.40-0.40,,"<p style=""font-size:14rem;font-weight:400;"">3</p>",,,,,,,,,,,,,62b342cc99726190dd047478,11:26:26,15/01/2024
fwdspan,delay,bj2pQYPkP5PljC8GZUKpWq5AgwK2,,html-keyboard-response,91,596403,0.0-7.0-2.7-0.7-2.7,,[],,,,,,,,,,,,,62b342cc99726190dd047478,11:26:26,15/01/2024
fwdspan,response,bj2pQYPkP5PljC8GZUKpWq5AgwK2,,html-keyboard-response,92,600461,0.0-7.0-2.7-0.7-3.7,4057.600000000093,"<div class = numbox><p style=""font-size:2.5rem"">What were the numbers <b>in order</b>?<br>(When you are ready to lock in your answer, press <b>ENTER</b>)</p><button id = button_1 class = ""square num-button"" onclick = ""recordClick(this)""><div class = content><div class = numbers>1</div></div></button><button id = button_2 class = ""square num-button"" onclick = ""recordClick(this)""><div class = content><div class = numbers>2</div></div></button><button id = button_3 class = ""square num-button"" onclick = ""recordClick(this)""><div class = content><div class = numbers>3</div></div></button><button id = button_4 class = ""square num-button"" onclick = ""recordClick(this)""><div class = content><div class = numbers>4</div></div></button><button id = button_5 class = ""square num-button"" onclick = ""recordClick(this)""><div class = content><div class = numbers>5</div></div></button><button id = button_6 class = ""square num-button"" onclick = ""recordClick(this)""><div class = content><div class = numbers>6</div></div></button><button id = button_7 class = ""square num-button"" onclick = ""recordClick(this)""><div class = content><div class = numbers>7</div></div></button><button id = button_8 class = ""square num-button"" onclick = ""recordClick(this)""><div class = content><div class = numbers>8</div></div></button><button id = button_9 class = ""square num-button"" onclick = ""recordClick(this)""><div class = content><div class = numbers>9</div></div></button><button class = clear_button id = ""ClearButton"" onclick = ""clearResponse()"">Clear</button><p><u><b>Current Answer:</b></u></p><div id=echoed_txt style=""font-size: 6rem; color:blue;""><b></b></div></div><br><br><br><br><br><br><br>",enter,,,,,7.0,"[4,5,6,9,7,3]","[4,8,6,5,2,9,3]",0.0,"[3, 4, 4, 5, 5, 6, 7, 7, 6, 6, 5, 6]",,,62b342cc99726190dd047478,11:26:26,15/01/2024
fwdspan,update_span,bj2pQYPkP5PljC8GZUKpWq5AgwK2,,call-function,93,600720,0.0-7.0-2.7-0.7-4.7,,,,,,,,,,,,,,,62b342cc99726190dd047478,11:26:26,15/01/2024
fwdspan,start_trial,bj2pQYPkP5PljC8GZUKpWq5AgwK2,,html-button-response,94,602352,0.0-7.0-2.8-0.8-0.8,1631.7000000001863,"<p style=""font-size:3rem"">Trial 9 of 12</p><br><br><br>",0,,,,,,,,,,,,62b342cc99726190dd047478,11:26:26,15/01/2024
fwdspan,number,bj2pQYPkP5PljC8GZUKpWq5AgwK2,,html-keyboard-response,95,603368,0.0-7.0-2.8-0.8-1.41-0.41,,"<p style=""font-size:14rem;font-weight:400;"">2</p>",,,,,,,,,,,,,62b342cc99726190dd047478,11:26:26,15/01/2024
fwdspan,number,bj2pQYPkP5PljC8GZUKpWq5AgwK2,,html-keyboard-response,96,604374,0.0-7.0-2.8-0.8-1.42-0.42,,"<p style=""font-size:14rem;font-weight:400;"">5</p>",,,,,,,,,,,,,62b342cc99726190dd047478,11:26:26,15/01/2024
fwdspan,number,bj2pQYPkP5PljC8GZUKpWq5AgwK2,,html-keyboard-response,97,605391,0.0-7.0-2.8-0.8-1.43-0.43,,"<p style=""font-size:14rem;font-weight:400;"">9</p>",,,,,,,,,,,,,62b342cc99726190dd047478,11:26:26,15/01/2024
fwdspan,number,bj2pQYPkP5PljC8GZUKpWq5AgwK2,,html-keyboard-response,98,606407,0.0-7.0-2.8-0.8-1.44-0.44,,"<p style=""font-size:14rem;font-weight:400;"">8</p>",,,,,,,,,,,,,62b342cc99726190dd047478,11:26:26,15/01/2024
fwdspan,number,bj2pQYPkP5PljC8GZUKpWq5AgwK2,,html-keyboard-response,99,607423,0.0-7.0-2.8-0.8-1.45-0.45,,"<p style=""font-size:14rem;font-weight:400;"">6</p>",,,,,,,,,,,,,62b342cc99726190dd047478,11:26:26,15/01/2024
fwdspan,number,bj2pQYPkP5PljC8GZUKpWq5AgwK2,,html-keyboard-response,100,608440,0.0-7.0-2.8-0.8-1.46-0.46,,"<p style=""font-size:14rem;font-weight:400;"">1</p>",,,,,,,,,,,,,62b342cc99726190dd047478,11:26:26,15/01/2024
fwdspan,delay,bj2pQYPkP5PljC8GZUKpWq5AgwK2,,html-keyboard-response,101,609017,0.0-7.0-2.8-0.8-2.8,,[],,,,,,,,,,,,,62b342cc99726190dd047478,11:26:26,15/01/2024
fwdspan,response,bj2pQYPkP5PljC8GZUKpWq5AgwK2,,html-keyboard-response,102,618848,0.0-7.0-2.8-0.8-3.8,9831.0,"<div class = numbox><p style=""font-size:2.5rem"">What were the numbers <b>in order</b>?<br>(When you are ready to lock in your answer, press <b>ENTER</b>)</p><button id = button_1 class = ""square num-button"" onclick = ""recordClick(this)""><div class = content><div class = numbers>1</div></div></button><button id = button_2 class = ""square num-button"" onclick = ""recordClick(this)""><div class = content><div class = numbers>2</div></div></button><button id = button_3 class = ""square num-button"" onclick = ""recordClick(this)""><div class = content><div class = numbers>3</div></div></button><button id = button_4 class = ""square num-button"" onclick = ""recordClick(this)""><div class = content><div class = numbers>4</div></div></button><button id = button_5 class = ""square num-button"" onclick = ""recordClick(this)""><div class = content><div class = numbers>5</div></div></button><button id = button_6 class = ""square num-button"" onclick = ""recordClick(this)""><div class = content><div class = numbers>6</div></div></button><button id = button_7 class = ""square num-button"" onclick = ""recordClick(this)""><div class = content><div class = numbers>7</div></div></button><button id = button_8 class = ""square num-button"" onclick = ""recordClick(this)""><div class = content><div class = numbers>8</div></div></button><button id = button_9 class = ""square num-button"" onclick = ""recordClick(this)""><div class = content><div class = numbers>9</div></div></button><button class = clear_button id = ""ClearButton"" onclick = ""clearResponse()"">Clear</button><p><u><b>Current Answer:</b></u></p><div id=echoed_txt style=""font-size: 6rem; color:blue;""><b></b></div></div><br><br><br><br><br><br><br>",enter,,,,,6.0,"[2,5,9,6,8,1]","[2,5,9,8,6,1]",0.0,"[3, 4, 4, 5, 5, 6, 7, 7, 6, 6, 5, 6]",,,62b342cc99726190dd047478,11:26:26,15/01/2024
fwdspan,update_span,bj2pQYPkP5PljC8GZUKpWq5AgwK2,,call-function,103,619112,0.0-7.0-2.8-0.8-4.8,,,,,,,,,,,,,,,62b342cc99726190dd047478,11:26:26,15/01/2024
fwdspan,start_trial,bj2pQYPkP5PljC8GZUKpWq5AgwK2,,html-button-response,104,619844,0.0-7.0-2.9-0.9-0.9,731.2999999998137,"<p style=""font-size:3rem"">Trial 10 of 12</p><br><br><br>",0,,,,,,,,,,,,62b342cc99726190dd047478,11:26:26,15/01/2024
fwdspan,number,bj2pQYPkP5PljC8GZUKpWq5AgwK2,,html-keyboard-response,105,620853,0.0-7.0-2.9-0.9-1.47-0.47,,"<p style=""font-size:14rem;font-weight:400;"">4</p>",,,,,,,,,,,,,62b342cc99726190dd047478,11:26:26,15/01/2024
fwdspan,number,bj2pQYPkP5PljC8GZUKpWq5AgwK2,,html-keyboard-response,106,621870,0.0-7.0-2.9-0.9-1.48-0.48,,"<p style=""font-size:14rem;font-weight:400;"">7</p>",,,,,,,,,,,,,62b342cc99726190dd047478,11:26:26,15/01/2024
fwdspan,number,bj2pQYPkP5PljC8GZUKpWq5AgwK2,,html-keyboard-response,107,622886,0.0-7.0-2.9-0.9-1.49-0.49,,"<p style=""font-size:14rem;font-weight:400;"">3</p>",,,,,,,,,,,,,62b342cc99726190dd047478,11:26:26,15/01/2024
fwdspan,number,bj2pQYPkP5PljC8GZUKpWq5AgwK2,,html-keyboard-response,108,623903,0.0-7.0-2.9-0.9-1.50-0.50,,"<p style=""font-size:14rem;font-weight:400;"">2</p>",,,,,,,,,,,,,62b342cc99726190dd047478,11:26:26,15/01/2024
fwdspan,number,bj2pQYPkP5PljC8GZUKpWq5AgwK2,,html-keyboard-response,109,624919,0.0-7.0-2.9-0.9-1.51-0.51,,"<p style=""font-size:14rem;font-weight:400;"">1</p>",,,,,,,,,,,,,62b342cc99726190dd047478,11:26:26,15/01/2024
fwdspan,number,bj2pQYPkP5PljC8GZUKpWq5AgwK2,,html-keyboard-response,110,625935,0.0-7.0-2.9-0.9-1.52-0.52,,"<p style=""font-size:14rem;font-weight:400;"">9</p>",,,,,,,,,,,,,62b342cc99726190dd047478,11:26:26,15/01/2024
fwdspan,delay,bj2pQYPkP5PljC8GZUKpWq5AgwK2,,html-keyboard-response,111,626497,0.0-7.0-2.9-0.9-2.9,,[],,,,,,,,,,,,,62b342cc99726190dd047478,11:26:26,15/01/2024
fwdspan,response,bj2pQYPkP5PljC8GZUKpWq5AgwK2,,html-keyboard-response,112,631553,0.0-7.0-2.9-0.9-3.9,5054.700000000186,"<div class = numbox><p style=""font-size:2.5rem"">What were the numbers <b>in order</b>?<br>(When you are ready to lock in your answer, press <b>ENTER</b>)</p><button id = button_1 class = ""square num-button"" onclick = ""recordClick(this)""><div class = content><div class = numbers>1</div></div></button><button id = button_2 class = ""square num-button"" onclick = ""recordClick(this)""><div class = content><div class = numbers>2</div></div></button><button id = button_3 class = ""square num-button"" onclick = ""recordClick(this)""><div class = content><div class = numbers>3</div></div></button><button id = button_4 class = ""square num-button"" onclick = ""recordClick(this)""><div class = content><div class = numbers>4</div></div></button><button id = button_5 class = ""square num-button"" onclick = ""recordClick(this)""><div class = content><div class = numbers>5</div></div></button><button id = button_6 class = ""square num-button"" onclick = ""recordClick(this)""><div class = content><div class = numbers>6</div></div></button><button id = button_7 class = ""square num-button"" onclick = ""recordClick(this)""><div class = content><div class = numbers>7</div></div></button><button id = button_8 class = ""square num-button"" onclick = ""recordClick(this)""><div class = content><div class = numbers>8</div></div></button><button id = button_9 class = ""square num-button"" onclick = ""recordClick(this)""><div class = content><div class = numbers>9</div></div></button><button class = clear_button id = ""ClearButton"" onclick = ""clearResponse()"">Clear</button><p><u><b>Current Answer:</b></u></p><div id=echoed_txt style=""font-size: 6rem; color:blue;""><b></b></div></div><br><br><br><br><br><br><br>",enter,,,,,6.0,"[2,7,3,4,1,9]","[4,7,3,2,1,9]",0.0,"[3, 4, 4, 5, 5, 6, 7, 7, 6, 6, 5, 6]",,,62b342cc99726190dd047478,11:26:26,15/01/2024
fwdspan,update_span,bj2pQYPkP5PljC8GZUKpWq5AgwK2,,call-function,113,631810,0.0-7.0-2.9-0.9-4.9,,,,,,,,,,,,,,,62b342cc99726190dd047478,11:26:26,15/01/2024
fwdspan,start_trial,bj2pQYPkP5PljC8GZUKpWq5AgwK2,,html-button-response,114,632627,0.0-7.0-2.10-0.10-0.10,815.6000000000931,"<p style=""font-size:3rem"">Trial 11 of 12</p><br><br><br>",0,,,,,,,,,,,,62b342cc99726190dd047478,11:26:26,15/01/2024
fwdspan,number,bj2pQYPkP5PljC8GZUKpWq5AgwK2,,html-keyboard-response,115,633634,0.0-7.0-2.10-0.10-1.53-0.53,,"<p style=""font-size:14rem;font-weight:400;"">2</p>",,,,,,,,,,,,,62b342cc99726190dd047478,11:26:26,15/01/2024
fwdspan,number,bj2pQYPkP5PljC8GZUKpWq5AgwK2,,html-keyboard-response,116,634650,0.0-7.0-2.10-0.10-1.54-0.54,,"<p style=""font-size:14rem;font-weight:400;"">8</p>",,,,,,,,,,,,,62b342cc99726190dd047478,11:26:26,15/01/2024
fwdspan,number,bj2pQYPkP5PljC8GZUKpWq5AgwK2,,html-keyboard-response,117,635666,0.0-7.0-2.10-0.10-1.55-0.55,,"<p style=""font-size:14rem;font-weight:400;"">5</p>",,,,,,,,,,,,,62b342cc99726190dd047478,11:26:26,15/01/2024
fwdspan,number,bj2pQYPkP5PljC8GZUKpWq5AgwK2,,html-keyboard-response,118,636683,0.0-7.0-2.10-0.10-1.56-0.56,,"<p style=""font-size:14rem;font-weight:400;"">6</p>",,,,,,,,,,,,,62b342cc99726190dd047478,11:26:26,15/01/2024
fwdspan,number,bj2pQYPkP5PljC8GZUKpWq5AgwK2,,html-keyboard-response,119,637699,0.0-7.0-2.10-0.10-1.57-0.57,,"<p style=""font-size:14rem;font-weight:400;"">7</p>",,,,,,,,,,,,,62b342cc99726190dd047478,11:26:26,15/01/2024
fwdspan,delay,bj2pQYPkP5PljC8GZUKpWq5AgwK2,,html-keyboard-response,120,638276,0.0-7.0-2.10-0.10-2.10,,[],,,,,,,,,,,,,62b342cc99726190dd047478,11:26:26,15/01/2024
fwdspan,response,bj2pQYPkP5PljC8GZUKpWq5AgwK2,,html-keyboard-response,121,643257,0.0-7.0-2.10-0.10-3.10,4980.600000000093,"<div class = numbox><p style=""font-size:2.5rem"">What were the numbers <b>in order</b>?<br>(When you are ready to lock in your answer, press <b>ENTER</b>)</p><button id = button_1 class = ""square num-button"" onclick = ""recordClick(this)""><div class = content><div class = numbers>1</div></div></button><button id = button_2 class = ""square num-button"" onclick = ""recordClick(this)""><div class = content><div class = numbers>2</div></div></button><button id = button_3 class = ""square num-button"" onclick = ""recordClick(this)""><div class = content><div class = numbers>3</div></div></button><button id = button_4 class = ""square num-button"" onclick = ""recordClick(this)""><div class = content><div class = numbers>4</div></div></button><button id = button_5 class = ""square num-button"" onclick = ""recordClick(this)""><div class = content><div class = numbers>5</div></div></button><button id = button_6 class = ""square num-button"" onclick = ""recordClick(this)""><div class = content><div class = numbers>6</div></div></button><button id = button_7 class = ""square num-button"" onclick = ""recordClick(this)""><div class = content><div class = numbers>7</div></div></button><button id = button_8 class = ""square num-button"" onclick = ""recordClick(this)""><div class = content><div class = numbers>8</div></div></button><button id = button_9 class = ""square num-button"" onclick = ""recordClick(this)""><div class = content><div class = numbers>9</div></div></button><button class = clear_button id = ""ClearButton"" onclick = ""clearResponse()"">Clear</button><p><u><b>Current Answer:</b></u></p><div id=echoed_txt style=""font-size: 6rem; color:blue;""><b></b></div></div><br><br><br><br><br><br><br>",enter,,,,,5.0,"[2,8,5,6,7]","[2,8,5,6,7]",1.0,"[3, 4, 4, 5, 5, 6, 7, 7, 6, 6, 5, 6]",,,62b342cc99726190dd047478,11:26:26,15/01/2024
fwdspan,update_span,bj2pQYPkP5PljC8GZUKpWq5AgwK2,,call-function,122,643509,0.0-7.0-2.10-0.10-4.10,,,,,,,,,,,,,,,62b342cc99726190dd047478,11:26:26,15/01/2024
fwdspan,start_trial,bj2pQYPkP5PljC8GZUKpWq5AgwK2,,html-button-response,123,644848,0.0-7.0-2.11-0.11-0.11,1339.0,"<p style=""font-size:3rem"">Trial 12 of 12</p><br><br><br>",0,,,,,,,,,,,,62b342cc99726190dd047478,11:26:26,15/01/2024
fwdspan,number,bj2pQYPkP5PljC8GZUKpWq5AgwK2,,html-keyboard-response,124,645864,0.0-7.0-2.11-0.11-1.58-0.58,,"<p style=""font-size:14rem;font-weight:400;"">2</p>",,,,,,,,,,,,,62b342cc99726190dd047478,11:26:26,15/01/2024
fwdspan,number,bj2pQYPkP5PljC8GZUKpWq5AgwK2,,html-keyboard-response,125,646880,0.0-7.0-2.11-0.11-1.59-0.59,,"<p style=""font-size:14rem;font-weight:400;"">8</p>",,,,,,,,,,,,,62b342cc99726190dd047478,11:26:26,15/01/2024
fwdspan,number,bj2pQYPkP5PljC8GZUKpWq5AgwK2,,html-keyboard-response,126,647897,0.0-7.0-2.11-0.11-1.60-0.60,,"<p style=""font-size:14rem;font-weight:400;"">5</p>",,,,,,,,,,,,,62b342cc99726190dd047478,11:26:26,15/01/2024
fwdspan,number,bj2pQYPkP5PljC8GZUKpWq5AgwK2,,html-keyboard-response,127,648913,0.0-7.0-2.11-0.11-1.61-0.61,,"<p style=""font-size:14rem;font-weight:400;"">4</p>",,,,,,,,,,,,,62b342cc99726190dd047478,11:26:26,15/01/2024
fwdspan,number,bj2pQYPkP5PljC8GZUKpWq5AgwK2,,html-keyboard-response,128,649930,0.0-7.0-2.11-0.11-1.62-0.62,,"<p style=""font-size:14rem;font-weight:400;"">1</p>",,,,,,,,,,,,,62b342cc99726190dd047478,11:26:26,15/01/2024
fwdspan,number,bj2pQYPkP5PljC8GZUKpWq5AgwK2,,html-keyboard-response,129,650946,0.0-7.0-2.11-0.11-1.63-0.63,,"<p style=""font-size:14rem;font-weight:400;"">6</p>",,,,,,,,,,,,,62b342cc99726190dd047478,11:26:26,15/01/2024
fwdspan,delay,bj2pQYPkP5PljC8GZUKpWq5AgwK2,,html-keyboard-response,130,651503,0.0-7.0-2.11-0.11-2.11,,[],,,,,,,,,,,,,62b342cc99726190dd047478,11:26:26,15/01/2024
fwdspan,response,bj2pQYPkP5PljC8GZUKpWq5AgwK2,,html-keyboard-response,131,656759,0.0-7.0-2.11-0.11-3.11,5256.0,"<div class = numbox><p style=""font-size:2.5rem"">What were the numbers <b>in order</b>?<br>(When you are ready to lock in your answer, press <b>ENTER</b>)</p><button id = button_1 class = ""square num-button"" onclick = ""recordClick(this)""><div class = content><div class = numbers>1</div></div></button><button id = button_2 class = ""square num-button"" onclick = ""recordClick(this)""><div class = content><div class = numbers>2</div></div></button><button id = button_3 class = ""square num-button"" onclick = ""recordClick(this)""><div class = content><div class = numbers>3</div></div></button><button id = button_4 class = ""square num-button"" onclick = ""recordClick(this)""><div class = content><div class = numbers>4</div></div></button><button id = button_5 class = ""square num-button"" onclick = ""recordClick(this)""><div class = content><div class = numbers>5</div></div></button><button id = button_6 class = ""square num-button"" onclick = ""recordClick(this)""><div class = content><div class = numbers>6</div></div></button><button id = button_7 class = ""square num-button"" onclick = ""recordClick(this)""><div class = content><div class = numbers>7</div></div></button><button id = button_8 class = ""square num-button"" onclick = ""recordClick(this)""><div class = content><div class = numbers>8</div></div></button><button id = button_9 class = ""square num-button"" onclick = ""recordClick(this)""><div class = content><div class = numbers>9</div></div></button><button class = clear_button id = ""ClearButton"" onclick = ""clearResponse()"">Clear</button><p><u><b>Current Answer:</b></u></p><div id=echoed_txt style=""font-size: 6rem; color:blue;""><b></b></div></div><br><br><br><br><br><br><br>",enter,,,,,6.0,"[2,8,5,4,7,6]","[2,8,5,4,1,6]",0.0,"[3, 4, 4, 5, 5, 6, 7, 7, 6, 6, 5, 6]",,,62b342cc99726190dd047478,11:26:26,15/01/2024
fwdspan,update_span,bj2pQYPkP5PljC8GZUKpWq5AgwK2,,call-function,132,657015,0.0-7.0-2.11-0.11-4.11,,,,,,,,,,,,,,,62b342cc99726190dd047478,11:26:26,15/01/2024
fwdspan,survey,bj2pQYPkP5PljC8GZUKpWq5AgwK2,bj2pQYPkP5PljC8GZUKpWq5AgwK2,lmdlab-survey-text,133,684953,0.0-7.0-3.0,27173.0,,"{'Q0': 'I couldnt keep up with the numbers, but i enjoyed the challange'}",,,,,,,,,,,,62b342cc99726190dd047478,11:26:26,15/01/2024
fwdspan,finish,bj2pQYPkP5PljC8GZUKpWq5AgwK2,,html-button-response,134,694980,0.0-7.0-4.0,10025.399999999907,<p><p style='font-size: 3rem'>Great work!<br><br>This completes the digit span task.</p><br><br><br>,0,,,,,,,,,,,,62b342cc99726190dd047478,11:26:26,15/01/2024
delaylearn,survey,bj2pQYPkP5PljC8GZUKpWq5AgwK2,bj2pQYPkP5PljC8GZUKpWq5AgwK2,lmdlab-html-vas-response,135,700849,0.0-8.0,4358.0,How <b>happy</b> are you right now?,0.24537032349337715,,,,,,,,,,,,62b342cc99726190dd047478,11:26:26,15/01/2024
delaylearn,rest,bj2pQYPkP5PljC8GZUKpWq5AgwK2,bj2pQYPkP5PljC8GZUKpWq5AgwK2,lmdlab-rest-trial-limit,136,717051,0.0-9.0,15695.5,"<p style='font-size: 4.4rem; color: white;'>Great work on that part! Please take a break.<br><br><br><br><i>(For example, stand up, stretch, get some water)</i><br><br><br><br><br>When you are ready, press the button<br><br>to start the next section.</p><br><br><br><br>",0,,,,0.0,,,,,,,,62b342cc99726190dd047478,11:26:26,15/01/2024
delaylearn,instructions,bj2pQYPkP5PljC8GZUKpWq5AgwK2,bj2pQYPkP5PljC8GZUKpWq5AgwK2,lmdlab-rest-trial,137,755328,0.0-10.0,37775.39999999991,"<p style='font-size: 3.4rem; line-height: 1.4'><br><br><br>Finally, you will complete the second set of self-report questionnaires.<br><br><br><br>These answers are <b>extremely</b> important for our research project.<br><br><br><b>It will be very very helpful if you can focus on these questions.</b><br><br><br>This part should take less than 6 minutes.<br><br></p><br><br><br><br>",0,,,,,,,,,,,,62b342cc99726190dd047478,11:26:26,15/01/2024
survey,introduction,bj2pQYPkP5PljC8GZUKpWq5AgwK2,,html-button-response,138,759782,0.0-11.0-0.0-0.0,4453.899999999907,"<p style=""font-size: 3rem; line-height: 1.2"">This part involves the completion of several questionnaires<br> about mood and personality.<br><br><br>Please read the instructions for <b>each set of questions</b>,<br>and then <b>carefully</b> answer each question.<br><br><br>Please note that the <b>instructions and options change</b><br>for different questionnaries.<br><br><br>Also, some questions check whether you are paying attention.<br><br><br><br>This part has <b>five</b> short questionnaires.<br><br><br><br><b>Thank you for doing your best!</b><br><br><br>",0,,,,,,,,,,,,62b342cc99726190dd047478,11:26:26,15/01/2024
survey,STAI,bj2pQYPkP5PljC8GZUKpWq5AgwK2,,html-button-response,139,762397,0.0-11.0-1.0-0.0-0.0,2613.7999999998137,"<p style=""font-size: 2.5rem"">In the next short questionnaire, the instructions are:<br><br><br></p><p style=""font-size: 3rem; line-height: 1.3; color: #000080; max-width: 60ch""> A number of statements which people have used to describe themselves are
given below. Read each statement and then rate according to the labels to
indicate <b>how you generally feel</b>.<br>
There are no right or wrong answers. Do not spend too much time on any one
statement but give the answer which seems to describe how you generally feel.</p><br><br><br><p style=""font-size: 2.5rem""> Thank you for your continued attention and focus!</p><br><br><br>",0,,,,,,,,,,,,62b342cc99726190dd047478,11:26:26,15/01/2024
survey,STAI,bj2pQYPkP5PljC8GZUKpWq5AgwK2,,lmdlab-survey-likert,140,865957,0.0-11.0-1.0-0.0-1.0,,,,"{""STAI1"":1,""STAI3"":0,""STAI4"":2,""STAI6"":1,""STAI7"":1,""STAI8"":2,""STAI9"":2,""STAI10"":1,""STAI11"":1,""STAI12"":2,""STAI13"":1,""STAI14"":1,""Catch"":0,""STAI15"":2,""STAI16"":0,""STAI17"":2,""STAI18"":2,""STAI19"":2,""STAI20"":2,""BDI5"":1,""LOTR1"":0,""RRQ3"":2}","{""trialStart"":809155.2000000002,""STAI1"":2975,""STAI3"":4150.199999999721,""STAI4"":9224.299999999814,""STAI6"":11337.599999999627,""STAI7"":18309.899999999907,""STAI8"":21707.899999999907,""STAI9"":27646,""STAI11"":30577.799999999814,""STAI12"":31973.399999999907,""STAI13"":34492.39999999991,""STAI14"":39588.59999999963,""Catch"":42424.299999999814,""STAI15"":43606.39999999991,""STAI16"":45290.5,""STAI17"":50622.89999999991,""STAI18"":55866.299999999814,""STAI19"":59758.799999999814,""STAI20"":74700.09999999963,""BDI5"":80992.8999999999,""LOTR1"":89988.8999999999,""RRQ3"":92692.19999999972,""STAI10"":100084.79999999981}","[0,1,2,3,4,5,6,7,8,9,10,11,12,13,14,15,16,17,18,19,20,21]",,,,,,,,,62b342cc99726190dd047478,11:26:26,15/01/2024
survey,PHQ9,bj2pQYPkP5PljC8GZUKpWq5AgwK2,,html-button-response,141,868799,0.0-11.0-1.0-1.0-0.0,2840.6999999997206,"<p style=""font-size: 2.5rem"">In the next short questionnaire, the instructions are:<br><br><br></p><p style=""font-size: 3rem; line-height: 1.3; color: #000080; max-width: 60ch""> Over the <u>last two weeks</u>, how often have you been bothered by any of the following problems?</p><br><br><br><p style=""font-size: 2.5rem""> Thank you for your continued attention and focus!</p><br><br><br>",0,,,,,,,,,,,,62b342cc99726190dd047478,11:26:26,15/01/2024
survey,PHQ9,bj2pQYPkP5PljC8GZUKpWq5AgwK2,,lmdlab-survey-likert,142,924362,0.0-11.0-1.0-1.0-1.0,,,,"{""PHQ1"":2,""PHQ2"":1,""PHQ3"":2,""PHQ4"":1,""Catch"":0,""PHQ5"":2,""PHQ6"":2,""PHQ7"":2,""PHQ8"":2,""PHQ9"":1}","{""trialStart"":915556,""PHQ1"":3137.7999999998137,""PHQ2"":9393.299999999814,""PHQ3"":10752.200000000186,""PHQ4"":19216.5,""Catch"":22473.299999999814,""PHQ5"":26556.799999999814,""PHQ6"":29253,""PHQ7"":35877.700000000186,""PHQ8"":46903.89999999991,""PHQ9"":53691}","[0,1,2,3,4,5,6,7,8,9]",,,,,,,,,62b342cc99726190dd047478,11:26:26,15/01/2024
survey,SDS,bj2pQYPkP5PljC8GZUKpWq5AgwK2,,html-button-response,143,927535,0.0-11.0-1.0-2.0-0.0,3172.100000000093,"<p style=""font-size: 2.5rem"">In the next short questionnaire, the instructions are:<br><br><br></p><p style=""font-size: 3rem; line-height: 1.3; color: #000080; max-width: 60ch""> Please read each statement and decide <b>how much</b> of the
time the statement describes how you have been feeling
during the <b>past several days</b>.</p><br><br><br><p style=""font-size: 2.5rem""> Thank you for your continued attention and focus!</p><br><br><br>",0,,,,,,,,,,,,62b342cc99726190dd047478,11:26:26,15/01/2024
survey,SDS,bj2pQYPkP5PljC8GZUKpWq5AgwK2,,lmdlab-survey-likert,144,1011040,0.0-11.0-1.0-2.0-1.0,,,,"{""SDS2"":0,""SDS3"":0,""SDS5"":2,""SDS6"":3,""SDS7"":0,""SDS8"":0,""Catch"":0,""SDS9"":1,""SDS10"":2,""SDS11"":0,""SDS12"":1,""SDS14"":0,""SDS16"":1,""SDS17"":1,""SDS18"":1,""SDS20"":2}","{""trialStart"":974292.5,""SDS2"":6962.700000000186,""SDS3"":9392.5,""SDS5"":15735.200000000186,""SDS6"":18069.399999999907,""SDS7"":24124.600000000093,""SDS8"":27241.100000000093,""Catch"":33981.799999999814,""SDS9"":37666.60000000009,""SDS10"":40487.5,""SDS11"":47058.39999999991,""SDS12"":61586.799999999814,""SDS14"":63476.799999999814,""SDS16"":67633.20000000019,""SDS17"":70364.1000000001,""SDS18"":76624.70000000019,""SDS20"":79061.1000000001}","[0,1,2,3,4,5,6,7,8,9,10,11,12,13,14,15]",,,,,,,,,62b342cc99726190dd047478,11:26:26,15/01/2024
survey,STICSA,bj2pQYPkP5PljC8GZUKpWq5AgwK2,,html-button-response,145,1012953,0.0-11.0-1.0-3.0-0.0,1911.1000000000931,"<p style=""font-size: 2.5rem"">In the next short questionnaire, the instructions are:<br><br><br></p><p style=""font-size: 3rem; line-height: 1.3; color: #000080; max-width: 60ch""> You will see a list of statements which can be used to describe how people feel.
Below each statement are four options which indicate how often each statement
is true of you. Please read each statement carefully and select the option which best indicates
how often, <b>in general</b>, the statement is true of you.</p><br><br><br><p style=""font-size: 2.5rem""> Thank you for your continued attention and focus!</p><br><br><br>",0,,,,,,,,,,,,62b342cc99726190dd047478,11:26:26,15/01/2024
survey,STICSA,bj2pQYPkP5PljC8GZUKpWq5AgwK2,,lmdlab-survey-likert,146,1047281,0.0-11.0-1.0-3.0-1.0,,,,"{""STICSA2"":1,""STICSA6"":1,""STICSA7"":1,""STICSA8"":0,""STICSA12"":0,""STICSA14"":0,""Catch"":3,""STICSA15"":1,""STICSA18"":0,""STICSA20"":2,""STICSA21"":3}","{""trialStart"":1059709.9,""STICSA2"":2419.5,""STICSA6"":3593.899999999907,""STICSA7"":9278.100000000093,""STICSA8"":13359.399999999907,""STICSA12"":15123.600000000093,""STICSA14"":16504.200000000186,""Catch"":20696.5,""STICSA15"":22069.600000000093,""STICSA18"":26018.700000000186,""STICSA20"":27805,""STICSA21"":30772.5}","[0,1,2,3,4,5,6,7,8,9,10]",,,,,,,,,62b342cc99726190dd047478,11:26:26,15/01/2024
survey,BIS,bj2pQYPkP5PljC8GZUKpWq5AgwK2,,html-button-response,147,1052121,0.0-11.0-1.0-4.0-0.0,4838.300000000279,"<p style=""font-size: 2.5rem"">In the next short questionnaire, the instructions are:<br><br><br></p><p style=""font-size: 3rem; line-height: 1.3; color: #000080; max-width: 60ch""> People differ in the ways they act and think in different situations.
This is a test to measure some of the ways in which you act and think.
Read each statement and select the option that describes you.
Do not spend too much time on any statement. Answer quickly and honestly.</p><br><br><br><p style=""font-size: 2.5rem""> Thank you for your continued attention and focus!</p><br><br><br>",0,,,,,,,,,,,,62b342cc99726190dd047478,11:26:26,15/01/2024
survey,BIS_12,bj2pQYPkP5PljC8GZUKpWq5AgwK2,bj2pQYPkP5PljC8GZUKpWq5AgwK2,lmdlab-survey-likert,148,1091372,0.0-11.0-1.0-4.0-1.0,,,,"{""BIS6"":2,""BIS14"":1,""Catch"":0,""BIS17"":1,""BIS19"":1,""BIS22"":2,""BIS25"":2}","{""trialStart"":1098878.1,""BIS6"":1922.1999999997206,""Catch"":13580.799999999814,""BIS17"":17216.100000000093,""BIS19"":18529.5,""BIS22"":19976.600000000093,""BIS25"":26869.5,""BIS14"":32877.60000000009}","[0,1,2,3,4,5,6]",,,,,,,,,62b342cc99726190dd047478,11:26:26,15/01/2024
survey,resources,bj2pQYPkP5PljC8GZUKpWq5AgwK2,,html-button-response,149,1094358,0.0-11.0-2.0-0.0,2984.600000000093,"<p style=""font-size: 3.5rem; line-height: 1.5"">If you feel affected by the issues raised by these questions and<br>wish to access any further support with regards to your mental<br>health you can find more information on this website:<br><br><b>https://www.nhs.uk/nhs-services/mental-health-services/where-to-get-urgent-help-for-mental-health/</b><br><br><br>Should you wish to talk, any time of day or night, you can call<br>116 123 to talk to the Samaritans you can also text ""SHOUT""<br>to 85258 to contact the Shout Crisis Text Line.<br><br><br><br></p>",0,,,,,,,,,,,,62b342cc99726190dd047478,11:26:26,15/01/2024
survey,finish,bj2pQYPkP5PljC8GZUKpWq5AgwK2,,html-button-response,150,1095693,0.0-11.0-3.0,1334.6000000000931,"<p style=""font-size: 3rem"">Thank you!  You have finished this part of the experiment!<br><br><br>",0,,,,,,,,,,,,62b342cc99726190dd047478,11:26:26,15/01/2024
delaylearn,survey,bj2pQYPkP5PljC8GZUKpWq5AgwK2,bj2pQYPkP5PljC8GZUKpWq5AgwK2,lmdlab-html-vas-response,151,1100269,0.0-12.0,3064.0,How <b>happy</b> are you right now?,0.20871909065156674,,,,,,,,,,,,62b342cc99726190dd047478,11:26:26,15/01/2024
delaylearn,instructions,bj2pQYPkP5PljC8GZUKpWq5AgwK2,bj2pQYPkP5PljC8GZUKpWq5AgwK2,html-keyboard-response,152,1103359,0.0-13.0-0.0,3088.8000000002794,"<p style='font-size: 4rem; line-height: 1.3'>Great!<br><br>Finally, there are a four short questions about stress, sleep, and the overall experiment.<br><br></p><p style='font-size: 3.4rem; line-height: 1.3; color: blue;'><br><br>*Press the space bar to begin*</p>", ,,,,,,,,,,,,62b342cc99726190dd047478,11:26:26,15/01/2024
delaylearn,survey,bj2pQYPkP5PljC8GZUKpWq5AgwK2,bj2pQYPkP5PljC8GZUKpWq5AgwK2,lmdlab-html-vas-response,153,1111932,0.0-13.0-1.0,7048.0,"<p style='font-size: 3.4rem; line-height: 1.4'>How would you rate your current stress level?<br><br>Use the scale below, with 1 being the least<br>stressed and 10 being the most stressed:</p><br><br>",0.731481411711073,,,,,,,,,,state_stress,,62b342cc99726190dd047478,11:26:26,15/01/2024
delaylearn,survey,bj2pQYPkP5PljC8GZUKpWq5AgwK2,bj2pQYPkP5PljC8GZUKpWq5AgwK2,lmdlab-evan-quiz,154,1119124,0.0-13.0-2.0,5916.0,,"{""Q0"":""Average""}",,,,,,,,,,sleep1,[2],62b342cc99726190dd047478,11:26:26,15/01/2024
delaylearn,survey,bj2pQYPkP5PljC8GZUKpWq5AgwK2,bj2pQYPkP5PljC8GZUKpWq5AgwK2,lmdlab-evan-quiz,155,1126512,0.0-13.0-3.0,6621.0,,"{""Q0"":""Average""}",,,,,,,,,,sleep2,[2],62b342cc99726190dd047478,11:26:26,15/01/2024
delaylearn,survey,bj2pQYPkP5PljC8GZUKpWq5AgwK2,bj2pQYPkP5PljC8GZUKpWq5AgwK2,lmdlab-evan-quiz,156,1133027,0.0-13.0-4.0,5756.0,,"{""Q0"":""Poor""}",,,,,,,,,,sleep3,[3],62b342cc99726190dd047478,11:26:26,15/01/2024
delaylearn,instructions,bj2pQYPkP5PljC8GZUKpWq5AgwK2,bj2pQYPkP5PljC8GZUKpWq5AgwK2,html-keyboard-response,157,1134443,0.0-14.0-0.0,1415.4000000003725,"<p style='font-size: 4rem; line-height: 1.3'>Great!<br><br>Next, there are a few questions about the task.<br><br></p><p style='font-size: 3.4rem; line-height: 1.3; color: blue;'><br><br>*Press the space bar to begin*</p>", ,,,,,,,,,,,,62b342cc99726190dd047478,11:26:26,15/01/2024
delaylearn,instructions,bj2pQYPkP5PljC8GZUKpWq5AgwK2,bj2pQYPkP5PljC8GZUKpWq5AgwK2,lmdlab-rest-trial,158,1140409,0.0-14.0-1.0,5458.199999999721,"<p style='font-size: 4rem; line-height: 1.3'>The following questions are very important for our scientific<br>research, but they will not affect your compensation in any way.<br><br>We would appreciate it if you respond honestly!<br><br><br><br></p>",0,,,,,,,,,,,,62b342cc99726190dd047478,11:26:26,15/01/2024
delaylearn,survey,bj2pQYPkP5PljC8GZUKpWq5AgwK2,bj2pQYPkP5PljC8GZUKpWq5AgwK2,lmdlab-html-vas-response,159,1149121,0.0-14.0-2.0,7696.0,"<p style=""line-height: 1.3;"">How engaged and focused were you during this task?</p>",0.9436968959433051,,,,,,,,,,engagement1,,62b342cc99726190dd047478,11:26:26,15/01/2024
delaylearn,survey,bj2pQYPkP5PljC8GZUKpWq5AgwK2,bj2pQYPkP5PljC8GZUKpWq5AgwK2,lmdlab-evan-quiz,160,1156871,0.0-14.0-3.0,6473.0,,"{""Q0"":""Yes""}",,,,,,,,,,engagement2,[0],62b342cc99726190dd047478,11:26:26,15/01/2024
delaylearn,survey,bj2pQYPkP5PljC8GZUKpWq5AgwK2,bj2pQYPkP5PljC8GZUKpWq5AgwK2,lmdlab-survey-text,161,1177274,0.0-14.0-4.0,19649.5,,{'Q0': 'i did not '},,,,,,,,,,engagement3,,62b342cc99726190dd047478,11:26:26,15/01/2024
delaylearn,survey,bj2pQYPkP5PljC8GZUKpWq5AgwK2,bj2pQYPkP5PljC8GZUKpWq5AgwK2,lmdlab-evan-quiz,162,1184881,0.0-14.0-5.0,6336.0,,"{""Q0"":""Yes""}",,,,,,,,,,environment1,[0],62b342cc99726190dd047478,11:26:26,15/01/2024
delaylearn,survey,bj2pQYPkP5PljC8GZUKpWq5AgwK2,bj2pQYPkP5PljC8GZUKpWq5AgwK2,lmdlab-survey-text,163,1207077,0.0-14.0-6.0,21440.80000000028,,{'Q0': 'i enjoyed the challenge and how easy it is to select options'},,,,,,,,,,comment1,,62b342cc99726190dd047478,11:26:26,15/01/2024
